time,ax,ay,az,atotal
0.0011970996856689453,0.02,-0.04,-0.63,0.63
0.0014560222625732422,0.06,-0.06,-1.06,1.06
0.0017240047454833984,-0.09,-0.06,-1.16,1.16
0.0019559860229492188,-0.31,-0.07,-0.98,1.03
0.0021660327911376953,-0.45,-0.07,-0.63,0.77
0.0023889541625976562,-0.43,-0.05,-0.29,0.52
0.0026128292083740234,-0.25,0.03,-0.05,0.25
0.010973930358886719,-0.08,0.06,0.12,0.15
0.02078700065612793,0.0,0.11,0.21,0.23
0.03132295608520508,0.09,0.17,0.27,0.33
0.10035991668701172,0.16,0.15,0.34,0.4
0.1006159782409668,0.14,0.09,0.38,0.41
0.10085892677307129,0.03,0.01,0.4,0.4
0.10108590126037598,-0.02,-0.01,0.36,0.36
0.10131597518920898,0.0,0.02,0.24,0.24
0.10154986381530762,0.03,0.04,0.08,0.09
0.10176801681518555,0.05,0.03,-0.04,0.07
0.11078691482543945,0.08,0.05,-0.16,0.18
0.12084603309631348,0.11,0.0,-0.24,0.26
0.1315300464630127,0.08,-0.06,-0.29,0.3
0.20086884498596191,0.01,-0.05,-0.33,0.33
0.2011089324951172,-0.09,-0.05,-0.34,0.35
0.2013399600982666,-0.18,-0.09,-0.35,0.4
0.2015399932861328,-0.21,-0.09,-0.34,0.4
0.20176196098327637,-0.15,-0.05,-0.32,0.35
0.20198893547058105,-0.06,0.04,-0.27,0.27
0.20221304893493652,0.0,0.08,-0.16,0.17
0.21077895164489746,0.03,0.06,-0.07,0.09
0.22073006629943848,0.02,0.02,0.07,0.07
0.23125696182250977,-0.06,0.01,0.19,0.19
0.30060791969299316,-0.16,-0.03,0.26,0.3
0.3008699417114258,-0.15,-0.06,0.28,0.32
0.301102876663208,-0.03,-0.02,0.25,0.25
0.3013269901275635,0.13,0.01,0.18,0.22
0.30154895782470703,0.23,0.03,0.13,0.26
0.3017690181732178,0.21,0.04,0.07,0.22
0.30199098587036133,0.13,0.02,-0.04,0.13
0.3105769157409668,0.06,0.01,-0.11,0.12
0.32051587104797363,0.04,0.03,-0.2,0.2
0.3311798572540283,0.01,0.04,-0.26,0.26
0.40059590339660645,-0.04,0.07,-0.33,0.33
0.40085387229919434,-0.07,0.09,-0.37,0.38
0.40108489990234375,-0.04,0.1,-0.39,0.4
0.40131688117980957,-0.02,0.09,-0.4,0.41
0.4015219211578369,-0.01,0.09,-0.37,0.38
0.4017508029937744,0.04,0.12,-0.33,0.35
0.40195298194885254,0.06,0.12,-0.25,0.28
0.41046595573425293,0.04,0.07,-0.15,0.17
0.42034411430358887,0.09,0.03,-0.05,0.1
0.43099498748779297,0.15,0.05,0.01,0.15
0.5003678798675537,0.16,0.03,0.07,0.17
0.5006167888641357,0.1,0.02,0.09,0.13
0.5008480548858643,0.04,0.0,0.08,0.08
0.5010640621185303,0.06,-0.01,0.06,0.08
0.5012760162353516,0.07,-0.03,0.03,0.08
0.5014998912811279,0.09,0.02,-0.01,0.09
0.5017168521881104,0.12,0.03,-0.07,0.14
0.5103027820587158,0.12,0.05,-0.1,0.16
0.5202059745788574,0.09,0.03,-0.08,0.12
0.5310239791870117,0.07,-0.01,-0.08,0.1
0.5999867916107178,0.0,-0.07,-0.08,0.1
0.6005771160125732,-0.07,-0.1,-0.08,0.14
0.6007931232452393,-0.04,-0.09,-0.08,0.12
0.6009979248046875,-0.04,-0.08,-0.1,0.13
0.6012208461761475,-0.08,-0.02,-0.14,0.16
0.6014499664306641,-0.07,0.02,-0.2,0.21
0.6016759872436523,-0.01,0.03,-0.23,0.23
0.6101701259613037,-0.04,0.02,-0.23,0.23
0.6201460361480713,-0.1,0.03,-0.23,0.25
0.6309909820556641,-0.1,0.05,-0.25,0.27
0.6998119354248047,-0.06,0.02,-0.26,0.26
0.7000648975372314,-0.01,-0.04,-0.25,0.25
0.7008230686187744,0.0,-0.1,-0.24,0.26
0.701030969619751,0.0,-0.14,-0.22,0.26
0.7012579441070557,-0.03,-0.15,-0.18,0.23
0.7014989852905273,-0.06,-0.12,-0.13,0.18
0.7017190456390381,0.04,-0.04,-0.11,0.12
0.7102229595184326,0.15,-0.01,-0.1,0.18
0.7199900150299072,0.13,-0.01,-0.08,0.15
0.7308108806610107,0.06,0.0,-0.04,0.07
0.7993018627166748,0.03,0.0,0.01,0.03
0.7995498180389404,0.0,0.0,0.05,0.05
0.7997779846191406,-0.04,0.01,0.03,0.05
0.800001859664917,-0.1,0.05,0.01,0.11
0.80023193359375,-0.18,0.03,-0.02,0.18
0.800926923751831,-0.22,-0.02,-0.06,0.22
0.8011558055877686,-0.19,0.03,-0.12,0.22
0.8101959228515625,-0.14,0.11,-0.17,0.24
0.8199288845062256,-0.12,0.13,-0.2,0.26
0.8306589126586914,-0.08,0.05,-0.18,0.2
0.8997359275817871,-0.05,-0.1,-0.13,0.17
0.8999919891357422,-0.09,-0.19,-0.1,0.23
0.9001748561859131,-0.15,-0.19,-0.1,0.26
0.9003818035125732,-0.15,-0.15,-0.08,0.22
0.9006040096282959,-0.04,-0.11,-0.04,0.12
0.9013388156890869,0.09,-0.09,0.01,0.12
0.9015748500823975,0.2,-0.06,0.02,0.2
0.9099700450897217,0.22,-0.04,0.02,0.22
0.9198129177093506,0.18,-0.02,0.02,0.18
0.9306049346923828,0.1,0.04,0.02,0.1
0.9999129772186279,-0.02,0.06,0.02,0.06
1.0001370906829834,-0.11,0.07,0.02,0.13
1.0003430843353271,-0.11,0.12,0.0,0.16
1.0005409717559814,-0.13,0.1,0.0,0.16
1.0007197856903076,-0.13,0.03,0.0,0.13
1.0013868808746338,-0.13,0.01,-0.03,0.13
1.0016179084777832,-0.12,-0.01,-0.07,0.13
1.0098841190338135,-0.05,-0.01,-0.1,0.11
1.0195701122283936,0.02,0.0,-0.1,0.1
1.0305030345916748,0.02,-0.02,-0.06,0.06
1.0998139381408691,-0.01,-0.05,-0.01,0.05
1.1000688076019287,-0.11,-0.06,0.0,0.12
1.1002769470214844,-0.15,-0.06,0.01,0.16
1.100477933883667,-0.01,-0.05,0.01,0.05
1.1006999015808105,0.09,-0.06,0.02,0.1
1.1008961200714111,0.07,-0.08,0.02,0.1
1.1011149883270264,0.03,-0.1,0.04,0.11
1.1098110675811768,-0.04,-0.12,0.02,0.12
1.1195428371429443,-0.07,-0.12,0.01,0.13
1.130422830581665,-0.03,-0.14,0.0,0.14
1.200037956237793,-0.01,-0.14,-0.04,0.14
1.2002618312835693,-0.03,-0.09,-0.04,0.1
1.2004969120025635,-0.05,-0.06,0.02,0.08
1.200727939605713,-0.07,-0.05,0.08,0.11
1.200929880142212,-0.17,-0.05,0.1,0.2
1.2011289596557617,-0.19,-0.05,0.12,0.23
1.201348066329956,-0.18,0.0,0.14,0.22
1.209686040878296,-0.12,0.02,0.17,0.2
1.219491958618164,-0.08,-0.01,0.22,0.23
1.2301628589630127,-0.08,-0.06,0.28,0.29
1.3000900745391846,-0.11,-0.1,0.34,0.37
1.3003418445587158,-0.19,-0.18,0.37,0.45
1.3005688190460205,-0.24,-0.3,0.39,0.54
1.3008010387420654,-0.31,-0.37,0.4,0.62
1.301023006439209,-0.36,-0.42,0.45,0.71
1.3012487888336182,-0.34,-0.44,0.55,0.78
1.3014681339263916,-0.31,-0.42,0.72,0.88
1.3095500469207764,-0.3,-0.46,0.87,1.02
1.3193769454956055,-0.32,-0.52,0.96,1.13
1.330190896987915,-0.4,-0.56,0.98,1.19
1.400998830795288,-0.45,-0.59,0.95,1.2
1.4012269973754883,-0.53,-0.59,0.87,1.17
1.4014561176300049,-0.63,-0.51,0.78,1.12
1.4016859531402588,-0.7,-0.47,0.67,1.07
1.4023988246917725,-0.75,-0.42,0.55,1.02
1.4026458263397217,-0.69,-0.39,0.45,0.91
1.4028739929199219,-0.78,-0.44,0.39,0.97
1.4094889163970947,-0.99,-0.54,0.37,1.18
1.4192829132080078,-1.19,-0.61,0.36,1.38
1.4301159381866455,-1.25,-0.62,0.38,1.44
1.5004889965057373,-1.18,-0.63,0.42,1.4
1.5007450580596924,-1.15,-0.57,0.47,1.36
1.5009758472442627,-1.19,-0.44,0.53,1.37
1.5011999607086182,-1.28,-0.29,0.62,1.45
1.50142502784729,-1.26,-0.14,0.73,1.46
1.501645803451538,-1.18,0.06,0.82,1.43
1.5018551349639893,-1.1,0.22,0.89,1.43
1.5093510150909424,-1.03,0.35,0.93,1.43
1.5191290378570557,-0.9,0.56,0.9,1.39
1.5300390720367432,-0.6,0.77,0.83,1.28
1.6011698246002197,-0.35,0.93,0.75,1.24
1.6013939380645752,-0.32,0.93,0.72,1.21
1.601625919342041,-0.34,0.86,0.7,1.15
1.6018519401550293,-0.27,0.84,0.65,1.09
1.6020770072937012,-0.24,0.77,0.57,0.98
1.6027729511260986,-0.2,0.61,0.46,0.78
1.6030218601226807,-0.14,0.39,0.31,0.51
1.6093249320983887,-0.1,0.17,0.17,0.26
1.619352102279663,-0.06,-0.06,0.07,0.11
1.6299009323120117,-0.12,-0.23,0.05,0.26
1.7013890743255615,-0.3,-0.4,0.08,0.5
1.7016429901123047,-0.46,-0.58,0.11,0.74
1.7018768787384033,-0.47,-0.74,0.06,0.87
1.70210599899292,-0.28,-0.81,-0.02,0.85
1.7027809619903564,-0.03,-0.85,-0.1,0.85
1.703016996383667,0.12,-1.06,-0.08,1.06
1.7032458782196045,0.21,-1.35,0.09,1.36
1.7091269493103027,0.31,-1.62,0.36,1.68
1.7195169925689697,0.44,-1.79,0.57,1.92
1.7297489643096924,0.54,-1.8,0.66,1.99
1.8015799522399902,0.63,-1.6,0.63,1.83
1.8018290996551514,0.75,-1.19,0.47,1.48
1.8020598888397217,0.86,-0.72,0.34,1.17
1.8022868633270264,0.95,-0.23,0.24,1.0
1.8025109767913818,1.08,0.21,0.13,1.1
1.8032119274139404,1.1,0.55,-0.02,1.23
1.8034489154815674,1.11,0.83,-0.16,1.39
1.8090298175811768,1.3,1.02,-0.21,1.66
1.8190879821777344,1.44,1.21,-0.2,1.89
1.829693078994751,1.4,1.36,-0.15,1.95
1.9013497829437256,1.06,1.5,-0.01,1.83
1.9016010761260986,0.61,1.64,0.21,1.76
1.9018259048461914,0.22,1.63,0.45,1.7
1.9020450115203857,-0.04,1.55,0.7,1.7
1.902271032333374,-0.17,1.35,0.98,1.67
1.9024930000305176,-0.29,1.0,1.28,1.65
1.902712106704712,-0.24,0.56,1.59,1.7
1.9089949131011963,0.0,0.01,1.91,1.91
1.91892409324646,0.25,-0.56,2.15,2.23
1.9295129776000977,0.35,-0.99,2.23,2.46
2.0016210079193115,0.29,-1.32,2.21,2.59
2.001866102218628,0.11,-1.62,2.13,2.67
2.0020968914031982,0.01,-1.81,1.92,2.63
2.002319097518921,0.13,-1.95,1.7,2.59
2.0025460720062256,0.43,-2.02,1.52,2.56
2.0027430057525635,0.76,-2.02,1.41,2.57
2.0029618740081787,0.97,-1.93,1.3,2.52
2.0088489055633545,0.99,-1.82,1.24,2.41
2.0188729763031006,0.98,-1.68,1.26,2.31
2.0294859409332275,1.05,-1.52,1.29,2.25
2.100986957550049,1.22,-1.34,1.34,2.25
2.1012229919433594,1.36,-1.11,1.42,2.25
2.1014599800109863,1.38,-0.84,1.53,2.22
2.101684808731079,1.34,-0.45,1.61,2.14
2.101909875869751,1.2,0.04,1.65,2.04
2.1021289825439453,1.11,0.52,1.62,2.03
2.1023459434509277,1.18,1.0,1.53,2.17
2.1088709831237793,1.3,1.49,1.39,2.41
2.1187798976898193,1.32,1.84,1.18,2.55
2.1294689178466797,1.24,1.85,1.02,2.44
2.200505018234253,1.08,1.55,0.96,2.11
2.2007501125335693,0.94,1.25,0.9,1.8
2.200978994369507,0.9,0.97,0.86,1.57
2.2011830806732178,0.9,0.63,0.8,1.35
2.201403856277466,0.84,0.34,0.79,1.2
2.2016208171844482,0.81,0.14,0.82,1.16
2.2018368244171143,0.85,0.08,0.92,1.25
2.208564043045044,0.82,0.22,1.12,1.4
2.2186379432678223,0.64,0.51,1.34,1.57
2.2292709350585938,0.41,0.92,1.52,1.82
2.3009588718414307,0.23,1.36,1.68,2.17
2.301198959350586,0.11,1.69,1.86,2.51
2.301429033279419,0.05,2.04,1.95,2.82
2.3016278743743896,0.08,2.19,1.95,2.93
2.3018457889556885,0.03,2.23,1.76,2.84
2.3020718097686768,-0.14,2.27,1.33,2.63
2.3022968769073486,-0.35,2.29,0.72,2.42
2.3084938526153564,-0.44,2.35,0.02,2.39
2.3185389041900635,-0.47,2.28,-0.73,2.43
2.3292489051818848,-0.42,2.06,-1.54,2.6
2.4012489318847656,-0.43,1.57,-2.32,2.83
2.4014980792999268,-0.57,0.78,-2.97,3.12
2.401731014251709,-0.74,-0.15,-3.28,3.36
2.401984930038452,-0.86,-1.21,-3.26,3.58
2.402204990386963,-1.03,-2.21,-2.95,3.82
2.4024240970611572,-1.26,-2.93,-2.38,3.97
2.402651071548462,-1.5,-3.34,-1.61,3.99
2.4083640575408936,-1.69,-3.19,-0.71,3.67
2.418429136276245,-1.81,-2.49,0.18,3.08
2.4290120601654053,-1.97,-1.54,0.93,2.66
2.5019290447235107,-2.16,-0.59,1.38,2.63
2.5021889209747314,-2.21,0.07,1.46,2.64
2.5024209022521973,-2.03,0.47,1.28,2.44
2.5026509761810303,-1.67,0.75,0.98,2.07
2.5028719902038574,-1.14,0.97,0.69,1.64
2.5030910968780518,-0.59,1.05,0.5,1.3
2.5033140182495117,-0.17,0.89,0.33,0.96
2.508323907852173,0.12,0.51,0.19,0.55
2.518355131149292,0.17,-0.08,0.01,0.18
2.529020071029663,0.14,-0.75,-0.22,0.79
2.602057933807373,0.2,-1.28,-0.38,1.35
2.602307081222534,0.24,-1.63,-0.5,1.72
2.602534055709839,0.23,-1.85,-0.6,1.95
2.6027610301971436,0.18,-1.9,-0.72,2.03
2.60298490524292,0.11,-2.02,-0.71,2.14
2.6032087802886963,0.05,-2.18,-0.55,2.24
2.6034281253814697,-0.01,-2.36,-0.23,2.37
2.6081650257110596,-0.12,-2.47,0.14,2.47
2.618245840072632,-0.21,-2.51,0.53,2.57
2.62890887260437,-0.11,-2.53,0.87,2.67
2.70316481590271,0.08,-2.34,1.12,2.59
2.70340895652771,0.22,-2.03,1.36,2.45
2.7036430835723877,0.1,-1.76,1.65,2.41
2.7038660049438477,-0.16,-1.46,1.97,2.45
2.7040908336639404,-0.45,-1.1,2.25,2.54
2.7043120861053467,-0.68,-0.69,2.31,2.5
2.705014944076538,-0.85,-0.32,2.22,2.39
2.7080490589141846,-0.96,0.07,2.0,2.21
2.718168020248413,-0.88,0.43,1.7,1.96
2.7287418842315674,-0.65,0.67,1.4,1.68
2.803400993347168,-0.37,0.9,1.08,1.45
2.803642988204956,-0.19,0.98,0.76,1.25
2.803874969482422,-0.16,0.94,0.47,1.06
2.804095983505249,-0.34,0.82,0.3,0.93
2.8043200969696045,-0.52,0.73,0.23,0.92
2.8045380115509033,-0.6,0.61,0.3,0.9
2.8052380084991455,-0.59,0.45,0.47,0.87
2.8080060482025146,-0.58,0.56,0.79,1.12
2.8180229663848877,-0.61,0.83,1.31,1.66
2.8285977840423584,-0.64,1.14,1.94,2.33
2.8380279541015625,-0.44,1.67,2.47,3.01
2.902838945388794,-0.07,2.66,2.71,3.79
2.90307879447937,0.1,3.93,2.67,4.75
2.9033079147338867,0.2,5.13,2.52,5.71
2.903536081314087,0.33,6.01,2.24,6.42
2.9037599563598633,0.49,6.38,1.67,6.61
2.9039828777313232,0.64,6.14,0.82,6.22
2.9078099727630615,0.69,5.27,-0.15,5.31
2.917978048324585,0.41,4.0,-1.12,4.17
2.9285199642181396,-0.16,2.51,-2.0,3.21
2.937954902648926,-0.61,0.96,-2.7,2.92
3.0036399364471436,-0.79,-0.5,-3.1,3.23
3.003891944885254,-0.73,-1.71,-3.27,3.76
3.004124879837036,-0.4,-2.74,-3.28,4.29
3.0043509006500244,0.17,-3.52,-3.21,4.76
3.0045759677886963,0.84,-4.06,-3.0,5.11
3.0047969818115234,1.35,-4.37,-2.62,5.27
3.007796049118042,1.69,-4.23,-2.09,5.01
3.0177857875823975,1.87,-3.83,-1.47,4.5
3.0283920764923096,1.92,-3.31,-0.87,3.92
3.037790060043335,1.81,-2.82,-0.41,3.37
3.0999538898468018,1.55,-2.47,0.02,2.91
3.1002018451690674,1.08,-2.16,0.39,2.44
3.100428819656372,0.54,-1.83,0.62,2.0
3.100653886795044,0.15,-1.46,0.78,1.66
3.100877046585083,-0.09,-1.0,0.95,1.38
3.1010990142822266,-0.35,-0.48,1.06,1.21
3.107571840286255,-0.54,0.0,1.1,1.22
3.117762804031372,-0.63,0.35,1.06,1.28
3.128204107284546,-0.63,0.53,0.93,1.24
3.137678861618042,-0.52,0.52,0.7,1.01
3.200347900390625,-0.25,0.38,0.43,0.62
3.2005908489227295,-0.06,0.06,0.12,0.14
3.200824022293091,0.01,-0.26,-0.25,0.36
3.2010490894317627,0.02,-0.51,-0.55,0.75
3.201275110244751,0.17,-0.63,-0.8,1.03
3.20149302482605,0.38,-0.7,-0.9,1.2
3.2074999809265137,0.47,-0.88,-0.8,1.27
3.217646837234497,0.36,-1.11,-0.56,1.29
3.228231906890869,0.22,-1.35,-0.18,1.37
3.237622022628784,0.13,-1.67,0.27,1.69
3.301567792892456,0.14,-1.98,0.75,2.12
3.301813840866089,0.23,-2.13,1.17,2.44
3.3020451068878174,0.18,-2.27,1.41,2.67
3.3022689819335938,0.11,-2.33,1.58,2.81
3.3024938106536865,0.06,-2.27,1.75,2.86
3.3027141094207764,0.09,-2.05,1.84,2.75
3.3073999881744385,0.2,-1.69,1.81,2.48
3.3175039291381836,0.39,-1.36,1.64,2.16
3.3280320167541504,0.62,-0.96,1.43,1.83
3.3375179767608643,0.79,-0.47,1.24,1.54
3.4014530181884766,0.7,-0.06,1.08,1.28
3.4017059803009033,0.33,0.4,0.89,1.03
3.401937961578369,-0.08,0.94,0.67,1.15
3.4021618366241455,-0.25,1.5,0.43,1.58
3.4023900032043457,-0.06,2.06,0.15,2.06
3.4026119709014893,0.35,2.49,-0.06,2.51
3.4073641300201416,0.75,2.69,-0.15,2.79
3.4174067974090576,1.06,2.66,-0.13,2.86
3.42797589302063,1.17,2.36,0.07,2.63
3.437420129776001,0.98,2.36,0.5,2.6
3.5016391277313232,0.5,2.99,1.06,3.21
3.5018861293792725,-0.13,3.9,1.6,4.21
3.5021231174468994,-0.81,4.84,2.17,5.36
3.5023539066314697,-1.22,5.48,2.55,6.16
3.502577066421509,-1.34,5.61,2.53,6.29
3.502795934677124,-1.22,5.26,1.99,5.75
3.507146120071411,-0.87,4.34,1.02,4.54
3.5174038410186768,-0.81,3.38,-0.05,3.47
3.5279200077056885,-0.93,2.05,-1.03,2.47
3.537379026412964,-1.02,0.35,-1.61,1.93
3.601792097091675,-1.13,-1.4,-1.78,2.53
3.6020348072052,-1.25,-3.02,-1.73,3.69
3.6022708415985107,-1.39,-4.16,-1.7,4.7
3.6025009155273438,-1.45,-4.7,-1.89,5.26
3.6027259826660156,-1.55,-4.57,-2.26,5.32
3.602949857711792,-1.69,-3.84,-2.64,4.95
3.6072280406951904,-1.62,-2.86,-2.83,4.33
3.617316961288452,-1.52,-1.9,-2.76,3.67
3.6276679039001465,-1.43,-1.19,-2.48,3.1
3.6371209621429443,-1.14,-0.7,-2.1,2.48
3.7019269466400146,-0.62,-0.45,-1.7,1.86
3.702173948287964,-0.14,-0.4,-1.26,1.32
3.7024009227752686,0.09,-0.43,-0.78,0.89
3.7026309967041016,0.36,-0.42,-0.31,0.63
3.702854871749878,0.72,-0.47,0.1,0.86
3.7030818462371826,0.94,-0.63,0.49,1.23
3.7074499130249023,1.02,-0.88,0.84,1.58
3.7171599864959717,1.03,-1.07,1.02,1.8
3.7275688648223877,0.99,-1.23,1.08,1.91
3.737170934677124,0.92,-1.44,1.07,2.01
3.8019020557403564,0.89,-1.63,1.07,2.14
3.8021528720855713,0.94,-1.75,1.09,2.26
3.802385091781616,1.07,-1.78,1.06,2.33
3.802608013153076,1.04,-1.81,0.97,2.3
3.802825927734375,0.77,-1.99,0.88,2.3
3.8030478954315186,0.49,-2.13,0.77,2.31
3.8069698810577393,0.35,-2.22,0.64,2.33
3.817054033279419,0.27,-2.35,0.58,2.43
3.827500104904175,0.18,-2.34,0.51,2.4
3.837001085281372,0.06,-2.15,0.47,2.2
3.902323007583618,0.09,-1.9,0.45,1.95
3.9025728702545166,0.06,-1.59,0.44,1.65
3.902785062789917,-0.21,-1.21,0.44,1.3
3.903010129928589,-0.48,-0.88,0.56,1.14
3.9032371044158936,-0.56,-0.58,0.68,1.05
3.9034578800201416,-0.51,-0.27,0.69,0.89
3.906796932220459,-0.39,0.12,0.67,0.78
3.9170010089874268,-0.42,0.53,0.63,0.92
3.927400827407837,-0.54,0.95,0.65,1.27
3.9369118213653564,-0.7,1.39,0.77,1.73
4.0025718212127686,-1.01,1.9,1.04,2.38
4.002820014953613,-1.5,2.47,1.4,3.21
4.003051042556763,-1.84,3.14,1.78,4.05
4.003273963928223,-1.74,3.8,2.16,4.7
4.003498792648315,-1.14,4.3,2.37,5.04
4.003720045089722,-0.13,4.66,2.26,5.18
4.006725072860718,0.82,5.04,1.88,5.44
4.016829013824463,1.14,5.38,1.48,5.69
4.027281045913696,0.82,5.68,1.13,5.84
4.036813974380493,0.21,5.99,0.75,6.04
4.100637912750244,-0.05,6.24,0.31,6.24
4.100886106491089,0.59,6.13,-0.35,6.16
4.101117849349976,1.63,5.37,-1.15,5.72
4.101343870162964,2.18,4.03,-2.0,4.99
4.1015729904174805,1.52,2.23,-2.64,3.77
4.101794958114624,-0.1,0.0,-2.8,2.8
4.106600046157837,-1.28,-2.3,-2.68,3.75
4.116708040237427,-1.56,-3.98,-2.55,4.97
4.127152919769287,-1.0,-5.24,-2.43,5.86
4.136652946472168,-0.12,-5.88,-2.31,6.31
4.2013280391693115,0.61,-5.89,-2.34,6.36
4.2015769481658936,0.86,-5.47,-2.49,6.07
4.201810121536255,0.58,-4.64,-2.72,5.4
4.202034950256348,0.0,-3.58,-2.86,4.58
4.202260971069336,-0.55,-2.58,-2.83,3.86
4.202481031417847,-0.83,-1.76,-2.53,3.19
4.206527948379517,-0.88,-1.14,-2.04,2.49
4.216681003570557,-0.81,-0.62,-1.43,1.75
4.227078914642334,-0.76,-0.14,-0.75,1.07
4.236617803573608,-0.65,0.19,-0.06,0.67
4.30103611946106,-0.43,0.29,0.6,0.79
4.3012919425964355,-0.23,0.18,1.13,1.16
4.3015289306640625,-0.14,-0.05,1.53,1.53
4.301753997802734,-0.15,-0.41,1.79,1.84
4.301975965499878,-0.3,-0.84,1.86,2.06
4.302194833755493,-0.44,-1.17,1.74,2.14
4.3064258098602295,-0.47,-1.42,1.55,2.15
4.316532850265503,-0.49,-1.7,1.39,2.24
4.326924085617065,-0.41,-1.84,1.3,2.28
4.336452007293701,-0.26,-1.85,1.3,2.27
4.40137791633606,-0.08,-1.76,1.37,2.23
4.401621103286743,0.11,-1.6,1.41,2.13
4.40185284614563,0.33,-1.41,1.36,1.98
4.402076005935669,0.67,-1.26,1.29,1.92
4.402301073074341,0.9,-1.22,1.17,1.91
4.402519941329956,0.92,-1.12,0.93,1.72
4.406353950500488,0.9,-0.99,0.7,1.51
4.416455984115601,0.86,-0.89,0.42,1.3
4.426888942718506,0.8,-0.74,0.09,1.09
4.436489820480347,0.73,-0.69,-0.21,1.02
4.501497983932495,0.65,-0.64,-0.35,0.97
4.501738786697388,0.54,-0.53,-0.26,0.8
4.50197696685791,0.45,-0.46,0.07,0.64
4.50220513343811,0.31,-0.36,0.58,0.74
4.502426862716675,0.11,-0.03,1.1,1.1
4.502645015716553,0.07,0.51,1.49,1.57
4.506220102310181,0.33,1.01,1.77,2.06
4.516352891921997,0.79,1.56,1.87,2.56
4.52669882774353,1.05,1.97,1.77,2.84
4.536307096481323,1.05,2.17,1.59,2.88
4.601567983627319,1.19,2.17,1.36,2.82
4.601831912994385,1.35,2.01,1.19,2.69
4.602061986923218,1.18,1.93,1.03,2.48
4.602286100387573,0.75,2.16,0.87,2.44
4.602510929107666,-0.06,3.05,0.91,3.18
4.602730989456177,-0.95,3.89,1.06,4.14
4.606143951416016,-1.79,4.64,1.21,5.11
4.616219997406006,-2.52,4.99,1.27,5.73
4.626704931259155,-2.58,4.66,1.13,5.44
4.6362268924713135,-1.46,3.84,0.77,4.17
4.702222108840942,-0.02,2.82,0.2,2.82
4.702471971511841,0.26,1.88,-0.39,1.93
4.70270299911499,-0.7,0.57,-0.92,1.28
4.702929973602295,-1.5,-0.98,-1.38,2.26
4.703152894973755,-1.76,-2.17,-1.62,3.22
4.703376054763794,-1.66,-2.95,-1.84,3.85
4.7060229778289795,-1.4,-3.37,-2.1,4.21
4.716195821762085,-1.14,-3.49,-2.44,4.4
4.7268760204315186,-1.06,-3.19,-2.88,4.42
4.73621678352356,-1.2,-2.54,-3.25,4.29
4.801939010620117,-1.28,-1.82,-3.41,4.07
4.802189111709595,-1.0,-1.28,-3.39,3.75
4.80242395401001,-0.29,-1.0,-3.13,3.29
4.802647829055786,0.4,-0.85,-2.73,2.88
4.802872896194458,0.74,-0.8,-2.15,2.41
4.803093910217285,0.62,-0.84,-1.44,1.77
4.805854082107544,0.36,-0.8,-0.67,1.1
4.8159778118133545,0.22,-0.68,0.16,0.73
4.827127933502197,0.3,-0.57,1.05,1.23
4.836008787155151,0.5,-0.53,1.98,2.1
4.902540922164917,0.75,-0.68,2.81,2.98
4.902784109115601,0.87,-0.91,3.45,3.67
4.903016805648804,0.79,-1.22,3.77,4.04
4.903243780136108,0.6,-1.57,3.72,4.08
4.903467893600464,0.51,-1.81,3.39,3.87
4.903692960739136,0.71,-2.01,2.79,3.51
4.905789136886597,0.99,-2.18,2.06,3.15
4.9158971309661865,1.01,-2.36,1.38,2.91
4.985607862472534,0.81,-2.59,0.75,2.81
4.985858917236328,0.5,-2.81,0.18,2.85
4.986092805862427,0.23,-2.87,-0.35,2.9
4.986315965652466,0.09,-2.79,-0.75,2.89
4.986537933349609,0.02,-2.59,-0.98,2.76
4.986761808395386,-0.05,-2.3,-1.08,2.54
4.986983060836792,-0.07,-1.91,-1.0,2.15
4.995639085769653,-0.08,-1.37,-0.81,1.59
5.005759000778198,-0.24,-0.76,-0.52,0.95
5.015710115432739,-0.48,-0.08,-0.23,0.53
5.086665868759155,-0.63,0.59,0.05,0.86
5.0869128704071045,-0.59,1.26,0.35,1.43
5.087146997451782,-0.51,2.02,0.64,2.17
5.087373971939087,-0.6,2.74,0.98,2.97
5.0875959396362305,-1.05,3.36,1.39,3.78
5.087817907333374,-1.52,4.0,1.88,4.67
5.088037967681885,-1.59,4.59,2.48,5.45
5.095602989196777,-1.08,5.09,2.88,5.94
5.105731964111328,-0.21,5.52,2.84,6.21
5.115701913833618,0.48,5.9,2.37,6.37
5.126392126083374,0.61,6.19,1.65,6.43
5.1856300830841064,0.5,6.19,0.69,6.24
5.185869932174683,0.63,5.86,-0.45,5.91
5.186093091964722,1.3,5.18,-1.57,5.56
5.186316013336182,2.44,3.91,-2.42,5.2
5.186536073684692,2.48,2.34,-2.97,4.52
5.186757802963257,1.45,0.36,-3.25,3.57
5.195451021194458,0.47,-1.76,-3.23,3.7
5.205662965774536,0.11,-3.62,-2.91,4.64
5.215620994567871,0.49,-4.9,-2.48,5.51
5.2263429164886475,1.17,-5.41,-2.14,5.93
5.284938097000122,1.7,-5.29,-2.09,5.93
5.285218000411987,1.66,-4.76,-2.27,5.52
5.285506963729858,0.9,-3.8,-2.54,4.65
5.285735845565796,-0.1,-2.62,-2.74,3.79
5.2859580516815186,-0.82,-1.54,-2.86,3.35
5.286181926727295,-1.26,-0.65,-2.89,3.21
5.2953879833221436,-1.33,0.0,-2.76,3.06
5.305485010147095,-1.16,0.15,-2.33,2.6
5.315496921539307,-0.97,-0.07,-1.66,1.92
5.326186895370483,-0.83,-0.42,-0.91,1.3
5.38536810874939,-0.76,-0.73,-0.24,1.08
5.385617971420288,-0.71,-0.91,0.27,1.18
5.385853052139282,-0.67,-1.01,0.63,1.36
5.386076927185059,-0.48,-1.19,0.86,1.54
5.386296987533569,-0.37,-1.26,1.03,1.66
5.386523008346558,-0.47,-1.18,1.11,1.68
5.395349979400635,-0.67,-1.18,1.18,1.79
5.405362844467163,-0.79,-1.17,1.28,1.9
5.415349006652832,-0.77,-1.15,1.4,1.96
5.426145792007446,-0.7,-1.18,1.55,2.07
5.485317945480347,-0.6,-1.22,1.73,2.2
5.485567808151245,-0.43,-1.28,1.84,2.28
5.485811948776245,-0.25,-1.37,1.93,2.37
5.486035108566284,-0.07,-1.44,1.97,2.44
5.486259937286377,0.19,-1.6,1.95,2.52
5.486479997634888,0.35,-1.83,1.83,2.61
5.495204925537109,0.49,-1.96,1.63,2.59
5.50525689125061,0.62,-1.93,1.38,2.45
5.5153069496154785,0.57,-1.76,1.02,2.11
5.525914907455444,0.45,-1.53,0.69,1.73
5.585536003112793,0.47,-1.25,0.38,1.38
5.585787057876587,0.63,-0.82,0.09,1.03
5.5860209465026855,0.9,-0.24,-0.15,0.94
5.586250066757202,1.01,0.26,-0.16,1.05
5.586468935012817,0.84,0.76,0.05,1.13
5.586688995361328,0.57,1.17,0.35,1.34
5.595160007476807,0.46,1.49,0.63,1.68
5.605241060256958,0.54,1.79,0.81,2.03
5.615010976791382,0.96,2.1,0.93,2.48
5.625909090042114,1.44,2.19,1.1,2.84
5.686550855636597,1.56,2.24,1.24,2.99
5.686794996261597,1.15,2.42,1.29,2.97
5.687024831771851,0.57,2.87,1.22,3.17
5.687254905700684,0.0,3.69,1.07,3.84
5.6874799728393555,-0.65,4.6,0.88,4.72
5.687705993652344,-1.19,5.09,0.67,5.27
5.695142030715942,-1.2,4.99,0.44,5.15
5.705193996429443,-0.82,4.2,0.15,4.28
5.714883089065552,-0.51,2.94,-0.08,2.98
5.725744009017944,-0.89,1.66,-0.3,1.9
5.786702871322632,-1.45,0.23,-0.49,1.54
5.786948919296265,-1.91,-1.07,-0.59,2.26
5.787182092666626,-2.09,-1.78,-0.85,2.87
5.787409067153931,-1.94,-2.0,-1.29,3.07
5.787635087966919,-1.88,-2.1,-1.84,3.36
5.787856817245483,-2.05,-2.03,-2.49,3.81
5.794893980026245,-2.29,-1.74,-3.16,4.27
5.805085897445679,-2.24,-1.32,-3.71,4.53
5.814873933792114,-1.8,-0.87,-4.04,4.5
5.825556039810181,-1.21,-0.5,-4.18,4.38
5.887718915939331,-0.7,-0.23,-4.09,4.15
5.8879640102386475,-0.22,-0.11,-3.77,3.77
5.888195991516113,0.37,-0.05,-3.3,3.32
5.888420820236206,0.95,-0.11,-2.62,2.78
5.888645887374878,1.24,-0.25,-1.76,2.16
5.888866901397705,1.33,-0.48,-0.79,1.61
5.8948609828948975,1.27,-0.75,0.17,1.48
5.90490198135376,1.13,-1.0,1.07,1.84
5.914685010910034,0.95,-1.19,1.84,2.38
5.925509929656982,0.77,-1.34,2.5,2.93
5.988171815872192,0.66,-1.5,3.0,3.41
5.9884209632873535,0.51,-1.55,3.31,3.69
5.988654851913452,0.35,-1.52,3.55,3.87
5.988882780075073,0.27,-1.57,3.68,4.01
5.989106893539429,0.31,-1.78,3.6,4.02
5.989377975463867,0.53,-2.01,3.23,3.84
5.994740009307861,0.71,-2.21,2.69,3.55
6.0047829151153564,0.44,-2.41,1.93,3.11
6.014580011367798,0.01,-2.66,1.09,2.87
6.0254199504852295,-0.37,-2.89,0.29,2.92
6.088818788528442,-0.48,-2.95,-0.43,3.01
6.089065790176392,-0.39,-2.75,-1.06,2.97
6.0892980098724365,-0.27,-2.44,-1.58,2.91
6.089553117752075,-0.29,-2.14,-1.9,2.87
6.089802980422974,-0.33,-1.84,-1.96,2.7
6.0900280475616455,-0.11,-1.4,-1.77,2.25
6.094644784927368,0.07,-0.92,-1.33,1.61
6.104737997055054,-0.05,-0.31,-0.82,0.87
6.114511966705322,-0.17,0.5,-0.34,0.62
6.1253578662872314,-0.09,1.32,0.1,1.32
6.189342975616455,-0.04,2.04,0.52,2.1
6.189590930938721,-0.22,2.71,0.94,2.87
6.189860105514526,-0.54,3.22,1.45,3.57
6.190094947814941,-0.67,3.75,1.98,4.29
6.190316915512085,-0.36,4.37,2.38,4.98
6.19054102897644,0.48,5.02,2.49,5.62
6.194516897201538,1.41,5.64,2.27,6.24
6.204594850540161,1.79,6.4,1.86,6.9
6.214462995529175,1.83,7.13,1.19,7.45
6.22520899772644,2.27,7.44,0.18,7.78
6.2884438037872314,3.45,6.79,-0.99,7.68
6.288691997528076,3.89,5.5,-2.27,7.1
6.288925886154175,2.97,3.57,-3.43,5.77
6.289149045944214,1.66,1.23,-4.21,4.68
6.289371013641357,0.82,-1.08,-4.54,4.73
6.289602041244507,0.76,-2.99,-4.51,5.46
6.294448137283325,1.31,-4.35,-4.17,6.16
6.304508924484253,2.02,-5.04,-3.63,6.53
6.31430983543396,2.5,-4.95,-3.17,6.38
6.325153112411499,2.47,-4.3,-2.88,5.73
6.388766050338745,1.86,-3.31,-2.83,4.73
6.389013051986694,0.97,-2.14,-2.88,3.71
6.389249086380005,0.19,-1.04,-3.02,3.19
6.389481782913208,-0.31,-0.14,-3.2,3.21
6.389708995819092,-0.64,0.53,-3.35,3.45
6.389932870864868,-0.91,0.89,-3.3,3.53
6.394277811050415,-0.91,0.88,-2.94,3.2
6.4044349193573,-0.72,0.46,-2.27,2.42
6.414232015609741,-0.45,-0.1,-1.56,1.62
6.425122976303101,-0.25,-0.65,-0.96,1.18
6.489309072494507,-0.13,-1.09,-0.52,1.21
6.489567041397095,0.01,-1.36,-0.27,1.38
6.489804029464722,0.12,-1.49,-0.15,1.5
6.490033864974976,0.08,-1.62,-0.11,1.62
6.490234136581421,0.03,-1.62,-0.18,1.63
6.490458965301514,0.03,-1.42,-0.32,1.45
6.494220018386841,0.0,-1.15,-0.39,1.21
6.5043699741363525,-0.07,-0.91,-0.29,0.95
6.514047861099243,-0.19,-0.79,-0.05,0.81
6.525032997131348,-0.24,-0.72,0.25,0.79
6.589900970458984,-0.2,-0.72,0.51,0.9
6.590157985687256,-0.08,-0.71,0.73,1.02
6.590395927429199,0.29,-0.63,0.89,1.12
6.590622901916504,0.83,-0.54,0.98,1.39
6.59089207649231,1.35,-0.39,0.89,1.66
6.5911149978637695,1.52,-0.14,0.62,1.64
6.594127893447876,1.49,0.08,0.24,1.51
6.604175806045532,1.37,0.13,-0.19,1.38
6.614148855209351,1.26,0.05,-0.64,1.41
6.624943971633911,1.31,0.05,-0.97,1.63
6.690408945083618,1.31,0.18,-1.26,1.82
6.690654039382935,1.25,0.35,-1.49,1.97
6.69091796875,1.22,0.53,-1.54,2.03
6.691171884536743,1.24,0.79,-1.42,2.04
6.6913979053497314,1.42,1.1,-1.23,2.17
6.691617965698242,1.76,1.38,-1.09,2.48
6.693947076797485,2.03,1.64,-1.18,2.86
6.704093933105469,2.14,1.86,-1.57,3.24
6.714400053024292,2.16,2.0,-2.24,3.69
6.7247819900512695,1.77,2.07,-3.01,4.05
6.791334867477417,1.08,1.81,-3.62,4.18
6.79158091545105,0.38,1.11,-3.95,4.12
6.791813135147095,-0.33,0.13,-3.9,3.91
6.792038917541504,-1.11,-0.8,-3.52,3.77
6.792287111282349,-1.6,-1.36,-2.84,3.53
6.7925097942352295,-1.63,-1.67,-1.93,3.02
6.7938830852508545,-1.45,-1.75,-1.07,2.51
6.803916931152344,-1.29,-1.59,-0.58,2.12
6.8139917850494385,-1.09,-1.24,-0.45,1.71
6.824737787246704,-0.43,-0.58,-0.56,0.91
6.892445802688599,0.54,0.3,-0.78,0.99
6.892713785171509,1.28,1.11,-1.14,2.04
6.892945051193237,1.52,1.82,-1.64,2.88
6.893170118331909,1.51,2.24,-2.2,3.48
6.893418073654175,1.7,2.21,-2.59,3.8
6.893642902374268,2.19,1.91,-2.72,3.98
6.893855810165405,2.55,1.51,-2.67,3.98
6.903939962387085,2.54,1.09,-2.51,3.73
6.9138758182525635,2.13,0.74,-2.27,3.19
6.924651861190796,1.55,0.46,-2.01,2.57
6.993266820907593,1.07,0.03,-1.78,2.07
6.993491888046265,0.78,-0.37,-1.78,1.97
6.993725061416626,0.64,-0.54,-2.04,2.2
6.993958950042725,0.65,-0.71,-2.4,2.58
6.994180917739868,0.85,-0.91,-2.79,3.05
6.9944069385528564,1.17,-1.03,-3.15,3.51
6.994625806808472,1.58,-1.12,-3.4,3.91
7.003720998764038,1.91,-1.1,-3.48,4.11
7.013788938522339,1.82,-1.01,-3.28,3.88
7.024422883987427,1.43,-0.95,-2.91,3.37
7.093407869338989,1.04,-0.89,-2.48,2.83
7.09365701675415,0.74,-0.61,-2.06,2.27
7.093891859054565,0.61,-0.09,-1.71,1.81
7.094120979309082,0.66,0.41,-1.39,1.59
7.09434700012207,0.77,0.86,-1.11,1.6
7.094566106796265,0.78,1.25,-0.99,1.77
7.094786882400513,0.74,1.63,-1.14,2.12
7.103681802749634,0.85,1.92,-1.5,2.58
7.1136438846588135,1.14,2.04,-1.95,3.04
7.124297857284546,1.58,2.06,-2.45,3.56
7.19401478767395,2.02,2.06,-2.88,4.07
7.194259881973267,2.42,1.88,-3.15,4.39
7.194494009017944,2.77,1.51,-3.2,4.49
7.194715976715088,2.93,1.02,-3.13,4.4
7.194935083389282,2.7,0.5,-2.97,4.04
7.195162057876587,2.24,-0.05,-2.74,3.53
7.195384979248047,1.8,-0.44,-2.47,3.08
7.203654050827026,1.42,-0.6,-2.23,2.71
7.21356987953186,1.1,-0.57,-1.98,2.33
7.224277973175049,0.83,-0.4,-1.66,1.89
7.294588804244995,0.71,-0.08,-1.35,1.52
7.294838905334473,0.64,0.2,-1.07,1.26
7.295071840286255,0.47,0.32,-0.81,0.98
7.295293092727661,0.34,0.42,-0.65,0.84
7.295516014099121,0.41,0.48,-0.57,0.85
7.295715093612671,0.66,0.48,-0.56,0.98
7.295938968658447,1.08,0.4,-0.66,1.32
7.303418874740601,1.44,0.25,-0.86,1.69
7.313466787338257,1.6,0.14,-1.09,1.94
7.324105978012085,1.58,0.08,-1.31,2.05
7.394871950149536,1.61,0.02,-1.51,2.2
7.395112991333008,1.74,-0.07,-1.57,2.34
7.3953468799591064,1.9,-0.1,-1.55,2.45
7.395531892776489,1.9,-0.1,-1.39,2.35
7.395756006240845,1.75,-0.09,-1.17,2.1
7.395976781845093,1.55,-0.15,-0.78,1.74
7.396198034286499,1.36,-0.29,-0.32,1.42
7.40333104133606,1.12,-0.4,0.12,1.19
7.413326025009155,0.93,-0.42,0.47,1.12
7.423865079879761,0.84,-0.38,0.64,1.12
7.495599985122681,0.83,-0.26,0.66,1.09
7.4958508014678955,0.74,-0.12,0.56,0.93
7.496081113815308,0.69,0.01,0.38,0.78
7.496304988861084,0.87,0.24,0.09,0.9
7.4965269565582275,1.05,0.36,-0.23,1.13
7.49672794342041,1.01,0.36,-0.67,1.26
7.4969470500946045,0.89,0.44,-1.12,1.49
7.503150939941406,0.82,0.49,-1.47,1.75
7.513247013092041,0.74,0.4,-1.64,1.84
7.523877859115601,0.6,0.18,-1.61,1.72
7.596616983413696,0.47,-0.13,-1.45,1.52
7.596861124038696,0.35,-0.49,-1.25,1.38
7.597095012664795,0.29,-0.8,-0.97,1.29
7.597319841384888,0.22,-1.02,-0.53,1.17
7.597545862197876,0.21,-1.07,0.04,1.09
7.59776496887207,0.14,-0.99,0.7,1.22
7.59798789024353,-0.1,-0.82,1.42,1.64
7.6030049324035645,-0.34,-0.42,2.1,2.16
7.613152980804443,-0.51,0.13,2.62,2.67
7.62375807762146,-0.54,0.69,2.79,2.92
7.697544813156128,-0.51,1.13,2.58,2.86
7.697790861129761,-0.53,1.35,1.94,2.42
7.698022127151489,-0.76,1.25,0.99,1.76
7.698249101638794,-0.99,0.81,-0.04,1.27
7.698470830917358,-1.13,0.11,-1.05,1.54
7.69869589805603,-1.08,-0.65,-1.89,2.27
7.698919057846069,-0.79,-1.2,-2.49,2.87
7.703033924102783,-0.43,-1.48,-2.76,3.16
7.713044881820679,-0.31,-1.59,-2.54,3.01
7.723642110824585,-0.55,-1.54,-1.85,2.46
7.797429800033569,-0.94,-1.24,-0.91,1.8
7.797713041305542,-1.3,-0.81,0.08,1.53
7.7979419231414795,-1.54,-0.41,0.97,1.86
7.798172950744629,-1.67,-0.01,1.68,2.36
7.798395872116089,-1.64,0.4,2.1,2.69
7.798620939254761,-1.53,0.77,2.18,2.77
7.79883885383606,-1.5,1.03,1.99,2.69
7.802941083908081,-1.72,1.11,1.67,2.64
7.812904119491577,-2.14,0.95,1.31,2.68
7.823609113693237,-2.47,0.74,0.95,2.74
7.832949876785278,-2.66,0.59,0.62,2.79
7.898108005523682,-2.69,0.52,0.29,2.75
7.898359060287476,-2.55,0.54,-0.02,2.6
7.898591995239258,-2.27,0.53,-0.3,2.35
7.8988189697265625,-1.93,0.35,-0.46,2.01
7.8990490436553955,-1.65,0.07,-0.45,1.71
7.899268865585327,-1.41,-0.29,-0.26,1.46
7.902799844741821,-1.32,-0.71,0.06,1.5
7.91286301612854,-1.28,-1.12,0.47,1.76
7.9234631061553955,-1.09,-1.41,0.96,2.02
7.932855844497681,-0.9,-1.44,1.41,2.2
7.998300790786743,-0.85,-1.41,1.75,2.4
7.998549938201904,-0.96,-1.33,1.96,2.55
7.998779058456421,-1.02,-1.24,2.13,2.66
7.999006032943726,-0.99,-1.3,2.26,2.78
7.9992289543151855,-0.85,-1.43,2.41,2.92
7.999452829360962,-0.77,-1.65,2.51,3.1
8.002594947814941,-0.74,-1.88,2.43,3.16
8.012771844863892,-0.67,-2.06,2.19,3.08
8.023300886154175,-0.44,-2.19,1.9,2.93
8.032747983932495,-0.29,-2.18,1.57,2.7
8.098338842391968,-0.26,-2.06,1.25,2.42
8.098581075668335,-0.21,-1.97,1.05,2.24
8.098814010620117,-0.13,-1.89,1.02,2.15
8.099037885665894,-0.14,-1.64,1.1,1.97
8.099263906478882,-0.25,-1.24,1.24,1.77
8.099484920501709,-0.37,-0.84,1.44,1.7
8.102566957473755,-0.43,-0.43,1.66,1.76
8.112576961517334,-0.4,0.1,1.87,1.91
8.123260974884033,-0.24,0.68,1.96,2.08
8.132688999176025,-0.17,1.24,1.89,2.26
8.19852900505066,-0.38,1.64,1.65,2.35
8.198778867721558,-0.72,1.99,1.33,2.49
8.199012041091919,-1.11,2.16,1.09,2.66
8.199235916137695,-1.45,2.21,0.96,2.81
8.19945502281189,-1.61,2.19,0.93,2.87
8.199673891067505,-1.57,2.27,1.03,2.94
8.20257306098938,-1.47,2.54,1.32,3.21
8.212581872940063,-1.38,2.79,1.73,3.56
8.223315000534058,-1.05,3.16,2.04,3.9
8.232500791549683,-0.46,3.75,2.15,4.34
8.299093008041382,0.24,4.46,2.12,4.94
8.29933500289917,0.8,4.93,2.01,5.38
8.299564123153687,0.85,5.0,1.75,5.36
8.299786806106567,0.55,4.63,1.36,4.85
8.30001187324524,0.22,3.95,0.71,4.01
8.300237894058228,-0.1,3.15,-0.22,3.15
8.302255868911743,-0.41,2.18,-1.23,2.53
8.312417984008789,-0.56,1.21,-2.23,2.59
8.323003053665161,-0.68,0.22,-3.01,3.09
8.332437992095947,-0.71,-0.79,-3.51,3.66
8.399356126785278,-0.49,-1.78,-3.74,4.17
8.399601936340332,-0.02,-2.73,-3.61,4.52
8.399832010269165,0.48,-3.63,-3.07,4.77
8.400071859359741,0.87,-4.32,-2.24,4.94
8.40029501914978,1.29,-4.51,-1.35,4.88
8.400516986846924,1.79,-4.35,-0.45,4.72
8.40212607383728,2.16,-4.06,0.44,4.61
8.412343978881836,2.37,-3.52,1.15,4.39
8.422914981842041,2.55,-2.77,1.62,4.09
8.432328939437866,2.55,-2.03,1.85,3.74
8.49985384941101,2.37,-1.33,1.84,3.28
8.500101804733276,2.16,-0.67,1.58,2.75
8.50033688545227,1.93,-0.11,1.05,2.19
8.500562906265259,1.49,0.46,0.42,1.61
8.50078797340393,0.79,0.86,-0.21,1.18
8.501008987426758,-0.09,0.99,-0.73,1.23
8.50229287147522,-0.99,0.94,-1.09,1.74
8.512295007705688,-1.55,0.61,-1.28,2.1
8.522809982299805,-1.66,0.03,-1.34,2.13
8.532256841659546,-1.52,-0.59,-1.34,2.11
8.600661039352417,-1.39,-1.15,-1.24,2.18
8.600903987884521,-1.24,-1.61,-1.06,2.29
8.601144075393677,-0.9,-1.8,-0.84,2.18
8.601372003555298,-0.56,-1.76,-0.52,1.91
8.601598024368286,-0.35,-1.63,-0.08,1.66
8.601826906204224,-0.23,-1.47,0.52,1.57
8.602533102035522,-0.09,-1.31,1.23,1.79
8.612243890762329,0.1,-1.23,1.88,2.24
8.622666120529175,0.39,-1.25,2.45,2.77
8.63219690322876,0.72,-1.29,2.91,3.26
8.701530933380127,0.91,-1.37,3.24,3.63
8.701779127120972,1.02,-1.45,3.36,3.79
8.70201301574707,0.82,-1.32,3.06,3.43
8.702698945999146,0.52,-1.02,2.46,2.71
8.702937841415405,0.54,-0.65,1.77,1.96
8.703175783157349,0.91,-0.31,1.15,1.49
8.703397035598755,1.22,-0.03,0.69,1.4
8.712126970291138,1.28,0.18,0.36,1.34
8.722543001174927,1.03,0.35,0.2,1.1
8.732023000717163,0.63,0.46,0.24,0.81
8.801760911941528,0.17,0.64,0.44,0.79
8.802006006240845,-0.12,0.74,0.67,1.0
8.802249908447266,-0.03,0.9,0.81,1.21
8.802951097488403,0.29,1.07,0.86,1.4
8.803184986114502,0.61,1.22,0.95,1.66
8.803426027297974,0.73,1.41,1.0,1.87
8.803644895553589,0.57,1.55,1.03,1.94
8.812066793441772,0.28,1.74,1.06,2.05
8.822456121444702,0.04,2.22,1.17,2.5
8.831907987594604,-0.18,2.99,1.38,3.29
8.902076959609985,-0.51,3.88,1.49,4.18
8.902322053909302,-0.99,4.7,1.37,4.99
8.903068780899048,-1.49,5.23,0.89,5.51
8.903307914733887,-1.69,5.21,0.18,5.48
8.903551816940308,-1.21,4.52,-0.66,4.72
8.90377402305603,-0.84,3.47,-1.44,3.84
8.90399694442749,-0.97,2.0,-2.09,3.05
8.911935091018677,-1.01,0.35,-2.54,2.75
8.922312021255493,-0.84,-1.28,-2.68,3.08
8.931814908981323,-0.82,-2.67,-2.64,3.84
9.002218008041382,-0.96,-3.64,-2.55,4.54
9.002460956573486,-1.09,-4.07,-2.44,4.86
9.002693891525269,-1.25,-3.86,-2.17,4.6
9.00332498550415,-1.32,-3.13,-1.63,3.76
9.003558874130249,-1.29,-2.25,-0.91,2.74
9.003806829452515,-1.28,-1.4,-0.2,1.9
9.004031896591187,-1.09,-0.65,0.33,1.31
9.011775016784668,-0.65,-0.08,0.63,0.9
9.02211594581604,-0.2,0.25,0.76,0.82
9.031768083572388,0.19,0.37,0.76,0.86
9.102883100509644,0.39,0.11,0.66,0.77
9.103562116622925,0.46,-0.34,0.44,0.72
9.103803873062134,0.53,-0.88,0.18,1.04
9.104030847549438,0.57,-1.43,-0.07,1.54
9.104274034500122,0.65,-1.85,-0.23,1.97
9.104496002197266,0.77,-2.13,-0.25,2.27
9.104719877243042,0.83,-2.1,-0.18,2.26
9.111663103103638,0.73,-2.0,0.04,2.12
9.123292922973633,0.54,-1.96,0.39,2.07
9.131609916687012,0.35,-1.92,0.84,2.12
9.203561067581177,0.26,-1.89,1.27,2.29
9.203804969787598,0.29,-1.9,1.7,2.56
9.20403790473938,0.35,-1.87,2.06,2.8
9.204265832901001,0.37,-1.79,2.21,2.86
9.20448613166809,0.34,-1.7,2.16,2.76
9.204710006713867,0.28,-1.65,1.88,2.51
9.204933881759644,0.05,-1.63,1.35,2.11
9.211479902267456,-0.3,-1.62,0.75,1.81
9.222052812576294,-0.56,-1.66,0.21,1.76
9.231547117233276,-0.63,-1.61,-0.3,1.75
9.303761005401611,-0.4,-1.43,-0.6,1.6
9.304008960723877,-0.1,-1.24,-0.61,1.38
9.304240942001343,0.05,-0.97,-0.34,1.02
9.304464101791382,0.03,-0.6,0.16,0.62
9.30469012260437,-0.03,0.02,0.86,0.86
9.304909944534302,-0.06,0.75,1.51,1.68
9.30510687828064,-0.06,1.33,1.99,2.39
9.311432123184204,-0.29,1.83,2.26,2.92
9.321847915649414,-0.82,2.2,2.3,3.28
9.331434965133667,-1.25,2.65,2.23,3.68
9.403618097305298,-1.4,3.06,2.23,4.03
9.403868913650513,-1.51,3.48,2.28,4.42
9.404102087020874,-1.68,4.01,2.26,4.9
9.404325008392334,-1.53,4.77,2.12,5.43
9.404545068740845,-0.94,5.62,1.91,6.0
9.404762983322144,-0.28,6.33,1.53,6.51
9.40498399734497,0.28,6.85,0.96,6.92
9.411290884017944,0.86,7.02,0.18,7.07
9.421701908111572,1.5,6.65,-0.84,6.86
9.431374788284302,1.58,5.64,-2.04,6.2
9.504615068435669,0.63,3.96,-3.09,5.06
9.504865884780884,-0.44,1.7,-3.76,4.14
9.505096912384033,-0.89,-0.63,-4.12,4.26
9.505319833755493,-0.75,-2.61,-4.19,4.99
9.5055410861969,-0.11,-4.11,-4.08,5.79
9.50576901435852,0.71,-4.81,-3.81,6.17
9.50598692893982,1.27,-4.9,-3.34,6.06
9.511196851730347,1.54,-4.51,-2.93,5.59
9.521817922592163,1.52,-3.88,-2.49,4.85
9.531333923339844,1.17,-3.18,-1.98,3.92
9.604772806167603,0.55,-2.48,-1.45,2.92
9.60503101348877,-0.09,-1.81,-0.96,2.05
9.605262041091919,-0.49,-1.14,-0.61,1.38
9.60548710823059,-0.64,-0.48,-0.33,0.86
9.605714082717896,-0.67,-0.03,0.06,0.67
9.60593581199646,-0.58,0.07,0.45,0.73
9.606154918670654,-0.5,-0.02,0.7,0.86
9.611110925674438,-0.54,-0.27,0.84,1.03
9.621998071670532,-0.51,-0.67,0.92,1.24
9.631205797195435,-0.36,-1.02,0.91,1.41
9.705633878707886,-0.13,-1.34,0.85,1.59
9.70588994026184,-0.01,-1.64,0.81,1.82
9.706120014190674,-0.05,-1.93,0.9,2.13
9.706346988677979,-0.15,-2.2,1.13,2.47
9.706577062606812,-0.21,-2.27,1.33,2.63
9.706795930862427,-0.07,-2.1,1.46,2.55
9.707016944885254,0.16,-1.9,1.62,2.5
9.710922956466675,0.32,-1.87,1.85,2.64
9.722140073776245,0.53,-2.09,2.07,2.98
9.731064081192017,0.7,-2.32,2.14,3.23
9.806098937988281,0.3,-2.41,1.87,3.06
9.80634093284607,-0.26,-2.46,1.37,2.82
9.806566953659058,-0.69,-2.29,0.83,2.53
9.80679202079773,-0.79,-2.07,0.3,2.23
9.807012796401978,-0.63,-1.82,-0.27,1.94
9.807231903076172,-0.35,-1.48,-0.82,1.72
9.807452917098999,-0.21,-1.17,-1.21,1.69
9.810872793197632,-0.02,-0.86,-1.36,1.6
9.889522790908813,0.31,-0.46,-1.12,1.24
9.889775037765503,0.48,-0.09,-0.51,0.7
9.890008926391602,0.47,0.27,0.3,0.61
9.890235900878906,0.28,0.71,1.09,1.33
9.890475988388062,0.25,1.33,1.66,2.14
9.890704870223999,0.57,2.11,1.95,2.92
9.890921831130981,1.02,2.87,2.1,3.69
9.891137838363647,1.44,3.32,2.21,4.24
9.900831937789917,1.81,3.43,2.29,4.5
9.91086196899414,1.85,3.4,2.2,4.45
9.990103006362915,1.33,3.47,1.9,4.17
9.990360021591187,0.52,3.71,1.65,4.09
9.990617036819458,-0.52,4.11,1.57,4.43
9.990844964981079,-1.59,4.53,1.51,5.03
9.991069078445435,-2.31,4.7,1.35,5.4
9.99128794670105,-2.28,4.39,1.01,5.04
9.991513013839722,-1.45,3.59,0.41,3.89
9.991732835769653,-1.17,2.73,-0.33,2.98
10.000735998153687,-1.52,1.61,-1.05,2.45
10.010678052902222,-1.61,0.37,-1.72,2.38
10.021338939666748,-1.25,-0.98,-2.2,2.71
10.090988874435425,-0.9,-2.3,-2.43,3.46
10.091243028640747,-0.72,-3.27,-2.52,4.19
10.091476917266846,-0.73,-3.77,-2.58,4.62
10.091699838638306,-0.98,-3.83,-2.55,4.7
10.091920137405396,-1.32,-3.27,-2.44,4.28
10.092121839523315,-1.32,-2.37,-2.36,3.59
10.092341899871826,-0.95,-1.5,-2.29,2.89
10.100695848464966,-0.54,-0.72,-2.13,2.31
10.110692977905273,-0.26,-0.03,-1.8,1.81
10.121263980865479,-0.07,0.47,-1.36,1.44
10.190524816513062,0.12,0.66,-0.86,1.09
10.190778970718384,0.3,0.57,-0.41,0.76
10.19101095199585,0.35,0.21,0.07,0.41
10.191236972808838,0.41,-0.2,0.49,0.66
10.191460847854614,0.52,-0.47,0.81,1.07
10.191679954528809,0.6,-0.87,1.09,1.51
10.191904783248901,0.64,-1.35,1.35,2.01
10.200551986694336,0.71,-1.71,1.48,2.37
10.21048903465271,0.81,-2.0,1.55,2.65
10.221112966537476,0.86,-2.22,1.61,2.87
10.291423082351685,0.88,-2.37,1.7,3.04
10.2916738986969,0.86,-2.5,1.73,3.15
10.291910886764526,0.82,-2.63,1.66,3.21
10.292130947113037,0.65,-2.8,1.47,3.22
10.292354822158813,0.45,-2.93,1.14,3.17
10.292573928833008,0.21,-3.01,0.74,3.1
10.292793989181519,-0.02,-2.97,0.33,2.98
10.300512075424194,-0.14,-2.83,0.04,2.83
10.310551881790161,-0.16,-2.61,-0.1,2.61
10.321109056472778,-0.16,-2.29,-0.11,2.29
10.391510009765625,-0.16,-1.96,0.08,1.96
10.391767978668213,-0.05,-1.53,0.4,1.58
10.39200496673584,0.16,-0.83,0.76,1.13
10.392223119735718,0.35,0.09,1.08,1.13
10.39244294166565,0.31,1.07,1.3,1.71
10.392664909362793,0.01,1.88,1.37,2.32
10.392884016036987,-0.14,2.72,1.33,3.03
10.400315046310425,-0.05,3.61,1.31,3.84
10.410337924957275,-0.32,4.16,1.37,4.39
10.42094111442566,-1.09,4.39,1.66,4.81
10.492191076278687,-1.86,4.53,2.16,5.35
10.492440938949585,-2.11,4.83,2.67,5.9
10.492671966552734,-1.74,5.31,2.87,6.28
10.492893934249878,-0.93,6.0,2.61,6.6
10.493115901947021,0.07,6.7,1.89,6.96
10.493336915969849,0.82,7.23,0.92,7.33
10.493560075759888,1.12,7.36,-0.01,7.44
10.500155925750732,1.3,6.71,-0.88,6.89
10.510213136672974,1.87,5.28,-1.7,5.85
10.520857095718384,1.54,3.66,-2.5,4.69
10.592464923858643,0.6,1.55,-3.17,3.57
10.592713117599487,-0.01,-0.8,-3.61,3.69
10.592950105667114,0.03,-2.97,-3.64,4.69
10.593174934387207,0.53,-4.78,-3.32,5.84
10.593401908874512,1.15,-6.06,-2.89,6.81
10.593622922897339,1.54,-6.65,-2.59,7.3
10.593823909759521,1.54,-6.55,-2.41,7.14
10.600034952163696,1.21,-5.71,-2.31,6.27
10.609947919845581,0.75,-4.32,-2.21,4.91
10.620765924453735,0.26,-2.95,-1.94,3.54
10.693065881729126,-0.33,-1.83,-1.58,2.44
10.693329095840454,-0.94,-1.1,-1.28,1.93
10.69356393814087,-1.23,-0.62,-0.94,1.66
10.693793058395386,-1.16,-0.44,-0.55,1.35
10.694020986557007,-1.0,-0.42,-0.17,1.09
10.694240808486938,-0.88,-0.48,0.15,1.01
10.694458961486816,-0.79,-0.6,0.28,1.03
10.70001482963562,-0.6,-0.7,0.25,0.95
10.709903001785278,-0.37,-0.86,0.16,0.94
10.720655918121338,-0.26,-0.99,0.09,1.02
10.795029878616333,-0.24,-1.04,0.1,1.07
10.795287847518921,-0.24,-1.1,0.26,1.15
10.79554295539856,-0.3,-1.21,0.52,1.35
10.795784950256348,-0.29,-1.33,0.82,1.58
10.796032905578613,-0.12,-1.37,1.18,1.81
10.796276807785034,0.04,-1.39,1.59,2.11
10.796520948410034,0.19,-1.47,2.0,2.48
10.799781084060669,0.18,-1.57,2.28,2.77
10.809838056564331,0.07,-1.69,2.32,2.87
10.82047700881958,0.06,-1.78,2.16,2.79
10.894173860549927,0.23,-1.77,1.88,2.59
10.894423007965088,0.43,-1.7,1.59,2.36
10.894634008407593,0.43,-1.59,1.37,2.14
10.894860982894897,0.24,-1.53,1.1,1.89
10.895087957382202,0.1,-1.36,0.78,1.57
10.89530897140503,0.22,-1.05,0.48,1.17
10.895530939102173,0.42,-0.59,0.15,0.73
10.89975380897522,0.59,0.07,-0.13,0.6
10.909757852554321,0.52,0.75,-0.17,0.92
10.920484781265259,0.22,1.38,-0.08,1.39
10.994746923446655,-0.07,1.94,0.09,1.94
10.994995832443237,-0.05,2.4,0.23,2.41
10.995227098464966,0.28,2.67,0.39,2.71
10.99544882774353,0.71,2.66,0.56,2.8
10.99566912651062,0.99,2.58,0.66,2.84
10.995885133743286,1.07,2.52,0.74,2.83
10.996081113815308,1.06,2.52,0.87,2.86
10.99963092803955,0.65,2.74,1.04,3.0
11.009526014328003,-0.06,3.22,1.27,3.46
11.020354986190796,-0.84,3.86,1.49,4.22
11.095258951187134,-1.11,4.38,1.64,4.8
11.095505952835083,-0.75,4.59,1.67,4.94
11.095741987228394,-0.82,4.27,1.36,4.55
11.095968008041382,-1.36,3.26,0.78,3.61
11.096187829971313,-1.92,2.15,0.07,2.88
11.096411943435669,-2.08,0.83,-0.6,2.31
11.096635103225708,-2.05,-0.67,-1.16,2.44
11.099586963653564,-2.04,-2.03,-1.72,3.35
11.109432935714722,-2.09,-2.94,-2.39,4.32
11.12024188041687,-2.03,-3.39,-3.16,5.05
11.196338891983032,-1.85,-3.39,-3.96,5.53
11.196594953536987,-1.61,-2.96,-4.58,5.68
11.196830987930298,-1.32,-2.34,-4.88,5.57
11.197057008743286,-0.77,-1.75,-4.83,5.19
11.197282075881958,-0.16,-1.21,-4.42,4.58
11.197509050369263,0.17,-0.76,-3.73,3.81
11.197727918624878,0.41,-0.38,-2.88,2.93
11.199457883834839,0.76,-0.04,-1.95,2.09
11.209398031234741,1.01,0.16,-0.92,1.37
11.220171928405762,1.09,0.09,0.2,1.11
11.297240972518921,1.15,-0.21,1.34,1.77
11.297488927841187,1.22,-0.67,2.37,2.74
11.297724962234497,1.14,-1.19,3.21,3.6
11.297949075698853,0.95,-1.7,3.75,4.22
11.298170804977417,0.63,-2.06,3.98,4.52
11.298388957977295,0.44,-2.27,3.9,4.53
11.29860806465149,0.48,-2.45,3.56,4.34
11.299376010894775,0.64,-2.65,3.03,4.07
11.309312105178833,0.74,-2.87,2.43,3.83
11.320035934448242,0.55,-3.08,1.84,3.62
11.398203134536743,0.28,-3.21,1.25,3.45
11.39845585823059,0.12,-3.11,0.63,3.17
11.398683786392212,0.02,-3.0,0.07,3.0
11.398929834365845,-0.19,-2.91,-0.33,2.93
11.399155855178833,-0.35,-2.65,-0.6,2.73
11.399379968643188,-0.34,-2.14,-0.84,2.32
11.399598836898804,-0.37,-1.46,-0.99,1.8
11.399819135665894,-0.32,-0.75,-0.9,1.21
11.409245014190674,-0.19,-0.08,-0.56,0.59
11.419940948486328,-0.02,0.56,-0.21,0.59
11.499310970306396,0.08,1.19,0.06,1.19
11.499553918838501,0.07,1.82,0.22,1.83
11.499787092208862,-0.26,2.46,0.3,2.49
11.500010967254639,-1.01,3.07,0.43,3.26
11.500235795974731,-2.04,3.38,0.77,4.02
11.500454902648926,-3.01,3.56,1.34,4.85
11.500673055648804,-3.48,3.82,2.07,5.56
11.500890970230103,-3.09,3.97,2.72,5.71
11.509095907211304,-1.73,4.21,2.91,5.4
11.519860029220581,0.06,4.75,2.6,5.41
11.600515127182007,1.5,5.42,2.06,5.98
11.600775003433228,2.32,6.22,1.49,6.8
11.601005792617798,2.61,6.71,0.97,7.26
11.60123610496521,2.73,6.54,0.53,7.1
11.601465940475464,3.0,5.48,-0.12,6.24
11.601687908172607,2.19,3.84,-1.13,4.56
11.601909875869751,0.74,1.73,-2.26,2.94
11.60213303565979,-0.26,-0.45,-3.02,3.06
11.60921597480774,-0.41,-2.43,-3.32,4.13
11.619831800460815,0.02,-3.99,-3.36,5.21
11.700823068618774,0.65,-5.1,-3.34,6.13
11.701074838638306,0.97,-5.63,-3.36,6.62
11.7013099193573,0.93,-5.53,-3.48,6.59
11.701534032821655,0.77,-4.78,-3.7,6.09
11.701759099960327,0.59,-3.49,-3.8,5.19
11.701979875564575,0.45,-2.27,-3.54,4.22
11.702202081680298,0.16,-1.45,-2.95,3.29
11.70242190361023,-0.27,-0.88,-2.24,2.42
11.709024906158447,-0.56,-0.64,-1.35,1.59
11.719684839248657,-0.72,-0.78,-0.41,1.13
11.801162004470825,-0.8,-0.99,0.42,1.34
11.801391839981079,-0.8,-1.02,0.95,1.6
11.801623106002808,-0.64,-0.94,1.2,1.65
11.801854848861694,-0.35,-0.84,1.25,1.54
11.802080869674683,-0.14,-0.7,1.23,1.42
11.802300930023193,-0.18,-0.67,1.22,1.4
11.802523851394653,-0.31,-0.75,1.17,1.42
11.802746057510376,-0.51,-0.89,1.16,1.54
11.808883905410767,-0.6,-1.15,1.25,1.8
11.819662809371948,-0.54,-1.42,1.32,2.01
11.901306867599487,-0.34,-1.68,1.37,2.19
11.90156102180481,0.07,-2.06,1.4,2.49
11.901768922805786,0.46,-2.27,1.4,2.7
11.901996850967407,0.3,-2.23,1.3,2.59
11.902225017547607,0.03,-2.33,1.19,2.61
11.902446985244751,-0.06,-2.46,1.11,2.69
11.902669906616211,0.11,-2.52,0.98,2.7
11.902881860733032,0.46,-2.54,0.82,2.7
11.908760786056519,0.82,-2.37,0.64,2.58
11.919305086135864,1.03,-1.84,0.44,2.15
12.002002000808716,0.99,-1.16,0.29,1.55
12.002248048782349,0.79,-0.47,0.22,0.94
12.002483129501343,0.73,0.24,0.18,0.78
12.00270700454712,0.69,0.92,0.19,1.16
12.002929925918579,0.32,1.68,0.18,1.71
12.00314998626709,-0.15,2.45,0.16,2.45
12.00337290763855,-0.42,3.09,0.22,3.12
12.003595113754272,-0.45,3.5,0.35,3.54
12.008601903915405,-0.41,3.58,0.51,3.63
12.019252061843872,-0.19,3.26,0.66,3.33
12.102784872055054,0.26,2.91,0.81,3.03
12.103024959564209,0.53,2.72,0.88,2.9
12.10325312614441,0.56,2.73,0.9,2.92
12.103474855422974,0.3,3.11,1.04,3.29
12.103702783584595,-0.19,3.69,1.3,3.91
12.103923082351685,-0.6,4.2,1.47,4.49
12.104144811630249,-0.4,4.23,1.62,4.54
12.104359865188599,-0.2,3.85,1.52,4.14
12.108569860458374,-0.48,2.89,0.94,3.07
12.11921501159668,-1.25,1.8,0.15,2.19
12.203001976013184,-1.85,0.81,-0.63,2.11
12.203251123428345,-1.91,-0.3,-1.36,2.36
12.203485012054443,-1.64,-1.55,-2.06,3.05
12.20370888710022,-1.46,-2.76,-2.65,4.09
12.20393681526184,-1.51,-3.73,-3.11,5.08
12.20415711402893,-1.62,-4.22,-3.47,5.69
12.204375982284546,-1.7,-4.15,-3.79,5.87
12.204596996307373,-1.61,-3.53,-3.94,5.52
12.208492040634155,-1.35,-2.57,-3.66,4.67
12.21919298171997,-0.95,-1.59,-2.94,3.47
12.303844928741455,-0.5,-0.77,-2.06,2.25
12.304094076156616,-0.19,0.04,-1.19,1.2
12.304321050643921,-0.07,0.76,-0.42,0.87
12.304552793502808,0.02,1.3,0.25,1.32
12.304773092269897,0.11,1.56,0.83,1.77
12.304996967315674,0.13,1.45,1.34,1.97
12.305211782455444,0.04,1.0,1.74,2.0
12.305429935455322,-0.09,0.3,2.01,2.03
12.308372974395752,-0.01,-0.49,2.01,2.06
12.319090127944946,0.26,-1.16,1.74,2.1
12.404659032821655,0.54,-1.67,1.42,2.25
12.404907941818237,0.73,-2.08,1.2,2.5
12.405151128768921,0.79,-2.37,1.1,2.72
12.405386924743652,0.66,-2.54,1.06,2.83
12.405625104904175,0.47,-2.7,1.05,2.93
12.40585207939148,0.29,-2.88,1.04,3.07
12.406079053878784,0.11,-2.93,0.95,3.08
12.406285047531128,0.04,-2.93,0.82,3.04
12.408305883407593,0.12,-2.93,0.63,2.99
12.419003963470459,0.21,-2.85,0.38,2.88
12.504974126815796,0.31,-2.62,0.04,2.63
12.505216836929321,0.25,-2.19,-0.35,2.23
12.505450963973999,0.07,-1.69,-0.71,1.83
12.505675077438354,0.04,-1.19,-0.91,1.49
12.505904912948608,0.21,-0.59,-0.9,1.09
12.50612497329712,0.23,-0.02,-0.71,0.74
12.506350994110107,-0.01,0.54,-0.44,0.69
12.50656795501709,-0.3,1.0,-0.16,1.05
12.508157968521118,-0.38,1.62,0.04,1.66
12.518870115280151,-0.31,2.35,0.29,2.38
12.6057608127594,-0.63,2.91,0.67,3.05
12.606007814407349,-1.33,3.32,1.21,3.77
12.606240034103394,-1.87,3.63,1.81,4.46
12.606462001800537,-1.83,4.14,2.35,5.1
12.606682062149048,-1.0,4.92,2.78,5.73
12.606898069381714,0.09,5.87,2.9,6.54
12.607116937637329,0.79,6.94,2.65,7.47
12.607333898544312,1.24,7.79,1.98,8.13
12.607975006103516,1.89,8.02,0.8,8.27
12.618791818618774,2.56,7.4,-0.85,7.87
12.704035997390747,2.53,5.77,-2.6,6.81
12.70428991317749,1.77,3.45,-3.99,5.56
12.70451807975769,0.79,0.85,-4.77,4.9
12.704744100570679,0.08,-1.59,-5.03,5.27
12.7049720287323,-0.07,-3.63,-4.83,6.04
12.705192804336548,0.22,-4.99,-4.35,6.62
12.70541787147522,0.73,-5.47,-3.71,6.64
12.70563793182373,1.28,-5.42,-2.9,6.27
12.707946062088013,1.52,-4.91,-2.2,5.59
12.71854281425476,1.33,-4.09,-1.58,4.58
12.72797179222107,0.95,-3.18,-1.0,3.46
12.805062055587769,0.51,-2.29,-0.51,2.4
12.805310010910034,-0.02,-1.4,-0.25,1.42
12.8055419921875,-0.63,-0.49,-0.15,0.81
12.805768966674805,-0.97,0.26,-0.12,1.01
12.805994987487793,-0.92,0.76,-0.08,1.19
12.80621600151062,-0.71,0.92,-0.01,1.16
12.806434869766235,-0.42,0.81,0.01,0.91
12.807931900024414,-0.17,0.52,-0.08,0.55
12.818509817123413,-0.06,0.14,-0.24,0.28
12.827913999557495,-0.11,-0.34,-0.44,0.56
12.906057119369507,-0.18,-0.78,-0.68,1.05
12.90630292892456,-0.26,-1.27,-0.83,1.53
12.906513929367065,-0.26,-1.66,-0.84,1.87
12.906737089157104,-0.21,-1.85,-0.74,2.0
12.906965970993042,-0.27,-1.96,-0.49,2.03
12.907184839248657,-0.37,-2.05,-0.01,2.08
12.90743899345398,-0.32,-2.15,0.64,2.26
12.907794952392578,-0.19,-2.33,1.35,2.69
12.918410062789917,0.04,-2.51,2.04,3.23
12.927788972854614,0.32,-2.59,2.57,3.66
13.006633996963501,0.4,-2.44,2.78,3.72
13.006880044937134,0.57,-2.2,2.71,3.53
13.00711178779602,0.87,-1.79,2.43,3.14
13.007367849349976,1.22,-1.35,1.98,2.68
13.007589101791382,1.38,-0.95,1.48,2.23
13.007807970046997,1.35,-0.58,0.94,1.74
13.008033037185669,1.29,-0.14,0.38,1.35
13.008234977722168,1.29,0.33,-0.17,1.34
13.01823091506958,1.4,0.75,-0.62,1.7
13.02768588066101,1.54,1.17,-0.8,2.09
13.108001947402954,1.66,1.53,-0.76,2.38
13.10827088356018,1.82,1.73,-0.58,2.57
13.10852313041687,1.84,1.54,-0.42,2.43
13.10875678062439,1.82,1.32,-0.38,2.28
13.108981847763062,1.93,1.06,-0.39,2.23
13.109203100204468,2.0,0.66,-0.5,2.16
13.109424829483032,1.89,0.33,-0.74,2.05
13.10964298248291,1.66,0.22,-0.96,1.93
13.11811089515686,1.31,0.42,-1.09,1.75
13.127701997756958,0.84,1.08,-0.91,1.64
13.20793890953064,0.23,2.15,-0.44,2.2
13.20819091796875,-0.24,3.33,0.17,3.34
13.208431005477905,-0.43,4.41,0.68,4.48
13.208677053451538,-0.37,5.04,1.05,5.16
13.208924055099487,-0.32,5.12,0.96,5.21
13.209151029586792,-0.5,4.48,0.47,4.53
13.209383010864258,-0.66,3.17,-0.33,3.25
13.209614992141724,-0.44,1.58,-1.23,2.05
13.21797800064087,0.04,-0.11,-2.01,2.01
13.22753095626831,0.34,-1.56,-2.82,3.24
13.30850100517273,0.37,-2.51,-3.54,4.35
13.308763980865479,0.25,-2.88,-4.06,4.98
13.309000968933105,0.04,-2.68,-4.4,5.15
13.309231042861938,-0.09,-1.94,-4.26,4.68
13.309451818466187,0.12,-1.03,-3.54,3.68
13.309675931930542,0.74,-0.09,-2.52,2.62
13.309895992279053,1.44,0.71,-1.5,2.19
13.310113906860352,1.84,1.15,-0.54,2.23
13.317857027053833,1.94,1.31,0.19,2.34
13.327481985092163,2.07,1.36,0.55,2.53
13.408998966217041,2.38,1.33,0.56,2.78
13.4092538356781,2.8,1.22,0.3,3.06
13.409497022628784,3.04,0.91,-0.22,3.18
13.409729957580566,2.99,0.45,-0.9,3.15
13.409959077835083,2.82,-0.13,-1.53,3.21
13.41019082069397,2.7,-0.7,-2.07,3.47
13.41041898727417,2.63,-1.17,-2.46,3.78
13.410656929016113,2.51,-1.46,-2.71,3.97
13.417813062667847,2.44,-1.56,-2.82,4.04
13.427335023880005,2.39,-1.48,-2.8,3.96
13.509243965148926,2.28,-1.39,-2.72,3.81
13.509499788284302,2.01,-1.28,-2.63,3.54
13.509741067886353,1.6,-1.07,-2.61,3.24
13.509975910186768,1.2,-0.85,-2.58,2.96
13.510207891464233,0.9,-0.8,-2.59,2.85
13.510441064834595,0.81,-0.78,-2.69,2.91
13.510667085647583,0.75,-0.92,-2.89,3.12
13.510893106460571,0.58,-1.0,-3.15,3.35
13.517606019973755,0.29,-0.94,-3.47,3.6
13.52727198600769,0.09,-0.66,-3.71,3.76
13.609838008880615,0.21,-0.13,-3.83,3.83
13.610085010528564,0.61,0.44,-3.8,3.87
13.610316038131714,0.88,0.88,-3.58,3.79
13.61051893234253,0.88,1.08,-3.14,3.43
13.610738039016724,0.72,1.2,-2.67,3.01
13.610955953598022,0.68,1.54,-2.08,2.67
13.611177921295166,0.91,2.0,-1.28,2.54
13.61139702796936,1.24,2.71,-0.57,3.03
13.617640972137451,1.57,3.73,-0.25,4.05
13.627158880233765,1.81,4.73,-0.49,5.08
13.70967411994934,2.0,5.39,-1.3,5.89
13.709945917129517,2.34,5.53,-2.38,6.45
13.710192918777466,2.78,4.92,-3.38,6.58
13.710440874099731,2.79,3.67,-4.11,6.17
13.710684061050415,2.24,2.08,-4.6,5.52
13.710922002792358,1.63,0.62,-4.9,5.2
13.711160898208618,1.14,-0.31,-4.96,5.09
13.711404085159302,0.74,-0.89,-4.83,4.96
13.717532873153687,0.22,-1.29,-4.55,4.73
13.727005958557129,-0.43,-1.61,-4.05,4.37
13.810807943344116,-0.92,-1.8,-3.47,4.01
13.81107497215271,-1.11,-1.77,-2.95,3.61
13.811327934265137,-1.03,-1.72,-2.52,3.22
13.811571836471558,-0.89,-1.71,-2.19,2.91
13.81181788444519,-0.85,-1.76,-2.02,2.81
13.812058925628662,-0.7,-1.98,-2.07,2.94
13.812302827835083,-0.51,-2.26,-2.3,3.26
13.812544107437134,-0.39,-2.56,-2.47,3.57
13.817327976226807,-0.26,-2.79,-2.57,3.8
13.826889991760254,-0.05,-3.02,-2.56,3.95
13.911051034927368,0.16,-3.26,-2.38,4.03
13.9113028049469,0.29,-3.27,-2.13,3.91
13.911534070968628,0.49,-3.1,-1.74,3.58
13.911761999130249,0.7,-2.87,-1.22,3.19
13.911983966827393,0.87,-2.59,-0.64,2.8
13.91220998764038,1.11,-2.13,-0.29,2.41
13.912431001663208,1.39,-1.62,-0.16,2.14
13.912648916244507,1.58,-1.21,-0.09,1.99
13.917243957519531,1.7,-0.87,-0.13,1.91
13.926780939102173,1.76,-0.25,-0.35,1.81
14.011385917663574,1.82,0.34,-0.66,1.96
14.011651992797852,1.79,0.68,-0.89,2.11
14.011905908584595,1.56,0.82,-0.99,2.02
14.012146949768066,1.16,0.83,-0.8,1.63
14.012387037277222,0.72,0.66,-0.25,1.0
14.012624025344849,0.45,0.31,0.7,0.88
14.012864828109741,0.37,-0.1,1.73,1.77
14.01310396194458,0.51,-0.23,2.53,2.59
14.017042875289917,0.67,0.18,2.93,3.01
14.02676510810852,0.64,1.14,2.83,3.11
14.112159967422485,0.72,2.61,2.16,3.46
14.112414121627808,0.87,4.15,1.08,4.37
14.112652063369751,0.82,5.19,-0.08,5.25
14.112889051437378,0.56,5.35,-1.14,5.49
14.113118886947632,0.22,4.85,-1.97,5.23
14.113348007202148,-0.15,3.94,-2.45,4.64
14.113601922988892,-0.51,2.95,-2.52,3.91
14.11382794380188,-0.86,1.96,-2.16,3.04
14.117002964019775,-1.37,1.09,-1.5,2.3
14.126617908477783,-1.85,0.29,-0.65,1.98
14.212912797927856,-2.14,-0.36,0.27,2.18
14.213174104690552,-2.1,-0.95,1.13,2.56
14.213413953781128,-1.76,-1.33,1.81,2.85
14.213649034500122,-1.26,-1.5,2.36,3.06
14.213881969451904,-0.77,-1.62,2.8,3.32
14.214114904403687,-0.29,-1.67,3.09,3.52
14.214345932006836,0.18,-1.58,3.11,3.49
14.214577913284302,0.46,-1.38,2.9,3.24
14.217113018035889,0.63,-1.26,2.58,2.93
14.226517915725708,0.72,-1.2,2.24,2.64
14.31325888633728,0.89,-1.13,1.87,2.35
14.313513994216919,1.17,-1.15,1.49,2.21
14.313756942749023,1.3,-1.16,1.15,2.08
14.313987970352173,1.26,-1.06,0.84,1.84
14.314219951629639,1.1,-0.93,0.56,1.54
14.314449071884155,0.93,-0.58,0.24,1.12
14.314661979675293,0.93,0.0,-0.06,0.93
14.315424919128418,0.89,0.61,-0.28,1.11
14.316762924194336,0.65,1.19,-0.3,1.38
14.326364994049072,0.33,1.61,-0.13,1.64
14.414431810379028,-0.03,1.79,0.1,1.79
14.414695978164673,-0.43,1.81,0.32,1.88
14.414925813674927,-0.7,1.66,0.44,1.85
14.415630102157593,-0.74,1.42,0.38,1.64
14.415889978408813,-0.69,1.11,0.23,1.32
14.41612696647644,-0.68,0.75,-0.02,1.01
14.416352987289429,-0.64,0.25,-0.31,0.75
14.416579961776733,-0.55,-0.33,-0.58,0.86
14.41755199432373,-0.45,-0.78,-0.78,1.19
14.42631983757019,-0.31,-1.13,-0.78,1.4
14.513036012649536,-0.05,-1.37,-0.55,1.47
14.513287782669067,0.2,-1.48,-0.16,1.5
14.513521909713745,0.35,-1.54,0.28,1.6
14.513749837875366,0.38,-1.43,0.65,1.61
14.513972043991089,0.29,-1.26,0.94,1.59
14.51419186592102,0.09,-1.17,1.17,1.65
14.514410972595215,0.0,-1.22,1.32,1.79
14.514629125595093,-0.09,-1.4,1.29,1.9
14.516577959060669,-0.25,-1.59,1.17,1.98
14.526211977005005,-0.57,-1.84,1.15,2.24
14.614856958389282,-0.99,-2.0,1.32,2.59
14.615105867385864,-1.42,-2.13,1.69,3.06
14.61533808708191,-1.98,-2.2,2.27,3.73
14.616066932678223,-2.43,-2.07,2.9,4.31
14.616306066513062,-2.51,-1.71,3.46,4.6
14.616529941558838,-2.4,-1.17,3.78,4.62
14.61675500869751,-2.15,-0.44,3.62,4.23
14.616974115371704,-1.76,0.45,2.88,3.4
14.617914915084839,-1.39,1.6,1.8,2.78
14.626150846481323,-1.13,2.61,0.69,2.92
14.713795900344849,-0.84,3.08,-0.29,3.2
14.714043855667114,-0.5,2.76,-0.96,2.96
14.714277982711792,-0.23,1.78,-1.33,2.23
14.71450686454773,-0.07,0.52,-1.46,1.55
14.714729070663452,0.08,-0.65,-1.29,1.44
14.71495509147644,0.31,-1.49,-0.89,1.76
14.715173959732056,0.34,-1.93,-0.3,1.98
14.715430974960327,0.14,-2.09,0.44,2.14
14.716831922531128,-0.03,-2.1,1.23,2.43
14.726048946380615,-0.1,-2.07,1.96,2.85
14.814489126205444,-0.1,-1.97,2.66,3.31
14.814734935760498,0.01,-1.9,3.29,3.79
14.814968824386597,0.13,-1.83,3.73,4.15
14.815221071243286,0.16,-1.7,3.94,4.29
14.815454959869385,0.17,-1.57,3.91,4.21
14.815659999847412,0.17,-1.52,3.63,3.93
14.816381931304932,0.22,-1.47,3.17,3.5
14.816613912582397,0.21,-1.42,2.61,2.97
14.81756591796875,0.18,-1.29,2.09,2.46
14.826038122177124,0.06,-1.06,1.66,1.97
14.915437936782837,-0.22,-0.71,1.41,1.59
14.91570782661438,-0.47,-0.27,1.33,1.43
14.915963888168335,-0.63,0.29,1.34,1.5
14.916704893112183,-0.72,0.75,1.4,1.74
14.916961908340454,-0.92,1.22,1.41,2.07
14.917216062545776,-1.27,1.68,1.38,2.51
14.91746211051941,-1.65,2.08,1.3,2.95
14.917700052261353,-2.0,2.48,1.16,3.39
14.91872501373291,-2.15,2.87,1.15,3.76
14.925795793533325,-2.07,3.26,1.24,4.05
15.01498007774353,-1.86,3.69,1.32,4.33
15.015252828598022,-1.48,4.02,1.35,4.49
15.015486001968384,-0.94,4.42,1.38,4.72
15.015708923339844,-0.39,4.89,1.44,5.11
15.015907049179077,0.05,5.26,1.44,5.45
15.016130924224854,0.35,5.41,1.25,5.56
15.016786813735962,0.52,5.24,0.73,5.31
15.017021894454956,0.55,4.67,-0.08,4.7
15.017993927001953,0.56,3.77,-1.11,3.96
15.025672912597656,0.44,2.48,-2.13,3.29
15.11635708808899,0.24,1.0,-2.91,3.08
15.117082834243774,0.32,-0.47,-3.33,3.37
15.117307901382446,0.73,-1.84,-3.33,3.87
15.117542028427124,1.25,-3.05,-2.91,4.39
15.117793798446655,1.75,-3.83,-2.3,4.79
15.118025064468384,2.27,-4.29,-1.63,5.11
15.118255853652954,2.76,-4.53,-0.93,5.38
15.118505954742432,3.09,-4.35,-0.32,5.34
15.119512796401978,3.19,-3.83,0.1,4.98
15.125664949417114,2.91,-3.18,0.33,4.32
15.215689897537231,2.34,-2.37,0.25,3.33
15.215940952301025,1.74,-1.58,-0.12,2.35
15.21616792678833,1.23,-0.92,-0.62,1.65
15.216394901275635,0.58,-0.33,-1.16,1.33
15.216629981994629,-0.16,0.11,-1.58,1.59
15.217328786849976,-0.72,0.23,-1.73,1.88
15.21756386756897,-1.02,-0.04,-1.64,1.93
15.217803955078125,-1.29,-0.46,-1.42,1.97
15.218787908554077,-1.6,-0.86,-1.04,2.09
15.225520849227905,-1.85,-1.15,-0.63,2.26
15.318053960800171,-1.98,-1.24,-0.33,2.35
15.318314790725708,-1.78,-1.31,-0.11,2.21
15.318567991256714,-1.43,-1.44,0.0,2.02
15.318800926208496,-1.19,-1.59,0.11,1.98
15.319031000137329,-0.94,-1.67,0.38,1.95
15.319262981414795,-0.74,-1.7,0.88,2.05
15.319490909576416,-0.63,-1.75,1.53,2.4
15.319721937179565,-0.35,-1.81,2.35,2.98
15.320658922195435,0.18,-1.81,3.23,3.7
15.325320959091187,0.92,-1.68,4.07,4.49
15.417541980743408,1.29,-1.51,4.65,5.05
15.41779112815857,1.3,-1.5,4.86,5.24
15.41802191734314,1.12,-1.44,4.69,5.03
15.418225049972534,1.12,-1.15,4.14,4.44
15.418444871902466,1.42,-0.56,3.17,3.51
15.418662786483765,1.68,0.21,2.01,2.62
15.418883085250854,1.59,0.96,0.8,2.02
15.419100046157837,1.17,1.43,-0.32,1.87
15.420035123825073,0.56,1.66,-1.16,2.1
15.4252450466156,0.04,1.62,-1.64,2.3
15.520350933074951,-0.26,1.32,-1.79,2.23
15.520655870437622,-0.46,0.98,-1.59,1.92
15.52089810371399,-0.64,0.77,-1.17,1.53
15.521121978759766,-0.69,0.7,-0.54,1.12
15.521353960037231,-0.49,0.65,0.17,0.83
15.521554946899414,0.0,0.65,0.81,1.03
15.521771907806396,0.58,0.58,1.41,1.63
15.521986961364746,0.83,0.75,1.89,2.19
15.522897958755493,0.8,0.95,2.28,2.59
15.525150060653687,0.66,1.15,2.57,2.89
15.618569135665894,0.48,1.45,2.72,3.11
15.618811845779419,0.29,1.86,2.8,3.37
15.619044065475464,-0.05,2.44,2.89,3.78
15.619269132614136,-0.71,3.17,2.88,4.34
15.619488954544067,-1.31,3.9,2.49,4.8
15.619707822799683,-1.66,4.33,1.58,4.89
15.619931936264038,-1.92,4.1,0.29,4.53
15.620150804519653,-2.23,3.14,-1.06,3.99
15.621088981628418,-2.35,1.64,-2.17,3.59
15.624982118606567,-2.07,-0.08,-2.99,3.63
15.720876932144165,-1.67,-1.69,-3.55,4.27
15.721143007278442,-1.44,-2.91,-3.91,5.08
15.721398115158081,-1.4,-3.57,-3.95,5.5
15.72164511680603,-1.47,-3.73,-3.73,5.47
15.721888780593872,-1.57,-3.46,-3.24,4.99
15.722132921218872,-1.54,-2.88,-2.35,4.02
15.722371816635132,-1.2,-2.25,-1.26,2.84
15.72262978553772,-0.89,-1.63,-0.15,1.86
15.723551988601685,-0.73,-1.1,0.81,1.54
15.724941968917847,-0.6,-0.62,1.5,1.73
15.820340871810913,-0.42,-0.16,1.91,1.96
15.820588827133179,-0.03,0.32,2.03,2.05
15.820818901062012,0.34,0.65,1.91,2.04
15.821041822433472,0.44,0.69,1.6,1.79
15.82125997543335,0.32,0.44,1.14,1.26
15.821481943130493,0.15,-0.03,0.68,0.69
15.821696043014526,0.11,-0.64,0.25,0.69
15.821914911270142,0.3,-1.26,-0.15,1.3
15.822855949401855,0.54,-1.8,-0.43,1.92
15.824828863143921,0.76,-2.26,-0.53,2.44
15.923269987106323,0.85,-2.63,-0.44,2.79
15.923532009124756,0.84,-2.87,-0.16,2.99
15.923794984817505,0.81,-2.98,0.25,3.09
15.924030065536499,0.71,-3.01,0.74,3.17
15.924263000488281,0.57,-2.98,1.26,3.28
15.924493074417114,0.43,-2.88,1.67,3.35
15.924724817276001,0.3,-2.81,1.88,3.39
15.924953937530518,0.2,-2.68,1.89,3.28
15.925904035568237,0.13,-2.41,1.7,2.95
15.926139116287231,0.08,-2.06,1.37,2.47
15.934781789779663,0.1,-1.66,1.0,1.94
16.021224975585938,0.06,-1.16,0.67,1.34
16.021471977233887,-0.16,-0.54,0.41,0.69
16.021705865859985,-0.46,0.13,0.19,0.51
16.021931886672974,-0.7,0.86,0.09,1.11
16.02215600013733,-0.93,1.59,0.03,1.84
16.022377967834473,-1.36,2.35,-0.02,2.71
16.02260398864746,-1.86,3.07,-0.02,3.58
16.023549795150757,-2.1,3.69,0.08,4.24
16.024667978286743,-1.83,4.18,0.49,4.58
16.034791946411133,-1.24,4.56,1.18,4.87
16.122184991836548,-0.43,5.0,1.73,5.3
16.122437000274658,0.57,5.86,1.78,6.15
16.12266492843628,1.61,7.06,1.3,7.35
16.122888803482056,2.67,8.02,0.49,8.46
16.123109102249146,3.5,7.96,-0.73,8.72
16.123331785202026,3.69,6.93,-2.35,8.19
16.123552083969116,3.23,5.06,-3.81,7.11
16.12448501586914,2.54,2.64,-4.74,5.99
16.124714136123657,1.99,0.12,-5.16,5.53
16.13465905189514,1.68,-2.22,-5.21,5.9
16.225609064102173,1.43,-4.04,-4.99,6.57
16.225878953933716,1.09,-5.13,-4.55,6.94
16.226133108139038,0.69,-5.38,-3.99,6.73
16.226374864578247,0.34,-4.87,-3.32,5.9
16.22662091255188,-0.01,-3.92,-2.56,4.68
16.226866960525513,-0.51,-2.86,-1.74,3.38
16.227105855941772,-1.12,-1.91,-0.97,2.41
16.228081941604614,-1.53,-1.16,-0.37,1.95
16.228312015533447,-1.71,-0.59,0.08,1.81
16.234471082687378,-1.72,-0.23,0.41,1.78
16.32362198829651,-1.55,-0.16,0.68,1.7
16.32389998435974,-1.27,-0.33,0.85,1.56
16.324114084243774,-0.84,-0.71,0.85,1.39
16.324338912963867,-0.3,-1.26,0.8,1.52
16.324564933776855,0.1,-1.68,0.74,1.83
16.324784994125366,0.38,-1.94,0.69,2.09
16.32499098777771,0.65,-2.11,0.69,2.31
16.325953006744385,0.69,-2.18,0.76,2.4
16.326177835464478,0.61,-2.26,0.96,2.53
16.334342002868652,0.59,-2.34,1.26,2.72
16.427268981933594,0.67,-2.53,1.6,3.06
16.427510976791382,0.59,-2.76,1.98,3.44
16.42774200439453,0.42,-2.95,2.24,3.72
16.427966833114624,0.32,-2.96,2.41,3.83
16.42818808555603,0.43,-2.83,2.49,3.79
16.428407907485962,0.73,-2.68,2.47,3.71
16.428627014160156,0.89,-2.56,2.36,3.59
16.42953610420227,0.86,-2.26,2.14,3.22
16.42976212501526,0.82,-1.75,1.79,2.63
16.43423891067505,0.81,-1.21,1.31,1.95
16.523872137069702,0.71,-0.58,0.83,1.23
16.5241219997406,0.65,0.03,0.41,0.76
16.524388074874878,0.64,0.67,0.02,0.92
16.524610996246338,0.54,1.24,-0.27,1.37
16.524834871292114,0.3,1.72,-0.41,1.79
16.525052785873413,0.01,2.08,-0.34,2.1
16.525269985198975,-0.2,2.14,-0.12,2.15
16.52619695663452,-0.27,2.12,0.14,2.14
16.526420831680298,-0.1,2.16,0.32,2.18
16.534173011779785,0.34,2.13,0.49,2.21
16.627810955047607,0.9,2.03,0.73,2.33
16.62808394432068,1.33,2.09,0.97,2.66
16.628329038619995,1.19,2.3,1.17,2.84
16.628595113754272,0.46,2.86,1.39,3.21
16.628830909729004,-0.56,3.76,1.73,4.17
16.62906289100647,-1.57,4.7,2.1,5.38
16.629288911819458,-1.93,5.33,2.23,6.09
16.63025689125061,-1.13,5.29,2.22,5.84
16.63049292564392,0.06,4.87,1.89,5.22
16.63404107093811,-0.26,4.15,1.2,4.32
16.725939989089966,-1.42,2.61,0.28,2.98
16.72619390487671,-2.11,0.77,-0.47,2.29
16.726423978805542,-2.14,-0.82,-1.02,2.5
16.726649045944214,-1.95,-2.1,-1.59,3.27
16.72687292098999,-1.89,-3.21,-2.29,4.37
16.7270929813385,-1.98,-3.93,-3.08,5.37
16.727313995361328,-2.06,-3.98,-3.86,5.91
16.72828698158264,-2.11,-3.42,-4.48,6.01
16.72851300239563,-2.08,-2.52,-4.85,5.84
16.733929872512817,-1.81,-1.67,-4.89,5.47
16.830267906188965,-1.41,-0.96,-4.63,4.93
16.830585956573486,-0.94,-0.37,-4.09,4.21
16.830832958221436,-0.4,-0.09,-3.32,3.34
16.831055879592896,0.02,-0.13,-2.37,2.37
16.831279039382935,0.23,-0.35,-1.31,1.37
16.831499814987183,0.54,-0.66,-0.17,0.86
16.83172297477722,0.91,-0.84,0.93,1.54
16.83263087272644,1.15,-0.98,1.97,2.48
16.83285689353943,1.18,-1.21,2.93,3.38
16.833828926086426,1.07,-1.36,3.75,4.13
16.92699885368347,0.96,-1.53,4.2,4.57
16.927255868911743,0.97,-1.66,4.28,4.69
16.92748999595642,1.1,-1.8,4.04,4.55
16.927714109420776,1.19,-1.95,3.49,4.17
16.92794108390808,1.03,-2.25,2.85,3.77
16.928159952163696,0.81,-2.54,2.17,3.43
16.928377866744995,0.65,-2.78,1.36,3.16
16.929297924041748,0.5,-2.98,0.51,3.06
16.929525136947632,0.39,-3.14,-0.31,3.17
16.93373394012451,0.25,-3.25,-1.01,3.41
17.030938863754272,0.07,-3.22,-1.57,3.58
17.031201124191284,-0.07,-3.0,-1.98,3.59
17.03144383430481,-0.02,-2.6,-2.2,3.4
17.031676054000854,0.18,-2.1,-2.12,2.98
17.031909942626953,0.21,-1.7,-1.56,2.31
17.032140016555786,-0.05,-1.41,-0.49,1.49
17.032370805740356,-0.35,-1.05,0.6,1.25
17.033354997634888,-0.35,-0.33,1.47,1.54
17.033602952957153,-0.19,0.69,2.16,2.27
17.033838033676147,-0.26,1.9,2.66,3.27
17.13336682319641,-0.72,3.14,2.95,4.36
17.13365387916565,-1.63,4.18,3.27,5.55
17.13391089439392,-2.5,5.16,3.77,6.86
17.13415789604187,-2.63,6.16,4.28,7.94
17.134403944015503,-1.84,7.14,4.36,8.56
17.134641885757446,-0.34,7.98,3.79,8.84
17.1348819732666,1.28,8.4,2.9,8.97
17.135868787765503,2.54,8.3,1.75,8.85
17.136111974716187,3.3,7.69,0.2,8.37
17.13635492324829,3.4,6.63,-1.65,7.63
17.232788801193237,2.65,5.03,-3.42,6.63
17.23308801651001,1.52,3.1,-4.64,5.78
17.233339071273804,0.51,0.89,-5.25,5.34
17.23359704017639,-0.19,-1.29,-5.42,5.57
17.233829975128174,-0.22,-3.12,-5.3,6.15
17.234050035476685,0.22,-4.47,-4.86,6.6
17.234272003173828,0.75,-5.2,-4.14,6.68
17.23519992828369,0.95,-5.45,-3.26,6.42
17.235429048538208,0.68,-5.16,-2.52,5.78
17.235647916793823,0.2,-4.25,-1.97,4.68
17.332616090774536,-0.19,-3.08,-1.57,3.46
17.33293890953064,-0.53,-2.07,-1.25,2.47
17.333208799362183,-0.86,-1.36,-0.93,1.85
17.3334801197052,-1.05,-1.01,-0.61,1.57
17.333732843399048,-0.98,-0.86,-0.28,1.33
17.33396291732788,-0.67,-0.89,0.08,1.11
17.33418297767639,-0.24,-1.07,0.36,1.15
17.335119009017944,0.02,-1.22,0.39,1.28
17.335346937179565,0.08,-1.29,0.31,1.32
17.335570096969604,0.11,-1.36,0.14,1.37
17.43261981010437,0.09,-1.41,-0.01,1.41
17.432891130447388,-0.04,-1.51,-0.05,1.51
17.43312692642212,-0.03,-1.6,0.04,1.6
17.43334984779358,0.11,-1.78,0.27,1.8
17.433595895767212,0.16,-2.11,0.65,2.21
17.43383479118347,-0.05,-2.41,1.1,2.64
17.434079885482788,-0.33,-2.68,1.49,3.08
17.435086965560913,-0.34,-2.82,1.74,3.33
17.43533492088318,-0.11,-2.92,1.91,3.49
17.435578107833862,0.22,-2.95,1.97,3.55
17.53307795524597,0.62,-2.81,1.9,3.44
17.533339977264404,0.87,-2.51,1.72,3.16
17.5335910320282,0.87,-2.2,1.53,2.81
17.53383708000183,0.84,-1.95,1.35,2.51
17.534080982208252,0.75,-1.74,1.19,2.23
17.53432011604309,0.56,-1.2,0.96,1.63
17.5345618724823,0.26,-0.38,0.69,0.82
17.535573959350586,-0.07,0.57,0.48,0.74
17.535820960998535,-0.26,1.54,0.38,1.6
17.53606390953064,-0.38,2.31,0.45,2.38
17.63391399383545,-0.41,2.76,0.69,2.87
17.634156942367554,-0.2,2.96,1.04,3.14
17.63438582420349,0.31,2.97,1.25,3.23
17.634609937667847,0.95,2.92,1.22,3.3
17.63482689857483,1.4,2.88,0.97,3.34
17.63504385948181,1.29,2.91,0.66,3.25
17.635260820388794,0.71,3.12,0.36,3.21
17.636171102523804,0.0,3.61,0.35,3.62
17.636401891708374,-0.79,4.44,0.68,4.56
17.636618852615356,-1.5,5.2,1.04,5.51
17.73422884941101,-1.78,5.48,1.11,5.86
17.734473943710327,-1.78,5.11,0.84,5.47
17.7347309589386,-1.9,4.07,0.32,4.5
17.7349750995636,-2.3,2.49,-0.28,3.4
17.735225915908813,-2.58,0.67,-0.83,2.79
17.735469102859497,-2.22,-1.11,-1.37,2.83
17.73571491241455,-1.6,-2.58,-1.82,3.53
17.736727952957153,-1.14,-3.57,-2.2,4.34
17.736974954605103,-0.94,-3.98,-2.52,4.8
17.73722004890442,-0.86,-3.83,-2.84,4.84
17.834954023361206,-0.67,-3.18,-3.11,4.49
17.83521795272827,-0.29,-2.34,-3.18,3.95
17.835477113723755,0.16,-1.49,-2.95,3.3
17.83572793006897,0.48,-0.54,-2.59,2.68
17.83596897125244,0.67,0.39,-2.2,2.33
17.836212873458862,0.76,1.0,-1.82,2.21
17.836450815200806,0.91,1.17,-1.37,2.01
17.83743190765381,1.04,0.91,-0.89,1.64
17.837682008743286,1.03,0.28,-0.37,1.12
17.83792495727539,0.88,-0.48,0.16,1.01
17.93632698059082,0.68,-1.21,0.67,1.54
17.93657398223877,0.5,-1.86,1.14,2.23
17.936808824539185,0.35,-2.39,1.56,2.87
17.937047958374023,0.29,-2.71,1.88,3.31
17.937268018722534,0.4,-2.81,2.05,3.5
17.937487840652466,0.55,-2.89,2.15,3.64
17.93770694732666,0.59,-2.99,2.24,3.78
17.938666105270386,0.52,-3.1,2.2,3.83
17.938905000686646,0.37,-3.22,2.03,3.82
18.036792993545532,0.25,-3.22,1.72,3.65
18.037096977233887,0.25,-3.06,1.27,3.32
18.037370920181274,0.23,-2.85,0.74,2.95
18.037643909454346,0.15,-2.69,0.24,2.7
18.037914037704468,0.01,-2.66,-0.15,2.66
18.03818106651306,-0.18,-2.65,-0.42,2.68
18.03844690322876,-0.26,-2.36,-0.62,2.45
18.038708925247192,-0.18,-1.82,-0.71,1.96
18.137332916259766,0.0,-1.05,-0.59,1.2
18.13760495185852,-0.06,-0.19,-0.19,0.27
18.137861013412476,-0.44,0.71,0.32,0.89
18.138106107711792,-0.76,1.8,0.73,2.08
18.13835096359253,-0.9,3.16,1.02,3.44
18.138612031936646,-1.19,4.53,1.24,4.84
18.138844966888428,-1.75,5.55,1.42,5.99
18.139076948165894,-2.47,5.94,1.56,6.61
18.139302015304565,-3.01,5.91,1.64,6.83
18.13951086997986,-3.0,5.91,1.6,6.81
18.238517999649048,-2.25,5.9,1.43,6.47
18.238795042037964,-1.05,5.76,0.9,5.92
18.239046812057495,0.64,5.45,0.1,5.48
18.23929190635681,1.81,5.16,-0.52,5.49
18.239535093307495,1.51,5.11,-0.95,5.41
18.239784955978394,0.33,5.26,-1.18,5.4
18.24053406715393,-0.15,5.24,-0.91,5.32
18.240803956985474,2.1,4.19,-0.11,4.68
18.241048097610474,3.93,3.15,0.24,5.04
18.241290807724,3.28,1.41,-0.22,3.57
18.242342948913574,1.75,-1.15,-0.89,2.27
18.24259090423584,0.81,-3.52,-1.24,3.81
18.242832899093628,0.82,-5.05,-1.45,5.31
18.243075132369995,1.42,-5.69,-1.86,6.15
18.25248098373413,2.05,-5.73,-2.56,6.6
18.34810996055603,2.22,-5.17,-3.38,6.56
18.34836196899414,1.85,-4.19,-4.15,6.18
18.34859585762024,1.05,-3.21,-4.64,5.73
18.348818063735962,0.25,-2.31,-4.78,5.31
18.349047899246216,-0.21,-1.72,-4.53,4.85
18.349978923797607,-0.7,-1.3,-4.02,4.28
18.350207090377808,-1.29,-1.1,-3.28,3.69
18.350433111190796,-1.65,-1.08,-2.37,3.08
18.35065197944641,-1.72,-1.07,-1.45,2.49
18.352362871170044,-1.57,-1.02,-0.59,1.96
18.453596830368042,-1.26,-1.0,0.23,1.62
18.4538791179657,-0.85,-1.01,0.94,1.62
18.45415711402893,-0.57,-1.02,1.55,1.94
18.45442795753479,-0.51,-0.98,1.98,2.26
18.454696893692017,-0.47,-0.95,2.29,2.52
18.455768823623657,-0.47,-1.01,2.59,2.81
18.455996990203857,-0.39,-1.21,2.82,3.09
18.456218957901,-0.37,-1.46,2.95,3.31
18.45641589164734,-0.32,-1.71,2.95,3.42
18.456640005111694,-0.11,-1.98,2.73,3.37
18.55655312538147,0.46,-2.35,2.32,3.33
18.556822061538696,0.62,-2.49,1.76,3.11
18.557069063186646,0.23,-2.63,1.1,2.86
18.5578191280365,0.0,-2.82,0.5,2.86
18.55806612968445,0.12,-2.78,0.05,2.78
18.559040784835815,0.48,-2.58,-0.28,2.63
18.55929398536682,0.73,-2.27,-0.48,2.43
18.559526920318604,0.74,-1.97,-0.52,2.16
18.55975890159607,0.52,-1.55,-0.45,1.69
18.559993028640747,0.2,-0.89,-0.23,0.94
18.562217950820923,-0.02,-0.02,0.11,0.11
18.572158098220825,-0.13,1.0,0.46,1.1
18.66659379005432,-0.24,2.0,0.77,2.15
18.66683793067932,-0.39,2.91,1.01,3.1
18.667071104049683,-0.41,3.73,1.08,3.9
18.668011903762817,-0.1,4.26,0.94,4.36
18.668238878250122,0.59,4.41,0.73,4.5
18.66846203804016,1.23,4.26,0.56,4.46
18.668678998947144,1.28,3.91,0.42,4.13
18.668900966644287,0.82,3.88,0.38,3.98
18.669119119644165,-0.07,4.27,0.57,4.3
18.671998977661133,-1.24,4.86,0.8,5.07
18.773117780685425,-2.03,5.14,1.04,5.62
18.77340579032898,-1.36,4.66,1.32,5.03
18.773684978485107,-1.02,4.04,1.21,4.33
18.874867916107178,-1.81,2.68,0.58,3.28
18.87516188621521,-2.78,0.85,-0.19,2.91
18.87543797492981,-3.05,-0.92,-0.86,3.29
18.875706911087036,-2.56,-2.46,-1.48,3.84
18.875931978225708,-1.94,-3.53,-2.12,4.55
18.876156091690063,-1.51,-4.1,-2.72,5.14
18.87637686729431,-1.38,-4.18,-3.26,5.47
18.876596927642822,-1.39,-3.82,-3.65,5.46
18.876818895339966,-1.19,-3.13,-3.8,5.06
18.87704110145569,-0.71,-2.33,-3.58,4.33
18.87794589996338,-0.19,-1.42,-3.1,3.41
18.878173112869263,0.15,-0.38,-2.54,2.57
18.87839102745056,0.31,0.79,-2.04,2.2
18.87861394882202,0.35,1.71,-1.58,2.35
18.87881302833557,0.35,2.16,-1.13,2.46
18.879029035568237,0.26,2.06,-0.67,2.18
18.879245042800903,0.0,1.59,-0.13,1.59
18.88178300857544,-0.2,0.9,0.5,1.04
18.9847469329834,-0.24,0.08,1.06,1.08
18.98499298095703,-0.19,-0.75,1.51,1.69
18.9859299659729,-0.09,-1.47,1.7,2.24
18.98616099357605,0.04,-2.1,1.69,2.69
18.986387014389038,0.32,-2.56,1.65,3.06
18.986607789993286,0.77,-2.85,1.72,3.41
18.986825942993164,1.14,-3.1,1.93,3.82
18.987042903900146,1.25,-3.24,2.17,4.09
18.987257957458496,1.1,-3.31,2.27,4.16
18.98747706413269,0.84,-3.47,2.22,4.2
19.084991931915283,0.64,-3.54,1.99,4.11
19.085243940353394,0.42,-3.38,1.62,3.77
19.086179971694946,0.27,-3.02,1.12,3.23
19.086410999298096,0.08,-2.58,0.57,2.64
19.086633920669556,-0.22,-2.12,0.05,2.13
19.086858987808228,-0.52,-1.69,-0.44,1.82
19.087077856063843,-0.74,-1.26,-0.92,1.72
19.08729910850525,-0.77,-0.62,-1.3,1.63
19.087517976760864,-0.65,0.3,-1.64,1.78
19.087734937667847,-0.5,1.21,-1.88,2.29
19.091566801071167,-0.53,1.9,-1.92,2.75
19.19025993347168,-0.88,2.38,-1.62,3.01
19.191323041915894,-1.14,2.78,-1.03,3.17
19.191581964492798,-1.05,3.17,-0.19,3.34
19.191826105117798,-0.8,3.61,0.88,3.8
19.192070960998535,-0.51,4.33,1.9,4.75
19.293784856796265,-0.11,5.44,2.55,6.0
19.294620990753174,0.61,6.67,2.62,7.19
19.294904947280884,1.44,7.75,2.33,8.21
19.29517912864685,2.26,8.26,1.79,8.74
19.29544186592102,3.22,7.65,0.72,8.33
19.29570698738098,3.78,6.13,-0.94,7.26
19.296772003173828,3.39,4.04,-2.68,5.91
19.29704213142395,2.54,1.6,-3.95,4.96
19.297302961349487,1.86,-0.9,-4.59,5.03
19.297567129135132,1.54,-3.09,-4.8,5.91
19.297827005386353,1.4,-4.65,-4.63,6.7
19.298067808151245,1.4,-5.51,-4.25,7.09
19.29832696914673,1.46,-5.62,-3.82,6.95
19.298592805862427,1.39,-5.16,-3.32,6.29
19.29881000518799,1.07,-4.27,-2.81,5.22
19.301363945007324,0.58,-3.03,-2.34,3.87
19.404680967330933,0.01,-1.88,-1.89,2.66
19.404927968978882,-0.6,-0.9,-1.51,1.85
19.405164003372192,-1.11,0.01,-1.13,1.58
19.405391931533813,-1.32,0.59,-0.77,1.63
19.405616998672485,-1.11,0.86,-0.46,1.47
19.405842065811157,-0.57,1.02,-0.23,1.19
19.40606379508972,0.06,1.05,-0.14,1.06
19.40628409385681,0.57,0.85,-0.24,1.05
19.406503915786743,0.84,0.48,-0.44,1.06
19.40672278404236,0.88,0.05,-0.63,1.08
19.50542902946472,0.84,-0.4,-0.82,1.24
19.505677938461304,0.81,-0.73,-0.94,1.43
19.505908966064453,0.67,-0.98,-0.93,1.5
19.506131887435913,0.66,-1.28,-0.77,1.63
19.506356954574585,0.61,-1.53,-0.39,1.69
19.506577014923096,0.43,-1.72,0.2,1.78
19.50680184364319,0.14,-1.87,0.82,2.04
19.507019996643066,-0.01,-2.12,1.33,2.5
19.507242918014526,-0.02,-2.21,1.7,2.78
19.507460832595825,-0.05,-2.23,1.87,2.91
19.606213808059692,0.0,-2.19,1.85,2.86
19.606456995010376,0.24,-2.05,1.62,2.62
19.60668683052063,0.47,-1.73,1.15,2.12
19.606910943984985,0.69,-1.36,0.55,1.62
19.607131958007812,1.04,-1.08,-0.05,1.5
19.60735297203064,1.27,-0.87,-0.58,1.64
19.607571840286255,1.18,-0.68,-1.0,1.68
19.607795000076294,0.96,-0.43,-1.29,1.66
19.607993841171265,0.96,-0.08,-1.46,1.74
19.608210802078247,1.13,0.39,-1.58,1.98
19.70738387107849,1.4,0.9,-1.65,2.34
19.707628965377808,1.79,1.24,-1.53,2.66
19.707860946655273,2.17,1.18,-1.17,2.73
19.708083868026733,2.54,0.92,-0.67,2.78
19.70830988883972,2.79,0.76,-0.2,2.89
19.708526849746704,2.83,0.94,0.19,2.98
19.708746910095215,2.71,1.59,0.54,3.18
19.708961963653564,2.26,2.62,0.9,3.57
19.709177017211914,1.1,4.02,1.03,4.29
19.709393978118896,-0.24,5.57,0.73,5.62
19.808593034744263,-1.28,6.6,0.06,6.72
19.808839082717896,-2.34,6.56,-0.79,7.0
19.809070825576782,-3.22,5.03,-1.51,6.16
19.809295892715454,-3.15,2.46,-2.12,4.52
19.80951690673828,-2.42,-0.38,-2.61,3.57
19.809736967086792,-1.59,-2.76,-3.05,4.41
19.809962034225464,-0.91,-4.18,-3.62,5.6
19.810178995132446,-0.65,-4.56,-4.38,6.35
19.90892004966736,-0.69,-3.79,-5.06,6.35
19.909208059310913,-0.53,-2.09,-5.16,5.59
19.91020894050598,-0.13,-0.26,-4.6,4.6
19.910449981689453,0.43,1.18,-3.77,3.97
20.009610891342163,1.19,2.11,-2.82,3.71
20.00990080833435,1.9,2.8,-2.0,3.93
20.010191917419434,2.44,3.14,-1.3,4.18
20.010422945022583,2.84,2.95,-0.68,4.15
20.01064395904541,3.13,2.34,-0.06,3.9
20.01135802268982,3.23,1.49,0.5,3.59
20.011598825454712,3.04,0.46,0.91,3.2
20.011825799942017,2.66,-0.42,1.01,2.87
20.01279091835022,2.47,-0.96,0.87,2.78
20.01301598548889,2.54,-1.2,0.51,2.85
20.013252019882202,2.5,-1.25,-0.04,2.79
20.01347804069519,2.38,-1.22,-0.66,2.75
20.01369595527649,2.3,-1.2,-1.23,2.87
20.013916969299316,2.17,-1.11,-1.74,2.99
20.0141339302063,1.92,-0.99,-2.31,3.16
20.01435112953186,1.68,-0.85,-2.89,3.44
20.014570951461792,1.41,-0.74,-3.32,3.68
20.014791011810303,1.13,-0.72,-3.61,3.85
20.015641927719116,0.93,-0.77,-3.75,3.93
20.0206778049469,0.87,-0.8,-3.75,3.93
20.134963989257812,0.82,-0.91,-3.59,3.79
20.13525390625,0.68,-1.0,-3.34,3.55
20.135533094406128,0.45,-1.06,-3.01,3.22
20.13580012321472,0.27,-0.99,-2.69,2.87
20.136038064956665,0.27,-0.84,-2.34,2.5
20.136300802230835,0.3,-0.67,-2.11,2.23
20.13656997680664,0.49,-0.08,-2.15,2.2
20.136831045150757,0.86,0.89,-2.43,2.72
20.137869119644165,1.15,1.88,-2.99,3.71
20.13809299468994,1.4,2.85,-3.6,4.8
20.1383159160614,1.69,3.54,-3.98,5.58
20.1405189037323,2.23,3.91,-4.05,6.05
20.24611783027649,2.99,4.05,-3.96,6.4
20.246365785598755,3.47,3.98,-3.75,6.47
20.246596097946167,3.29,3.75,-3.38,6.02
20.24682092666626,2.58,3.34,-2.98,5.16
20.247040033340454,1.51,2.86,-2.62,4.16
20.247262001037598,0.5,2.28,-2.44,3.37
20.24820899963379,-0.16,1.74,-2.46,3.01
20.2484347820282,-0.51,1.06,-2.52,2.78
20.24863290786743,-0.69,0.2,-2.52,2.62
20.24885892868042,-0.79,-0.74,-2.46,2.68
20.250447988510132,-0.96,-1.62,-2.5,3.12
20.260446786880493,-1.14,-2.43,-2.73,3.82
20.36934781074524,-1.14,-3.05,-3.09,4.48
20.369624853134155,-1.04,-3.54,-3.49,5.07
20.369905948638916,-0.89,-4.05,-3.74,5.58
20.370155096054077,-0.74,-4.48,-3.72,5.86
20.371174097061157,-0.59,-4.62,-3.49,5.82
20.371422052383423,-0.31,-4.58,-3.05,5.51
20.37167191505432,0.12,-4.42,-2.51,5.08
20.371912002563477,0.63,-4.16,-1.93,4.62
20.372151136398315,1.22,-3.85,-1.36,4.26
20.37239384651184,1.78,-3.54,-0.9,4.06
20.37263512611389,2.28,-2.89,-0.65,3.73
20.48841691017151,2.78,-2.07,-0.46,3.49
20.488683938980103,3.13,-1.23,-0.24,3.37
20.488940000534058,3.32,-0.31,0.16,3.33
20.48993182182312,3.36,0.53,0.74,3.48
20.49017882347107,3.29,1.29,1.37,3.79
20.490427017211914,3.34,2.01,2.01,4.38
20.49065899848938,3.23,2.77,2.37,4.87
20.490880966186523,2.87,3.94,2.23,5.36
20.491107940673828,2.57,5.02,1.55,5.84
20.49132990837097,2.35,5.42,0.36,5.91
20.491559982299805,2.17,5.18,-1.09,5.72
20.491784811019897,1.86,4.39,-2.42,5.34
20.607131958007812,1.23,3.11,-3.47,4.81
20.60825800895691,0.42,1.73,-4.08,4.45
20.608537912368774,-0.26,0.47,-4.24,4.27
20.60881209373474,-0.86,-0.48,-3.98,4.1
20.609081029891968,-1.47,-1.28,-3.28,3.81
20.60934281349182,-2.01,-1.99,-2.23,3.6
20.6096351146698,-2.22,-2.47,-1.02,3.47
20.60989785194397,-2.07,-2.69,0.12,3.39
20.61016011238098,-1.54,-2.7,1.02,3.27
20.610452890396118,-0.95,-2.41,1.64,3.06
20.6106698513031,-0.62,-2.0,1.99,2.88
20.611501932144165,-0.3,-1.54,2.08,2.6
20.727602005004883,0.12,-1.09,1.98,2.26
20.727868795394897,0.54,-0.72,1.63,1.86
20.72812008857727,0.88,-0.45,1.12,1.49
20.728362798690796,1.14,-0.31,0.59,1.32
20.728604078292847,1.38,-0.23,0.09,1.4
20.729345083236694,1.5,-0.14,-0.36,1.54
20.729591131210327,1.42,-0.02,-0.6,1.54
20.729853868484497,1.1,0.15,-0.65,1.28
20.730093955993652,0.58,0.31,-0.53,0.84
20.73106098175049,0.04,0.47,-0.35,0.58
20.731297969818115,-0.45,0.78,-0.15,0.91
20.731530904769897,-0.77,1.17,0.01,1.4
20.73995804786682,-0.79,1.66,0.06,1.83
20.85348105430603,-0.58,2.0,-0.1,2.08
20.85371994972229,-0.31,1.89,-0.4,1.95
20.853951930999756,-0.18,1.26,-0.63,1.42
20.854177951812744,-0.29,0.28,-0.76,0.86
20.85439705848694,-0.52,-0.79,-0.85,1.27
20.854620933532715,-0.68,-1.77,-0.84,2.07
20.855536937713623,-0.79,-2.4,-0.77,2.64
20.855763912200928,-0.81,-2.59,-0.67,2.79
20.855989933013916,-0.69,-2.41,-0.45,2.54
20.85621190071106,-0.62,-1.93,-0.08,2.02
20.85643196105957,-0.51,-1.34,0.43,1.49
20.859855890274048,-0.35,-0.86,1.0,1.36
20.977893114089966,-0.22,-0.6,1.58,1.7
20.978152990341187,-0.14,-0.4,2.13,2.17
20.978400945663452,-0.13,-0.31,2.53,2.55
20.978632926940918,-0.29,-0.27,2.75,2.77
20.97958779335022,-0.58,-0.01,2.8,2.85
21.098824977874756,-0.88,0.33,2.77,2.92
21.099775075912476,-1.11,0.61,2.64,2.92
21.10008192062378,-1.28,0.97,2.48,2.95
21.10035991668701,-1.3,1.38,2.25,2.94
21.10059094429016,-1.14,1.8,1.9,2.85
21.10081696510315,-0.92,2.09,1.42,2.68
21.101035833358765,-0.68,2.19,0.82,2.43
21.10125494003296,-0.39,2.05,0.22,2.09
21.101474046707153,-0.03,1.68,-0.25,1.69
21.10239291191101,0.23,1.21,-0.53,1.34
21.102618932724,0.38,0.67,-0.56,0.95
21.102840900421143,0.22,0.09,-0.33,0.4
21.10305905342102,-0.14,-0.52,0.06,0.54
21.103280782699585,-0.35,-0.95,0.58,1.16
21.103503942489624,-0.39,-1.24,1.18,1.75
21.10372495651245,-0.37,-1.48,1.78,2.34
21.10394310951233,-0.29,-1.68,2.29,2.85
21.104159116744995,-0.23,-1.86,2.68,3.27
21.10438084602356,-0.33,-1.97,2.99,3.59
21.110106945037842,-0.38,-2.1,3.23,3.87
21.225075006484985,-0.25,-2.2,3.39,4.04
21.225334882736206,-0.05,-2.18,3.43,4.06
21.225579023361206,0.13,-2.12,3.35,3.96
21.225816011428833,0.18,-2.02,3.15,3.74
21.226024866104126,0.18,-1.84,2.89,3.43
21.22625494003296,0.19,-1.67,2.62,3.11
21.226489782333374,0.18,-1.32,2.26,2.62
21.226716995239258,0.21,-0.94,1.88,2.11
21.22694182395935,0.29,-0.78,1.61,1.81
21.227914094924927,0.34,-0.64,1.37,1.54
21.228147983551025,0.24,-0.46,1.16,1.27
21.229301929473877,0.06,-0.32,1.02,1.07
21.34186601638794,-0.11,-0.17,0.92,0.94
21.34212613105774,-0.2,-0.03,0.85,0.87
21.342365026474,-0.17,0.27,0.78,0.84
21.342594861984253,-0.16,0.62,0.75,0.98
21.342813968658447,-0.29,0.94,0.75,1.23
21.343040943145752,-0.5,1.2,0.79,1.52
21.343271017074585,-0.75,1.32,0.95,1.79
21.34423804283142,-0.98,1.44,1.22,2.12
21.344465017318726,-1.19,1.69,1.57,2.59
21.34468698501587,-1.36,1.93,1.99,3.08
21.34490704536438,-1.43,2.11,2.46,3.54
21.459439039230347,-1.29,2.49,2.77,3.94
21.459686040878296,-0.87,3.01,2.91,4.27
21.459924936294556,-0.5,3.58,3.08,4.74
21.46015501022339,-0.35,4.23,3.35,5.4
21.460384130477905,-0.2,4.86,3.57,6.03
21.460609912872314,0.11,5.2,3.41,6.21
21.461553812026978,0.63,5.34,2.62,5.98
21.46178698539734,1.08,5.36,1.36,5.63
21.46201491355896,1.05,4.95,-0.1,5.06
21.46224093437195,0.52,4.08,-1.52,4.38
21.462465047836304,-0.2,2.88,-2.81,4.02
21.462687015533447,-0.84,1.49,-3.87,4.23
21.57662796974182,-1.03,0.0,-4.6,4.71
21.57687997817993,-0.81,-1.4,-4.98,5.23
21.577116012573242,-0.55,-2.62,-4.97,5.64
21.577337980270386,-0.33,-3.7,-4.49,5.82
21.578279972076416,-0.17,-4.49,-3.58,5.74
21.578510999679565,0.17,-4.88,-2.43,5.45
21.578754901885986,0.66,-4.83,-1.23,5.02
21.578977823257446,1.11,-4.46,-0.15,4.59
21.579198122024536,1.2,-3.85,0.67,4.08
21.579414129257202,1.05,-3.05,1.16,3.42
21.579631090164185,0.91,-2.11,1.42,2.7
21.579850912094116,0.79,-1.28,1.53,2.14
21.694270849227905,0.73,-0.6,1.36,1.65
21.694513082504272,0.61,0.11,0.92,1.1
21.69545292854309,0.43,0.59,0.39,0.82
21.695680856704712,0.12,0.83,-0.08,0.84
21.6959068775177,-0.12,0.79,-0.34,0.86
21.696129083633423,-0.21,0.53,-0.54,0.78
21.696347951889038,-0.37,0.13,-0.64,0.75
21.696565866470337,-0.53,-0.47,-0.65,0.96
21.69678282737732,-0.67,-1.08,-0.63,1.41
21.696998834609985,-0.62,-1.63,-0.56,1.83
21.69721484184265,-0.33,-2.0,-0.38,2.06
21.8123619556427,-0.24,-2.19,-0.02,2.2
21.813333988189697,-0.36,-2.23,0.5,2.31
21.81356978416443,-0.47,-2.18,1.11,2.49
21.813798904418945,-0.36,-1.96,1.74,2.64
21.814023971557617,-0.08,-1.75,2.31,2.89
21.81424880027771,0.14,-1.71,2.83,3.3
21.814467906951904,0.19,-1.78,3.15,3.62
21.814689874649048,0.23,-1.89,3.17,3.69
21.814908981323242,0.45,-1.95,2.97,3.58
21.815129041671753,0.82,-1.89,2.54,3.27
21.929369926452637,0.76,-1.69,2.05,2.76
21.930405855178833,0.49,-1.52,1.66,2.3
21.9306480884552,0.47,-1.32,1.41,1.98
21.930880784988403,0.72,-0.97,1.22,1.71
21.93111491203308,0.97,-0.58,1.04,1.53
21.931342840194702,1.05,-0.13,0.95,1.42
21.931558847427368,1.0,0.54,0.86,1.42
21.931782007217407,0.82,1.36,0.74,1.75
21.932008981704712,0.72,2.13,0.57,2.31
22.04733896255493,0.79,2.75,0.36,2.88
22.047623872756958,0.83,3.1,0.16,3.21
22.048624992370605,0.74,3.18,0.06,3.26
22.048854112625122,0.64,2.94,0.15,3.01
22.049076795578003,0.59,2.47,0.32,2.55
22.16535997390747,0.56,1.95,0.55,2.1
22.165684938430786,0.42,1.66,0.77,1.87
22.165944814682007,0.16,1.73,0.96,1.98
22.166738986968994,-0.19,2.07,1.32,2.46
22.16700005531311,-0.59,2.65,1.86,3.29
22.16724991798401,-0.97,3.39,2.31,4.21
22.16748881340027,-1.22,4.01,2.49,4.87
22.16845393180847,-1.22,4.4,2.24,5.08
22.16870093345642,-1.19,4.48,1.39,4.83
22.168925046920776,-1.3,4.07,-0.01,4.27
22.169148921966553,-1.35,3.13,-1.52,3.73
22.169370889663696,-1.25,1.72,-2.75,3.47
22.16960310935974,-1.06,-0.06,-3.56,3.71
22.16982102394104,-0.92,-2.07,-3.91,4.51
22.170037984848022,-1.03,-3.87,-3.93,5.61
22.170257806777954,-1.39,-5.06,-3.78,6.46
22.170478105545044,-1.7,-5.51,-3.37,6.67
22.17131495475769,-1.66,-5.24,-2.67,6.11
22.171540021896362,-1.41,-4.39,-1.73,4.92
22.171758890151978,-1.25,-3.31,-0.81,3.62
22.171984910964966,-1.21,-2.21,-0.01,2.51
22.172202825546265,-1.06,-1.22,0.67,1.74
22.17242193222046,-0.63,-0.42,1.18,1.4
22.172640085220337,-0.1,0.02,1.57,1.57
22.17855191230774,0.21,0.12,1.82,1.83
22.297130823135376,0.28,-0.02,1.91,1.93
22.297384023666382,0.33,-0.35,1.81,1.87
22.29836392402649,0.48,-0.71,1.5,1.72
22.298592805862427,0.7,-1.03,1.01,1.6
22.298821926116943,0.86,-1.34,0.54,1.68
22.299046993255615,0.95,-1.63,0.17,1.89
22.299267053604126,0.98,-1.94,-0.05,2.17
22.29948878288269,0.95,-2.3,-0.1,2.49
22.415242910385132,0.85,-2.6,0.0,2.73
22.415537118911743,0.75,-2.83,0.21,2.93
22.415748834609985,0.75,-2.94,0.5,3.07
22.415971994400024,0.82,-2.98,0.85,3.2
22.532505989074707,0.83,-2.93,1.21,3.27
22.53273296356201,0.76,-2.79,1.54,3.27
22.532961130142212,0.6,-2.57,1.8,3.19
22.53318500518799,0.45,-2.29,2.02,3.08
22.533411979675293,0.4,-1.81,2.16,2.84
22.53417992591858,0.31,-1.06,2.15,2.41
22.53441309928894,0.18,-0.15,2.05,2.06
22.534640073776245,0.06,0.79,1.83,1.99
22.53487491607666,0.02,1.75,1.48,2.29
22.53509783744812,-0.14,2.49,1.22,2.77
22.53606390953064,-0.6,2.89,1.03,3.12
22.536290884017944,-1.13,3.03,0.89,3.35
22.536515951156616,-1.45,3.15,0.74,3.54
22.536756992340088,-1.66,3.35,0.68,3.8
22.53697896003723,-1.93,3.5,0.59,4.04
22.537204027175903,-2.21,3.59,0.58,4.25
22.537433862686157,-2.39,3.52,0.91,4.35
22.537670850753784,-2.21,3.48,1.5,4.38
22.537890911102295,-1.49,3.7,2.14,4.52
22.538110971450806,-0.49,4.11,2.56,4.86
22.538946866989136,0.59,4.81,2.67,5.53
22.539171934127808,1.63,5.91,2.49,6.61
22.539392948150635,2.43,6.96,2.09,7.66
22.539611101150513,2.77,7.16,1.2,7.77
22.548167943954468,2.46,6.28,-0.28,6.75
22.666234970092773,1.65,4.47,-1.8,5.09
22.666497945785522,0.87,2.0,-2.85,3.58
22.66674304008484,0.72,-0.62,-3.49,3.61
22.666985988616943,0.97,-2.89,-3.85,4.91
22.667725801467896,1.44,-4.52,-4.05,6.23
22.668725967407227,1.95,-5.38,-4.07,7.02
22.66896390914917,2.25,-5.71,-3.89,7.26
22.669205904006958,2.1,-5.44,-3.59,6.84
22.669450044631958,1.62,-4.75,-3.18,5.94
22.669672966003418,1.1,-3.85,-2.72,4.84
22.669891119003296,0.66,-2.96,-2.21,3.75
22.67010807991028,0.15,-2.2,-1.75,2.81
22.678071975708008,-0.53,-1.5,-1.29,2.04
22.810009002685547,-1.17,-0.94,-0.74,1.67
22.810319900512695,-1.5,-0.66,-0.13,1.64
22.811445951461792,-1.45,-0.6,0.43,1.62
22.811688899993896,-1.09,-0.8,0.91,1.62
22.811919927597046,-0.61,-1.1,1.2,1.73
22.812145948410034,-0.45,-1.44,1.28,1.97
22.81236696243286,-0.52,-1.78,1.15,2.18
22.812588930130005,-0.54,-2.04,0.9,2.29
22.81280493736267,-0.44,-2.18,0.61,2.3
22.81302285194397,-0.18,-2.32,0.36,2.35
22.813239812850952,-0.05,-2.46,0.28,2.47
22.81345796585083,-0.04,-2.56,0.38,2.58
22.814321994781494,0.03,-2.67,0.67,2.75
22.943326950073242,-0.01,-2.72,1.11,2.93
22.943602800369263,-0.11,-2.72,1.58,3.14
22.94387698173523,-0.04,-2.67,1.96,3.31
22.944154024124146,0.22,-2.49,2.31,3.4
22.944418907165527,0.36,-2.31,2.5,3.42
22.94468903541565,0.31,-2.01,2.52,3.23
22.944949865341187,0.28,-1.68,2.4,2.94
22.945207834243774,0.45,-1.3,2.13,2.53
22.945474863052368,0.65,-0.87,1.69,2.0
22.94656801223755,0.68,-0.35,1.14,1.37
22.94680094718933,0.49,0.39,0.6,0.86
22.947026014328003,0.19,1.22,0.18,1.24
22.94727897644043,-0.06,2.03,-0.14,2.03
22.947757959365845,-0.21,2.68,-0.33,2.7
23.06758713722229,-0.25,3.03,-0.27,3.05
23.06783890724182,-0.07,3.25,-0.07,3.25
23.068553924560547,0.43,3.28,0.28,3.31
23.068787813186646,0.97,3.05,0.81,3.3
23.069013833999634,1.27,2.79,1.34,3.34
23.069979906082153,1.3,2.72,1.72,3.47
23.070204973220825,1.38,2.87,1.88,3.69
23.07043695449829,1.37,3.33,1.97,4.1
23.070663928985596,0.63,4.26,2.03,4.76
23.07088589668274,-0.54,5.2,1.9,5.56
23.071105003356934,-1.06,5.74,1.65,6.06
23.071332931518555,-1.55,5.97,1.03,6.25
23.077718019485474,-2.42,5.33,0.02,5.85
23.208619832992554,-3.13,3.84,-0.96,5.04
23.208914041519165,-3.18,1.93,-1.76,4.11
23.2100088596344,-2.8,-0.08,-2.4,3.68
23.210289001464844,-2.37,-1.99,-2.82,4.18
23.21056890487671,-2.05,-3.52,-3.08,5.1
23.21079182624817,-1.86,-4.37,-3.38,5.82
23.211010932922363,-1.72,-4.55,-3.72,6.12
23.21123194694519,-1.61,-3.96,-4.07,5.9
23.211452960968018,-1.48,-2.88,-4.24,5.33
23.211673974990845,-1.17,-1.87,-4.08,4.63
23.211894989013672,-0.71,-1.01,-3.68,3.88
23.212116956710815,-0.47,-0.16,-3.12,3.15
23.21297001838684,-0.36,0.45,-2.4,2.46
23.217479944229126,-0.06,0.68,-1.56,1.7
23.335742950439453,0.36,0.51,-0.64,0.89
23.33600401878357,0.73,0.02,0.3,0.78
23.336243867874146,0.84,-0.61,1.23,1.6
23.336477994918823,0.77,-1.21,2.02,2.47
23.336707830429077,0.55,-1.8,2.55,3.16
23.33695697784424,0.48,-2.35,2.8,3.68
23.33718705177307,0.59,-2.69,2.86,3.97
23.337430953979492,0.82,-2.88,2.81,4.1
23.338374853134155,1.14,-2.9,2.65,4.09
23.33860182762146,1.31,-2.94,2.47,4.05
23.33882212638855,1.19,-3.18,2.32,4.11
23.339042901992798,0.78,-3.38,2.12,4.06
23.347295999526978,0.44,-3.53,1.88,4.02
23.47607111930847,0.33,-3.62,1.6,3.97
23.47633194923401,0.29,-3.56,1.22,3.77
23.476567029953003,0.24,-3.41,0.77,3.5
23.476805925369263,0.17,-3.11,0.3,3.12
23.477035999298096,0.05,-2.56,-0.27,2.57
23.477983951568604,-0.07,-1.79,-0.8,1.96
23.478214025497437,-0.31,-0.98,-1.19,1.57
23.478440046310425,-0.65,-0.27,-1.39,1.55
23.47865891456604,-0.84,0.28,-1.27,1.54
23.478881120681763,-0.86,0.78,-0.91,1.47
23.479102849960327,-0.91,1.42,-0.51,1.76
23.479321002960205,-1.14,2.14,-0.15,2.42
23.479541063308716,-1.39,2.85,0.26,3.18
23.60258984565735,-1.62,3.49,0.67,3.9
23.60283899307251,-1.9,3.84,1.03,4.4
23.603786945343018,-2.05,3.98,1.53,4.73
23.604017972946167,-2.01,4.21,2.17,5.14
23.60424304008484,-1.72,4.49,3.05,5.69
23.604461908340454,-1.04,4.88,3.79,6.26
23.604681968688965,0.1,5.42,4.05,6.76
23.60489797592163,1.22,6.28,3.87,7.47
23.605111837387085,1.73,7.28,3.36,8.2
23.605334997177124,2.03,7.92,2.41,8.52
23.605549097061157,2.6,7.56,0.98,8.05
23.605763912200928,2.72,6.12,-0.73,6.73
23.607533931732178,2.08,3.81,-2.28,4.9
23.617085933685303,1.33,1.12,-3.4,3.81
23.73724389076233,0.92,-1.63,-4.07,4.47
23.73749279975891,0.79,-3.97,-4.31,5.91
23.737725019454956,0.87,-5.67,-4.24,7.13
23.73794913291931,1.08,-6.59,-4.07,7.82
23.738177061080933,1.3,-6.71,-3.9,7.86
23.73839497566223,1.28,-6.04,-3.72,7.2
23.73861598968506,0.85,-4.85,-3.53,6.05
23.738837957382202,0.3,-3.47,-3.24,4.75
23.739782094955444,-0.22,-2.24,-2.87,3.64
23.740008115768433,-0.71,-1.31,-2.43,2.85
23.74022603034973,-1.08,-0.67,-1.93,2.31
23.740447998046875,-1.24,-0.3,-1.33,1.84
23.747004985809326,-1.12,-0.12,-0.69,1.32
23.87962794303894,-0.68,-0.11,-0.08,0.69
23.8799409866333,-0.18,-0.28,0.46,0.56
23.880223035812378,0.04,-0.66,0.8,1.03
23.88051199913025,0.01,-1.02,0.91,1.36
23.88074803352356,0.04,-1.29,0.9,1.57
23.881677865982056,-0.04,-1.47,0.93,1.73
23.881906986236572,-0.2,-1.66,1.01,1.95
23.8821280002594,-0.55,-1.7,1.19,2.14
23.882356882095337,-0.72,-1.76,1.4,2.36
23.88257598876953,-0.7,-1.86,1.63,2.57
23.88279891014099,-0.48,-1.99,1.95,2.82
23.883015871047974,-0.15,-2.15,2.27,3.13
23.88323712348938,0.01,-2.4,2.47,3.44
24.014458894729614,0.04,-2.72,2.58,3.74
24.01476001739502,0.13,-3.02,2.61,3.99
24.015825033187866,0.42,-3.15,2.51,4.04
24.016061067581177,0.83,-3.2,2.33,4.04
24.01630997657776,0.74,-2.86,1.93,3.52
24.016541004180908,0.39,-2.31,1.3,2.67
24.016765832901,0.24,-1.5,0.5,1.59
24.016999006271362,0.42,-0.71,-0.22,0.85
24.017225980758667,0.53,-0.03,-0.83,0.98
24.017452001571655,0.32,0.76,-1.35,1.58
24.017682790756226,-0.02,1.59,-1.63,2.27
24.017907857894897,-0.24,2.27,-1.6,2.78
24.018770933151245,-0.24,2.79,-1.39,3.12
24.019017934799194,0.16,3.24,-1.02,3.4
24.149940013885498,0.88,3.44,-0.44,3.57
24.15023684501648,1.55,3.24,0.28,3.6
24.150513887405396,1.86,2.95,1.04,3.63
24.150733947753906,1.79,2.8,1.74,3.75
24.150956869125366,1.34,3.0,2.35,4.03
24.15117597579956,0.62,3.71,2.8,4.68
24.151399850845337,-0.29,4.73,3.08,5.65
24.151621103286743,-1.17,5.49,3.17,6.44
24.152558088302612,-1.63,5.64,3.02,6.6
24.15278196334839,-1.7,5.19,2.43,5.97
24.153008937835693,-2.42,4.12,1.35,4.96
24.283759832382202,-3.24,2.34,0.18,4.0
24.284092903137207,-3.41,0.35,-0.8,3.52
24.284372091293335,-2.88,-1.51,-1.56,3.6
24.28463912010193,-2.14,-3.14,-2.16,4.37
24.284908056259155,-1.62,-4.33,-2.67,5.33
24.285176038742065,-1.49,-4.94,-3.2,6.07
24.285457849502563,-1.53,-4.92,-3.78,6.39
24.286394834518433,-1.49,-4.23,-4.19,6.13
24.28662085533142,-1.21,-3.19,-4.24,5.44
24.418378114700317,-0.78,-2.11,-3.91,4.51
24.41868495941162,-0.47,-1.15,-3.4,3.61
24.418941974639893,-0.13,-0.4,-2.88,2.91
24.419183015823364,0.09,0.12,-2.4,2.4
24.41942811012268,0.19,0.41,-1.91,1.96
24.419673919677734,0.28,0.49,-1.27,1.38
24.419915914535522,0.37,0.32,-0.48,0.68
24.420153856277466,0.48,-0.09,0.35,0.6
24.552995920181274,0.63,-0.68,1.06,1.4
24.55326008796692,0.85,-1.19,1.62,2.18
24.553498029708862,1.01,-1.65,2.03,2.8
24.55373191833496,1.04,-2.04,2.26,3.21
24.55396008491516,0.94,-2.29,2.43,3.46
24.554688930511475,0.88,-2.54,2.64,3.76
24.554948091506958,0.85,-2.78,2.77,4.01
24.555177927017212,0.88,-2.92,2.8,4.14
24.55542492866516,0.84,-3.03,2.66,4.11
24.555689096450806,0.67,-3.04,2.34,3.89
24.556719064712524,0.6,-3.0,1.96,3.63
24.556966066360474,0.46,-2.83,1.57,3.26
24.557206869125366,0.23,-2.67,1.15,2.91
24.557443857192993,0.0,-2.36,0.64,2.44
24.557687044143677,-0.16,-1.96,0.16,1.97
24.557926893234253,-0.22,-1.48,-0.22,1.51
24.55816388130188,-0.1,-0.78,-0.49,0.92
24.55840301513672,0.06,0.0,-0.55,0.55
24.558643102645874,0.03,0.64,-0.5,0.81
24.558881044387817,-0.15,1.28,-0.48,1.37
24.559818029403687,-0.22,1.81,-0.45,1.87
24.56006097793579,-0.44,2.2,-0.22,2.25
24.560297966003418,-1.03,2.5,0.14,2.7
24.56054711341858,-1.62,2.73,0.56,3.22
24.560785055160522,-1.93,3.02,1.05,3.73
24.561017990112305,-1.9,3.54,1.67,4.35
24.56608295440674,-1.54,4.46,2.2,5.2
24.691241025924683,-0.69,5.37,2.5,5.96
24.69149088859558,0.21,6.13,2.37,6.57
24.69172191619873,0.87,6.94,1.98,7.26
24.692636966705322,1.42,7.73,1.51,8.0
24.692859888076782,2.04,8.15,0.91,8.45
24.693076848983765,2.74,7.76,0.03,8.22
24.693295001983643,3.01,6.27,-1.14,7.04
24.69351291656494,2.61,4.05,-2.29,5.33
24.69373393058777,2.03,1.54,-3.21,4.09
24.693951845169067,1.67,-0.95,-3.65,4.12
24.694169998168945,1.57,-3.17,-3.76,5.16
24.69438910484314,1.56,-4.9,-3.67,6.31
24.69594979286194,1.65,-5.94,-3.53,7.1
24.834636926651,1.81,-6.33,-3.47,7.44
24.83489990234375,1.79,-6.19,-3.46,7.31
24.83514094352722,1.34,-5.52,-3.33,6.58
24.835397005081177,0.65,-4.54,-3.02,5.49
24.835631132125854,-0.01,-3.44,-2.65,4.34
24.835859060287476,-0.66,-2.44,-2.26,3.39
24.83608603477478,-1.22,-1.64,-1.85,2.75
24.836315870285034,-1.56,-1.13,-1.29,2.31
24.836545944213867,-1.75,-0.79,-0.7,2.04
24.836771965026855,-1.58,-0.55,-0.03,1.67
24.837665796279907,-1.15,-0.45,0.62,1.38
24.96909213066101,-0.69,-0.41,1.02,1.29
24.96943211555481,-0.18,-0.39,1.29,1.35
24.96971106529236,0.12,-0.53,1.4,1.5
24.969954013824463,0.22,-0.7,1.4,1.58
24.970221996307373,0.14,-0.96,1.33,1.64
24.970486879348755,-0.03,-1.21,1.32,1.79
24.970750093460083,-0.11,-1.41,1.42,2.0
24.971017122268677,-0.24,-1.55,1.59,2.23
24.971282958984375,-0.29,-1.6,1.8,2.42
25.1035258769989,-0.29,-1.65,2.02,2.62
25.103802919387817,-0.08,-1.73,2.19,2.79
25.1040461063385,0.39,-1.82,2.33,2.98
25.10427689552307,0.82,-1.87,2.38,3.13
25.104512929916382,1.06,-2.02,2.3,3.23
25.10473895072937,0.92,-1.92,1.97,2.9
25.10544180870056,0.33,-1.66,1.38,2.18
25.10568594932556,-0.15,-1.53,0.74,1.7
25.10593581199646,-0.19,-1.27,0.17,1.29
25.106162786483765,0.1,-0.85,-0.34,0.92
25.10716199874878,0.4,-0.25,-0.85,0.97
25.107398986816406,0.3,0.41,-1.32,1.41
25.10762596130371,-0.12,1.15,-1.52,1.9
25.107858896255493,-0.33,1.84,-1.35,2.3
25.108086824417114,-0.04,2.42,-0.92,2.58
25.108311891555786,0.4,2.89,-0.34,2.93
25.10856795310974,0.58,3.26,0.13,3.31
25.108804941177368,0.84,3.41,0.54,3.55
25.10903811454773,0.87,3.43,0.95,3.66
25.109270811080933,0.28,3.5,1.38,3.77
25.1102077960968,-0.96,3.99,1.82,4.48
25.11563491821289,-2.38,4.94,2.01,5.84
25.242407083511353,-3.5,5.78,1.96,7.03
25.2426598072052,-3.77,6.22,1.56,7.43
25.24289107322693,-3.42,5.96,0.69,6.9
25.243118047714233,-3.4,4.69,-0.37,5.8
25.24334192276001,-3.53,2.37,-1.47,4.49
25.243565797805786,-3.43,-0.26,-2.46,4.22
25.243783950805664,-3.18,-2.48,-3.13,5.1
25.243999004364014,-2.85,-4.15,-3.56,6.16
25.244959115982056,-2.43,-5.1,-3.76,6.78
25.24518609046936,-2.05,-5.2,-3.8,6.75
25.245413064956665,-2.04,-4.49,-3.85,6.25
25.245630979537964,-2.06,-3.41,-3.71,5.44
25.245848894119263,-1.63,-2.27,-3.28,4.3
25.376749992370605,-1.51,-1.15,-2.74,3.33
25.376998901367188,-1.68,-0.42,-2.21,2.8
25.377206087112427,-1.68,0.13,-1.8,2.46
25.377429962158203,-1.16,0.51,-1.42,1.9
25.377654790878296,-0.37,0.57,-0.88,1.11
25.378586053848267,0.31,0.29,-0.2,0.46
25.378812074661255,0.82,-0.23,0.52,0.99
25.37903380393982,1.17,-0.83,1.19,1.86
25.379251956939697,1.54,-1.46,1.78,2.76
25.37947392463684,1.41,-1.84,2.23,3.21
25.379690885543823,1.06,-2.21,2.53,3.52
25.37990689277649,0.79,-2.4,2.7,3.69
25.38012385368347,0.71,-2.43,2.75,3.73
25.385283946990967,0.72,-2.44,2.71,3.71
25.518664121627808,0.69,-2.43,2.51,3.56
25.51957392692566,0.53,-2.43,2.16,3.29
25.51980710029602,0.18,-2.56,1.72,3.08
25.52003502845764,-0.18,-2.72,1.27,3.0
25.520256996154785,-0.37,-2.85,0.75,2.97
25.520528078079224,-0.39,-2.69,0.13,2.72
25.520795106887817,-0.34,-2.34,-0.56,2.42
25.521055936813354,-0.37,-1.98,-1.24,2.36
25.521321058273315,-0.41,-1.7,-1.79,2.5
25.521581888198853,-0.4,-1.39,-2.08,2.53
25.52183985710144,-0.38,-1.05,-2.13,2.4
25.656720876693726,-0.4,-0.61,-1.88,2.01
25.656983137130737,-0.55,-0.15,-1.31,1.42
25.657225847244263,-0.58,0.24,-0.56,0.84
25.6574649810791,-0.38,0.71,0.22,0.83
25.657695055007935,-0.17,1.32,1.0,1.66
25.657925844192505,-0.29,1.76,1.94,2.63
25.658155918121338,-0.83,2.05,2.88,3.63
25.658386945724487,-1.61,2.38,3.57,4.58
25.658613920211792,-2.01,2.93,4.11,5.43
25.65883708000183,-2.0,3.76,4.46,6.16
25.65978193283081,-1.63,4.7,4.49,6.7
25.660017013549805,-0.93,5.82,3.82,7.02
25.66024613380432,0.15,6.92,2.54,7.37
25.660497903823853,1.23,7.64,1.01,7.8
25.660737991333008,2.05,7.88,-0.64,8.16
25.660974979400635,2.38,7.3,-2.23,7.99
25.665167093276978,2.02,5.89,-3.72,7.25
25.79630994796753,1.08,3.82,-4.89,6.29
25.796569108963013,0.07,1.48,-5.5,5.69
25.79680609703064,-0.76,-0.71,-5.63,5.72
25.797777891159058,-1.21,-2.55,-5.36,6.05
25.798007011413574,-1.17,-3.87,-4.87,6.32
25.798231840133667,-0.8,-4.57,-4.4,6.39
25.79845094680786,-0.18,-4.76,-3.99,6.21
25.79867196083069,-0.02,-4.61,-3.52,5.8
25.79888892173767,-0.33,-4.2,-3.02,5.18
25.799104928970337,-0.63,-3.57,-2.63,4.47
25.79932188987732,-0.87,-2.83,-2.45,3.84
25.79954195022583,-1.06,-2.1,-2.39,3.35
25.799760103225708,-1.31,-1.49,-2.48,3.17
25.80531907081604,-1.57,-1.08,-2.56,3.19
25.93970513343811,-1.58,-0.83,-2.47,3.04
25.9399631023407,-1.25,-0.59,-2.21,2.6
25.94020390510559,-0.78,-0.43,-1.84,2.04
25.940932989120483,-0.43,-0.36,-1.43,1.53
25.9411780834198,-0.41,-0.25,-1.03,1.13
25.941428899765015,-0.55,-0.14,-0.67,0.87
25.941662073135376,-0.64,0.02,-0.38,0.74
25.941882848739624,-0.71,0.18,-0.12,0.74
25.942124128341675,-0.75,0.29,0.18,0.82
25.943135976791382,-0.88,0.32,0.42,1.02
25.943378925323486,-1.09,0.25,0.65,1.29
25.94362187385559,-1.29,0.15,0.82,1.53
25.943859815597534,-1.46,0.1,0.91,1.72
25.944788932800293,-1.5,0.09,0.96,1.78
25.954777002334595,-1.54,0.06,1.0,1.83
26.080410957336426,-1.55,-0.06,0.94,1.81
26.08066201210022,-1.43,-0.25,0.79,1.65
26.080893993377686,-1.33,-0.47,0.56,1.51
26.081121921539307,-1.23,-0.7,0.19,1.42
26.08207106590271,-1.15,-0.97,-0.22,1.52
26.08229899406433,-1.12,-1.24,-0.68,1.8
26.082520961761475,-1.16,-1.57,-1.12,2.25
26.082745790481567,-1.27,-1.74,-1.58,2.67
26.08296298980713,-1.32,-1.72,-2.08,3.0
26.083178997039795,-1.25,-1.64,-2.53,3.26
26.083401918411255,-1.09,-1.52,-2.86,3.41
26.083618879318237,-0.89,-1.33,-3.11,3.49
26.08463406562805,-0.66,-1.04,-3.23,3.45
26.2216899394989,-0.47,-0.79,-3.2,3.32
26.222676992416382,-0.28,-0.5,-3.03,3.08
26.222919940948486,0.01,-0.13,-2.68,2.68
26.2231547832489,0.24,0.19,-2.15,2.17
26.223387956619263,0.25,0.57,-1.54,1.66
26.223614931106567,0.11,1.02,-0.81,1.3
26.223840951919556,-0.01,1.41,-0.01,1.41
26.224096059799194,-0.09,1.84,0.68,1.96
26.35742998123169,-0.23,2.49,1.15,2.75
26.357753038406372,-0.57,3.28,1.38,3.6
26.358556985855103,-1.14,4.09,1.41,4.47
26.359715938568115,-1.64,4.55,1.37,5.02
26.359995126724243,-1.84,4.5,1.3,5.03
26.360270977020264,-2.01,3.85,1.14,4.49
26.360548973083496,-2.37,2.68,0.76,3.65
26.36081290245056,-2.65,1.39,0.12,2.99
26.361071825027466,-2.54,0.28,-0.6,2.62
26.36135506629944,-2.44,-0.48,-1.34,2.82
26.3615939617157,-2.36,-1.09,-2.12,3.35
26.361811876296997,-2.22,-1.48,-2.83,3.88
26.362029790878296,-2.0,-1.66,-3.44,4.31
26.36288285255432,-1.68,-1.7,-3.92,4.59
26.36310887336731,-1.43,-1.84,-4.15,4.75
26.363306999206543,-1.32,-2.11,-4.15,4.83
26.36352801322937,-1.34,-2.33,-4.01,4.82
26.36374592781067,-1.3,-2.37,-3.74,4.61
26.363982915878296,-1.15,-2.22,-3.34,4.17
26.364453077316284,-1.03,-1.87,-2.82,3.53
26.498520135879517,-0.97,-1.47,-2.19,2.81
26.49877691268921,-1.05,-1.07,-1.52,2.13
26.499010801315308,-1.17,-0.69,-0.87,1.61
26.49995994567871,-1.46,-0.33,-0.3,1.52
26.500190019607544,-1.85,0.03,0.19,1.85
26.500416040420532,-2.11,0.35,0.59,2.21
26.50063681602478,-2.25,0.65,0.83,2.48
26.500859022140503,-2.39,0.95,0.9,2.72
26.50107502937317,-2.4,1.14,0.89,2.8
26.5012948513031,-2.46,1.24,0.77,2.86
26.50151300430298,-2.63,1.22,0.55,2.95
26.501732110977173,-2.74,1.12,0.17,2.96
26.50195288658142,-2.67,0.9,-0.29,2.83
26.504606008529663,-2.38,0.65,-0.74,2.57
26.64207696914673,-2.05,0.39,-1.15,2.38
26.6423180103302,-1.74,0.1,-1.42,2.24
26.642546892166138,-1.53,-0.16,-1.57,2.19
26.642777919769287,-1.35,-0.28,-1.67,2.16
26.64299702644348,-1.15,-0.27,-1.74,2.1
26.643224954605103,-0.9,-0.23,-1.77,1.99
26.643449068069458,-0.75,-0.16,-1.76,1.91
26.643672943115234,-0.74,-0.04,-1.68,1.83
26.643893003463745,-0.79,0.0,-1.51,1.7
26.64483380317688,-0.97,0.03,-1.31,1.63
26.645061016082764,-1.08,0.09,-1.11,1.55
26.645278930664062,-1.1,0.07,-0.88,1.41
26.645501852035522,-1.17,0.05,-0.68,1.35
26.645718812942505,-1.24,0.0,-0.52,1.34
26.654101133346558,-1.27,-0.08,-0.41,1.33
26.7905490398407,-1.24,-0.12,-0.33,1.28
26.790807008743286,-1.16,-0.14,-0.28,1.2
26.791043996810913,-1.07,-0.16,-0.29,1.12
26.791300058364868,-0.97,-0.19,-0.28,1.02
26.92731785774231,-0.9,-0.2,-0.24,0.95
26.927590131759644,-0.82,-0.12,-0.13,0.83
26.927852869033813,-0.79,0.0,-0.02,0.79
26.928096055984497,-0.73,0.12,0.09,0.74
26.928343057632446,-0.56,0.24,0.2,0.64
26.92856192588806,-0.35,0.24,0.33,0.53
26.928799867630005,-0.21,0.12,0.51,0.56
26.929042100906372,-0.1,-0.02,0.7,0.7
26.929280042648315,0.02,-0.06,0.76,0.76
26.929517030715942,0.22,-0.04,0.78,0.81
26.93053412437439,0.27,-0.32,0.87,0.96
26.93078112602234,0.17,-0.6,0.95,1.13
26.931023836135864,0.21,-0.66,1.03,1.24
26.93124508857727,0.21,-0.67,1.09,1.29
26.93150496482849,0.22,-0.84,1.18,1.46
26.93173384666443,0.09,-0.92,1.26,1.56
26.931960821151733,-0.04,-0.89,1.46,1.71
26.93218493461609,-0.14,-0.85,1.6,1.81
26.932413816452026,-0.11,-0.61,1.63,1.74
26.9326388835907,-0.01,-0.18,1.62,1.63
26.933531045913696,0.17,0.06,1.64,1.64
26.93376398086548,0.41,-0.08,1.56,1.61
26.9339919090271,0.75,-0.16,1.38,1.57
26.934221029281616,1.08,-0.21,1.29,1.69
27.075509786605835,0.92,-0.22,1.21,1.53
27.075802087783813,0.23,0.02,0.99,1.01
27.076616048812866,-0.43,0.27,0.85,0.99
27.076852083206177,-0.54,0.34,0.88,1.08
27.07707905769348,-0.23,0.19,0.99,1.03
27.077315092086792,0.26,0.06,1.07,1.1
27.078247785568237,0.67,0.2,0.99,1.21
27.078475952148438,0.91,0.35,0.91,1.33
27.078701972961426,0.78,0.43,0.8,1.19
27.078922033309937,0.35,0.35,0.61,0.78
27.079137086868286,0.14,0.0,0.43,0.45
27.079355001449585,0.38,-0.3,0.25,0.54
27.07957696914673,0.91,-0.21,-0.08,0.93
27.079810857772827,1.3,-0.15,-0.3,1.34
27.083624124526978,1.34,-0.44,-0.31,1.44
27.215852975845337,1.15,-0.79,-0.43,1.45
27.216799020767212,0.76,-0.79,-0.8,1.35
27.217035055160522,0.35,-0.62,-1.01,1.23
27.217262029647827,0.09,-0.6,-1.06,1.22
27.21745491027832,0.31,-0.6,-1.02,1.22
27.217672109603882,0.78,-0.67,-0.9,1.36
27.217893838882446,1.12,-0.73,-0.72,1.51
27.218111991882324,1.23,-0.67,-0.41,1.45
27.218308925628662,1.23,-0.38,-0.08,1.28
27.218526124954224,1.08,0.06,0.14,1.09
27.218744039535522,0.62,0.29,0.31,0.75
27.21957278251648,0.4,0.54,0.24,0.71
27.219805002212524,0.52,0.64,-0.16,0.84
27.22340989112854,0.72,0.26,-0.59,0.96
27.358855962753296,0.94,-0.21,-0.94,1.34
27.359156847000122,1.16,-0.47,-1.3,1.8
27.359437942504883,1.05,-0.64,-1.47,1.91
27.359681844711304,0.67,-0.64,-1.57,1.82
27.360492944717407,0.48,-0.61,-1.48,1.67
27.36077380180359,0.58,-0.64,-1.15,1.43
27.361057996749878,0.66,-0.39,-0.84,1.13
27.362173795700073,0.7,-0.09,-0.44,0.83
27.362436056137085,0.52,0.08,0.16,0.54
27.36265778541565,0.22,-0.24,0.5,0.59
27.36288094520569,0.12,-0.14,0.63,0.65
27.363101959228516,0.17,0.37,0.81,0.9
27.363317012786865,0.47,0.01,1.12,1.21
27.363532781600952,1.73,-0.94,0.14,1.97
27.37331795692444,7.16,-1.28,-4.27,8.43
27.500415086746216,1.14,-0.24,-0.69,1.35
27.500688791275024,-4.29,0.17,2.06,4.76
27.501691102981567,-2.67,0.53,0.58,2.78
27.50192093849182,-0.39,0.54,-1.08,1.26
27.50214695930481,0.12,0.39,-1.28,1.34
27.50234580039978,0.68,0.39,-1.34,1.55
27.502586126327515,1.06,0.29,-1.49,1.85
27.502825021743774,0.56,0.19,-0.95,1.11
27.503044843673706,0.32,0.64,-0.58,0.92
27.50326180458069,0.38,1.03,-0.76,1.33
27.503477811813354,0.52,1.42,-0.99,1.8
27.503698110580444,0.29,1.49,-1.12,1.88
27.504565954208374,0.13,1.13,-1.45,1.84
27.635425806045532,-0.04,0.63,-1.87,1.97
27.635693788528442,-0.4,0.01,-1.98,2.02
27.63594889640808,-0.31,-0.71,-1.75,1.91
27.636189937591553,-0.16,-0.96,-1.18,1.52
27.63643479347229,0.0,-0.52,-0.85,0.99
27.636675119400024,0.13,-0.19,-1.17,1.19
27.636913061141968,-0.33,0.03,-0.89,0.94
27.637150049209595,-0.46,0.74,-1.71,1.91
27.63740086555481,-0.44,1.14,-1.51,1.94
27.638317823410034,-0.18,1.03,-0.55,1.18
27.63854479789734,-0.33,0.84,-0.93,1.29
27.638742923736572,-0.34,0.27,-0.93,1.02
27.638964891433716,0.09,-0.31,-0.92,0.97
27.643006086349487,0.24,-0.76,-1.44,1.64
27.77788496017456,-0.18,-1.17,-1.57,1.96
27.778155088424683,-0.26,-1.27,-1.5,1.98
27.77840781211853,-0.32,-1.42,-1.51,2.09
27.77864909172058,-0.52,-1.63,-0.95,1.95
27.77889084815979,-0.45,-0.07,-0.48,0.66
27.77990984916687,0.04,1.08,0.19,1.09
27.78015685081482,0.18,0.69,0.63,0.95
27.78040385246277,-0.04,-0.04,0.65,0.65
27.780622005462646,0.0,-0.04,-0.01,0.04
27.780865907669067,0.11,-0.44,-0.64,0.78
27.78110384941101,0.06,-0.76,-1.01,1.26
27.78131890296936,-0.02,-0.76,-1.13,1.36
27.78155493736267,-0.4,-0.38,-1.26,1.37
27.78288197517395,-0.74,-0.07,-1.34,1.53
27.792951822280884,-0.58,-0.03,-0.76,0.95
28.043303966522217,-0.01,-0.24,-0.44,0.5
28.043596982955933,0.23,-0.7,-0.22,0.76
28.043860912322998,0.03,-0.53,-0.33,0.62
28.044103860855103,0.1,-0.7,-0.19,0.73
28.04434895515442,0.5,-0.93,0.14,1.06
28.04497790336609,0.64,-1.2,0.2,1.37
28.04525113105774,0.48,-1.01,0.17,1.13
28.045493841171265,0.31,-0.76,0.02,0.82
28.04571795463562,0.03,-0.46,0.04,0.46
28.04593586921692,-0.39,0.06,0.26,0.47
28.04691195487976,-0.75,0.76,0.86,1.37
28.047147035598755,-0.89,0.99,0.95,1.63
28.04737091064453,-0.71,1.08,0.67,1.45
28.047588109970093,-0.6,0.72,0.6,1.11
28.04780888557434,-0.45,0.28,0.54,0.75
28.048016786575317,-0.1,0.22,0.54,0.59
28.048232793807983,0.09,0.15,0.66,0.68
28.048453092575073,0.18,-0.08,0.57,0.6
28.048672914505005,0.15,-0.24,0.19,0.34
28.04888892173767,0.13,-0.41,0.0,0.43
28.04975390434265,0.16,-0.56,-0.12,0.59
28.049978971481323,0.13,-0.69,-0.13,0.71
28.050196886062622,0.12,-0.61,0.01,0.62
28.05041790008545,-0.01,-0.67,0.21,0.7
28.05063509941101,-0.14,-0.78,0.05,0.79
28.052675008773804,-0.66,-0.82,-0.18,1.06
28.19338893890381,-0.64,-0.88,-0.35,1.14
28.19363808631897,-0.24,-0.91,-0.46,1.04
28.19387698173523,0.23,-0.88,-1.2,1.5
28.19410991668701,0.25,-0.92,-1.09,1.44
28.31995987892151,-0.37,-1.14,-0.44,1.27
28.3202121257782,-0.73,-0.56,-0.06,0.92
28.32044291496277,-0.79,0.07,0.04,0.79
28.320650815963745,-0.87,0.39,0.04,0.95
28.3208749294281,-0.78,0.34,0.06,0.85
28.321099996566772,-0.56,0.23,0.02,0.6
28.32131791114807,-0.5,0.26,-0.2,0.59
28.321537017822266,-0.52,0.1,-0.13,0.54
28.32176184654236,-0.34,-0.25,0.11,0.43
28.32197403907776,-0.14,-0.63,0.11,0.65
28.322903871536255,-0.03,-0.82,0.12,0.82
28.32313084602356,0.07,-0.67,0.14,0.68
28.323354959487915,0.17,-0.21,0.11,0.29
28.32357382774353,0.14,0.12,0.06,0.19
28.323798894882202,0.06,-0.01,-0.07,0.09
28.324015855789185,-0.02,-0.36,-0.1,0.37
28.324212789535522,0.24,-0.55,-0.1,0.6
28.324434995651245,0.51,-0.69,-0.07,0.86
28.324656009674072,0.63,-0.72,0.03,0.95
28.32487201690674,0.66,-0.62,0.16,0.91
28.325730085372925,0.62,-0.45,0.23,0.79
28.3259539604187,0.55,-0.24,0.27,0.65
28.326170921325684,0.5,-0.05,0.31,0.59
28.450304985046387,0.4,0.13,0.27,0.49
28.450549840927124,0.26,0.2,0.22,0.39
28.45077681541443,0.22,0.27,0.08,0.35
28.45100498199463,0.19,0.36,-0.01,0.4
28.45122790336609,0.23,0.4,-0.05,0.46
28.4514479637146,0.25,0.3,-0.08,0.39
28.451666116714478,0.32,0.18,-0.1,0.38
28.45260190963745,0.39,0.16,-0.16,0.45
28.452829122543335,0.42,0.19,-0.19,0.49
28.45302987098694,0.45,0.23,-0.19,0.53
28.453248977661133,0.53,0.21,-0.11,0.58
28.453471899032593,0.64,0.12,0.01,0.65
28.453691959381104,0.71,-0.06,0.12,0.72
28.583393812179565,0.74,-0.17,0.19,0.78
28.58365797996521,0.71,-0.16,0.2,0.75
28.583948850631714,0.66,-0.14,0.16,0.69
28.584177017211914,0.61,-0.11,0.1,0.62
28.585132837295532,0.64,-0.05,0.02,0.64
28.585361003875732,0.69,0.02,-0.07,0.69
28.585581064224243,0.67,0.04,-0.12,0.68
28.58578085899353,0.65,0.11,-0.12,0.67
28.585977792739868,0.65,0.2,-0.09,0.68
28.586193799972534,0.67,0.22,0.0,0.7
28.586407899856567,0.68,0.2,0.12,0.71
28.586621046066284,0.69,0.19,0.14,0.72
28.586833953857422,0.64,0.2,0.03,0.67
28.592180967330933,0.58,0.25,-0.06,0.63
28.72595500946045,0.52,0.27,-0.12,0.59
28.726226091384888,0.47,0.26,-0.2,0.57
28.72648310661316,0.49,0.3,-0.26,0.63
28.726716995239258,0.47,0.33,-0.28,0.63
28.72693705558777,0.42,0.32,-0.28,0.59
28.727191925048828,0.44,0.29,-0.21,0.56
28.72743582725525,0.49,0.22,-0.12,0.55
28.727674961090088,0.51,0.11,-0.04,0.52
28.727914094924927,0.53,0.02,0.02,0.53
28.72815203666687,0.5,-0.01,0.03,0.5
28.72908902168274,0.4,0.02,-0.01,0.4
28.85965085029602,0.32,0.14,-0.08,0.35
28.859966039657593,0.29,0.29,-0.09,0.41
28.860230922698975,0.3,0.4,-0.1,0.5
28.860481023788452,0.32,0.43,-0.07,0.54
28.860724925994873,0.35,0.44,-0.04,0.56
28.860965967178345,0.37,0.43,-0.08,0.57
28.86120295524597,0.35,0.49,-0.1,0.61
28.86146593093872,0.39,0.59,-0.05,0.7
28.861683130264282,0.51,0.61,-0.05,0.79
28.862676858901978,0.51,0.48,-0.09,0.7
28.86292004585266,0.38,0.35,-0.2,0.55
28.992998838424683,0.44,0.24,-0.41,0.64
28.99329400062561,0.63,0.17,-0.64,0.91
28.99354386329651,0.6,0.25,-0.99,1.18
28.993776082992554,0.18,0.55,-0.73,0.93
28.99401092529297,-0.11,0.68,-0.27,0.73
28.99423909187317,0.1,0.99,-0.09,0.99
28.99446988105774,0.34,1.31,-0.23,1.37
28.99469494819641,0.33,0.92,-0.41,1.05
28.995620012283325,0.28,0.25,-0.41,0.55
28.99585509300232,0.53,-0.13,-0.51,0.74
28.996082067489624,0.77,-0.04,-0.63,0.99
28.996312856674194,0.82,0.29,-0.74,1.14
28.99653697013855,0.9,0.66,-0.8,1.37
