time,ax,ay,az,atotal
0.00420379638671875,-0.02,0.11,-0.05,0.12
0.011345863342285156,-0.06,0.02,-0.03,0.06
0.022360801696777344,-0.06,-0.03,0.03,0.07
0.03133583068847656,-0.09,-0.07,0.03,0.11
0.08870983123779297,-0.13,-0.09,0.03,0.16
0.08912086486816406,-0.13,-0.14,0.02,0.19
0.08956098556518555,-0.08,-0.15,0.01,0.17
0.08995389938354492,-0.08,-0.13,-0.06,0.16
0.09038376808166504,-0.1,-0.05,-0.11,0.15
0.09120583534240723,-0.11,0.06,-0.08,0.14
0.1011209487915039,-0.14,0.09,-0.05,0.17
0.11133098602294922,-0.17,0.11,-0.04,0.2
0.12218189239501953,-0.19,0.12,-0.02,0.22
0.13118481636047363,-0.19,0.09,-0.04,0.21
0.1897118091583252,-0.21,0.04,-0.04,0.21
0.19016265869140625,-0.2,0.05,0.02,0.2
0.19062089920043945,-0.18,0.06,0.04,0.19
0.1910548210144043,-0.16,0.03,-0.01,0.16
0.1914827823638916,-0.12,0.02,-0.12,0.17
0.1919116973876953,-0.07,0.01,-0.02,0.07
0.2010488510131836,-0.05,0.02,-0.05,0.07
0.2111659049987793,-0.03,-0.02,-0.07,0.07
0.22214889526367188,-0.02,-0.04,-0.09,0.1
0.2311558723449707,-0.05,-0.05,-0.05,0.08
0.2891998291015625,-0.03,-0.02,0.01,0.03
0.28964996337890625,0.01,0.01,0.02,0.02
0.29004478454589844,0.01,0.03,-0.01,0.03
0.2904667854309082,0.03,0.03,-0.03,0.05
0.29085278511047363,0.03,0.0,-0.07,0.07
0.29122400283813477,0.02,-0.01,-0.07,0.07
0.3013458251953125,0.01,0.0,-0.03,0.03
0.3111276626586914,-0.02,0.01,-0.03,0.03
0.3220219612121582,-0.03,0.01,-0.01,0.03
0.33091282844543457,-0.03,0.04,-0.01,0.05
0.3892507553100586,-0.06,0.02,-0.06,0.08
0.38970375061035156,-0.07,-0.01,-0.07,0.09
0.39010000228881836,-0.06,-0.01,-0.05,0.07
0.39055967330932617,-0.05,-0.02,-0.03,0.06
0.39099979400634766,-0.04,0.0,0.0,0.04
0.39142584800720215,-0.05,0.01,0.02,0.05
0.4012918472290039,-0.04,0.0,0.02,0.04
0.4109988212585449,-0.02,-0.02,-0.03,0.04
0.421875,-0.04,-0.02,-0.06,0.07
0.43089985847473145,-0.02,-0.03,-0.03,0.04
0.4890007972717285,0.0,0.0,0.0,0.0
0.48940587043762207,0.03,0.0,0.01,0.03
0.4897909164428711,0.03,-0.01,-0.01,0.03
0.4901847839355469,0.0,-0.01,-0.07,0.07
0.4906148910522461,-0.03,0.01,-0.04,0.05
0.4910438060760498,-0.05,0.03,-0.06,0.08
0.5006887912750244,-0.04,0.04,-0.06,0.08
0.5107207298278809,-0.04,0.0,-0.09,0.09
0.5217018127441406,-0.03,-0.04,-0.08,0.09
0.5307278633117676,-0.02,-0.04,-0.01,0.04
0.5886938571929932,-0.01,-0.04,0.01,0.04
0.5890657901763916,-0.01,-0.04,0.04,0.05
0.5895109176635742,-0.02,-0.02,-0.01,0.03
0.5898618698120117,-0.06,-0.02,-0.01,0.06
0.5902528762817383,-0.06,-0.01,-0.14,0.15
0.5906896591186523,-0.05,0.01,-0.13,0.13
0.6007137298583984,0.01,0.03,-0.07,0.07
0.6107139587402344,0.02,0.06,-0.13,0.14
0.6217467784881592,-0.03,0.0,-0.05,0.05
0.6307506561279297,0.01,-0.01,0.04,0.04
0.6882057189941406,0.03,0.01,0.1,0.1
0.6886558532714844,-0.01,0.02,0.04,0.04
0.6890988349914551,-0.06,-0.05,0.02,0.08
0.6895346641540527,-0.07,-0.06,0.01,0.09
0.6899678707122803,-0.05,-0.09,-0.01,0.1
0.6905088424682617,-0.01,-0.1,-0.02,0.1
0.7005987167358398,-0.01,-0.09,-0.07,0.11
0.7105627059936523,0.03,-0.07,-0.09,0.11
0.7215068340301514,0.03,-0.03,-0.07,0.08
0.7305669784545898,0.01,0.01,-0.07,0.07
0.7881627082824707,-0.04,0.09,-0.1,0.14
0.7885956764221191,-0.06,0.1,-0.08,0.14
0.7890348434448242,-0.07,0.07,-0.07,0.12
0.7894697189331055,-0.06,0.05,-0.08,0.11
0.7898979187011719,-0.04,0.04,-0.06,0.08
0.7903268337249756,-0.02,0.01,-0.03,0.03
0.8004097938537598,0.01,0.0,-0.02,0.02
0.8103978633880615,-0.01,-0.03,-0.05,0.05
0.8214106559753418,0.0,-0.03,-0.09,0.09
0.8304996490478516,0.02,-0.01,0.01,0.02
0.8877158164978027,0.0,0.0,-0.04,0.04
0.8881239891052246,0.0,-0.01,-0.06,0.06
0.8885178565979004,0.0,0.0,-0.1,0.1
0.8889069557189941,0.0,0.03,-0.02,0.03
0.8892917633056641,0.0,0.05,0.0,0.05
0.8902029991149902,-0.02,0.02,0.0,0.02
0.9003987312316895,-0.04,-0.02,-0.03,0.05
0.9102728366851807,-0.07,-0.02,-0.01,0.07
0.9215347766876221,-0.1,0.01,-0.02,0.1
0.9302077293395996,-0.1,0.09,0.01,0.13
0.9878487586975098,-0.11,0.12,-0.08,0.18
0.9882969856262207,-0.05,0.02,-0.09,0.1
0.9887356758117676,-0.02,-0.02,-0.08,0.08
0.9891767501831055,0.01,-0.09,-0.07,0.11
0.9895548820495605,0.02,-0.09,-0.06,0.11
0.9900417327880859,0.02,-0.09,-0.02,0.09
1.0001678466796875,0.0,-0.09,-0.03,0.09
1.0101289749145508,-0.04,-0.08,-0.03,0.09
1.0213158130645752,-0.07,-0.02,0.0,0.07
1.030240774154663,-0.05,0.01,0.01,0.05
1.0876967906951904,-0.04,0.04,0.01,0.05
1.0881178379058838,-0.01,0.04,-0.02,0.04
1.0885686874389648,0.0,0.01,-0.05,0.05
1.0890159606933594,-0.01,-0.02,-0.07,0.07
1.0894179344177246,-0.01,0.0,-0.05,0.05
1.09002685546875,-0.02,0.02,-0.02,0.03
1.1001458168029785,-0.03,-0.01,0.0,0.03
1.110076904296875,-0.04,-0.01,-0.02,0.04
1.1210308074951172,-0.05,-0.01,-0.06,0.07
1.1301426887512207,-0.06,0.0,-0.07,0.09
1.1879358291625977,-0.07,-0.01,-0.05,0.08
1.1883697509765625,-0.06,0.0,-0.06,0.08
1.1888058185577393,-0.03,-0.01,-0.09,0.09
1.1892387866973877,-0.05,-0.02,-0.04,0.06
1.1896719932556152,-0.06,-0.04,-0.01,0.07
1.1900639533996582,-0.02,-0.04,0.03,0.05
1.1999537944793701,0.01,-0.05,0.02,0.05
1.2099719047546387,0.02,-0.06,0.02,0.06
1.2208518981933594,0.0,-0.05,0.02,0.05
1.2300057411193848,-0.04,-0.06,-0.17,0.18
1.2876429557800293,-0.06,-0.04,-0.18,0.19
1.2881059646606445,-0.02,0.02,0.0,0.02
1.288550853729248,-0.07,-0.02,-0.04,0.08
1.2889976501464844,0.0,-0.09,0.07,0.11
1.2894377708435059,0.15,-0.01,0.19,0.24
1.2898738384246826,0.18,0.02,0.22,0.28
1.2998247146606445,0.16,0.0,0.24,0.28
1.3098578453063965,0.14,0.0,0.22,0.26
1.3210129737854004,0.13,0.02,0.23,0.26
1.3299307823181152,0.16,0.11,0.33,0.38
1.3879108428955078,0.21,0.19,0.41,0.49
1.388345718383789,0.32,0.2,0.46,0.59
1.3887717723846436,0.36,0.05,0.39,0.53
1.3892059326171875,0.49,-0.04,0.28,0.56
1.3896207809448242,0.51,-0.16,0.19,0.56
1.3900489807128906,0.53,-0.39,0.07,0.66
1.399845838546753,0.59,-0.55,-0.02,0.8
1.409855842590332,0.66,-0.68,-0.07,0.95
1.4210429191589355,0.73,-0.76,-0.12,1.06
1.430539846420288,0.82,-0.78,-0.13,1.13
1.488250732421875,0.89,-0.76,-0.04,1.17
1.4887099266052246,0.93,-0.71,0.02,1.17
1.489147663116455,0.94,-0.66,0.02,1.14
1.4896087646484375,0.97,-0.56,0.07,1.12
1.4900469779968262,1.01,-0.39,0.2,1.1
1.4904699325561523,1.05,-0.27,0.21,1.1
1.4996898174285889,1.07,-0.15,0.22,1.1
1.5097227096557617,1.05,-0.04,0.18,1.06
1.5211739540100098,1.07,0.03,0.21,1.09
1.5297799110412598,1.11,0.09,0.24,1.13
1.5877456665039062,1.16,0.05,0.19,1.17
1.5882019996643066,1.2,0.01,0.22,1.22
1.5886449813842773,1.23,-0.02,0.33,1.27
1.5891227722167969,1.22,-0.03,0.43,1.29
1.58955979347229,1.16,-0.05,0.42,1.23
1.589953899383545,1.08,-0.08,0.42,1.16
1.5996036529541016,1.0,-0.11,0.39,1.07
1.609632968902588,0.96,-0.12,0.42,1.05
1.6215019226074219,0.93,-0.08,0.43,1.02
1.6296608448028564,0.91,-0.07,0.38,0.98
1.6880297660827637,0.91,-0.08,0.32,0.96
1.6884827613830566,0.89,-0.11,0.27,0.93
1.6889357566833496,0.9,-0.14,0.23,0.93
1.6892828941345215,0.92,-0.14,0.23,0.95
1.6897118091583252,0.89,-0.11,0.27,0.93
1.6901378631591797,0.85,-0.07,0.35,0.92
1.69952392578125,0.8,-0.01,0.43,0.9
1.7094297409057617,0.72,0.04,0.46,0.85
1.7210378646850586,0.66,0.05,0.47,0.81
1.7296109199523926,0.63,0.02,0.49,0.79
1.7876238822937012,0.6,-0.1,0.48,0.77
1.7880749702453613,0.59,-0.29,0.37,0.75
1.788510799407959,0.57,-0.44,0.27,0.76
1.7889277935028076,0.57,-0.55,0.18,0.81
1.7893567085266113,0.55,-0.66,0.06,0.86
1.7897839546203613,0.53,-0.75,-0.1,0.92
1.7993998527526855,0.5,-0.81,-0.29,0.99
1.8093247413635254,0.45,-0.83,-0.5,1.06
1.8210878372192383,0.44,-0.78,-0.64,1.1
1.8294286727905273,0.46,-0.68,-0.7,1.07
1.8876557350158691,0.5,-0.52,-0.72,1.01
1.888108730316162,0.51,-0.34,-0.71,0.93
1.8885807991027832,0.47,-0.1,-0.67,0.82
1.889023780822754,0.42,0.13,-0.53,0.68
1.8894577026367188,0.3,0.37,-0.54,0.72
1.8898849487304688,0.13,0.6,-0.62,0.87
1.899263858795166,0.05,0.86,-0.44,0.96
1.909153938293457,-0.03,1.16,-0.2,1.17
1.9709186553955078,-0.04,1.3,0.11,1.3
1.9713678359985352,0.06,1.29,0.22,1.31
1.9717988967895508,0.11,1.14,0.09,1.14
1.972228765487671,0.13,0.88,-0.07,0.89
1.9726588726043701,0.17,0.51,-0.24,0.58
1.9730887413024902,0.23,0.11,-0.25,0.35
1.9790937900543213,0.3,-0.25,-0.25,0.46
1.9890179634094238,0.27,-0.61,-0.27,0.71
1.999283790588379,0.18,-0.87,-0.25,0.92
2.0091757774353027,0.05,-0.98,-0.24,1.01
2.0722968578338623,-0.12,-0.92,-0.19,0.94
2.072744846343994,-0.26,-0.69,-0.11,0.74
2.0731797218322754,-0.34,-0.38,-0.02,0.51
2.073617935180664,-0.37,-0.02,0.03,0.37
2.0740537643432617,-0.36,0.3,0.04,0.47
2.074403762817383,-0.36,0.54,0.04,0.65
2.0790598392486572,-0.34,0.67,0.03,0.75
2.0888466835021973,-0.3,0.67,0.04,0.73
2.099015712738037,-0.29,0.58,0.05,0.65
2.1089978218078613,-0.29,0.4,0.08,0.5
2.1718029975891113,-0.31,0.14,0.08,0.34
2.172743797302246,-0.31,-0.08,0.18,0.36
2.173153877258301,-0.3,-0.29,0.18,0.45
2.173588752746582,-0.28,-0.4,0.28,0.56
2.1740269660949707,-0.23,-0.44,0.38,0.62
2.1744608879089355,-0.22,-0.45,0.51,0.71
2.178889751434326,-0.17,-0.42,0.71,0.84
2.1899898052215576,-0.13,-0.4,0.74,0.85
2.1990199089050293,-0.14,-0.45,0.7,0.84
2.2090187072753906,-0.13,-0.47,0.66,0.82
2.2201457023620605,-0.12,-0.45,0.62,0.77
2.272108793258667,-0.11,-0.4,0.62,0.74
2.2725276947021484,-0.11,-0.34,0.69,0.77
2.272932767868042,-0.13,-0.34,0.72,0.8
2.273375988006592,-0.19,-0.38,0.73,0.84
2.2738208770751953,-0.25,-0.41,0.8,0.93
2.2786967754364014,-0.25,-0.42,0.85,0.98
2.288693904876709,-0.24,-0.48,0.86,1.01
2.2989277839660645,-0.21,-0.5,0.85,1.0
2.308851718902588,-0.15,-0.52,0.92,1.06
2.3201889991760254,-0.08,-0.51,1.02,1.14
2.372196674346924,-0.08,-0.5,0.97,1.09
2.372663974761963,-0.1,-0.48,0.93,1.05
2.3731188774108887,-0.16,-0.42,0.98,1.07
2.373560905456543,-0.2,-0.39,0.95,1.04
2.373997688293457,-0.24,-0.41,0.92,1.03
2.378673791885376,-0.28,-0.45,0.93,1.07
2.388528823852539,-0.33,-0.47,0.96,1.11
2.398749828338623,-0.39,-0.46,0.96,1.13
2.408728837966919,-0.38,-0.42,0.98,1.13
2.4200098514556885,-0.36,-0.37,0.98,1.1
2.4721527099609375,-0.32,-0.31,0.97,1.06
2.4726037979125977,-0.28,-0.22,1.02,1.08
2.4730257987976074,-0.24,-0.16,1.05,1.08
2.4734597206115723,-0.2,-0.1,1.09,1.11
2.4738547801971436,-0.2,-0.01,1.21,1.22
2.478578805923462,-0.18,0.1,1.33,1.34
2.4884748458862305,-0.18,0.18,1.42,1.44
2.4987478256225586,-0.22,0.28,1.47,1.51
2.5085878372192383,-0.21,0.38,1.56,1.61
2.520042896270752,-0.23,0.53,1.65,1.74
2.5722646713256836,-0.25,0.69,1.53,1.69
2.572713851928711,-0.29,0.9,1.49,1.76
2.5731449127197266,-0.33,1.19,1.54,1.97
2.5735747814178467,-0.36,1.34,1.58,2.1
2.5740058422088623,-0.24,1.41,1.41,2.0
2.578467845916748,-0.06,1.48,1.11,1.85
2.5886027812957764,0.06,1.54,0.86,1.76
2.5986876487731934,0.13,1.63,0.76,1.8
2.6084578037261963,0.16,1.75,0.68,1.88
2.6198859214782715,0.15,1.87,0.58,1.96
2.6726958751678467,0.13,1.95,0.33,1.98
2.6731419563293457,0.11,1.89,0.12,1.89
2.673569679260254,0.16,1.76,0.02,1.76
2.6740007400512695,0.26,1.49,-0.15,1.51
2.6744346618652344,0.42,1.09,-0.36,1.22
2.6783289909362793,0.54,0.59,-0.62,1.01
2.6889166831970215,0.66,0.0,-0.95,1.15
2.6984949111938477,0.76,-0.6,-1.33,1.64
2.708279848098755,0.85,-1.11,-1.56,2.09
2.7196249961853027,1.04,-1.35,-1.38,2.19
2.7727389335632324,1.25,-1.35,-0.97,2.07
2.7731919288635254,1.38,-1.28,-0.69,2.0
2.7736318111419678,1.42,-1.11,-0.47,1.86
2.7740678787231445,1.39,-0.88,-0.25,1.66
2.77449893951416,1.34,-0.61,-0.15,1.47
2.7782387733459473,1.2,-0.43,-0.04,1.27
2.7888338565826416,0.98,-0.25,-0.03,1.01
2.798409938812256,0.78,-0.14,-0.1,0.79
2.808173656463623,0.62,-0.07,-0.03,0.62
2.819708824157715,0.48,-0.07,0.03,0.48
2.8729429244995117,0.33,-0.27,-0.02,0.42
2.8734068870544434,0.25,-0.54,0.0,0.59
2.8738536834716797,0.24,-0.85,0.03,0.88
2.8743019104003906,0.29,-1.19,0.04,1.22
2.8747429847717285,0.35,-1.58,0.02,1.61
2.8781228065490723,0.42,-1.85,0.0,1.89
2.888105869293213,0.45,-2.02,-0.08,2.07
2.898319721221924,0.46,-2.11,-0.09,2.16
2.908005714416504,0.45,-2.06,-0.03,2.1
2.919456958770752,0.42,-1.94,0.1,1.98
2.9732308387756348,0.37,-1.76,0.22,1.81
2.973635673522949,0.37,-1.6,0.36,1.68
2.9740707874298096,0.41,-1.47,0.48,1.59
2.9744997024536133,0.47,-1.39,0.61,1.58
2.9749338626861572,0.54,-1.38,0.67,1.62
2.9779129028320312,0.6,-1.44,0.67,1.69
2.9879648685455322,0.65,-1.54,0.59,1.77
2.9981908798217773,0.64,-1.68,0.49,1.86
3.008115768432617,0.65,-1.8,0.43,1.96
3.019270896911621,0.68,-1.86,0.45,2.03
3.0731008052825928,0.74,-1.83,0.42,2.01
3.073568820953369,0.83,-1.71,0.48,1.96
3.0740108489990234,0.94,-1.46,0.7,1.87
3.074464797973633,0.99,-1.12,1.04,1.82
3.074906826019287,0.98,-0.7,1.3,1.77
3.077910900115967,0.92,-0.23,1.53,1.8
3.087883949279785,0.86,0.29,1.68,1.9
3.097963809967041,0.81,0.78,1.61,1.96
3.107914924621582,0.79,1.18,1.5,2.06
3.1192758083343506,0.86,1.53,1.61,2.38
3.1734519004821777,0.97,1.73,1.8,2.67
3.173898696899414,1.03,1.66,1.92,2.73
3.1742897033691406,1.09,1.48,1.92,2.65
3.174675941467285,1.09,1.41,2.04,2.7
3.1751058101654053,0.95,1.47,2.03,2.68
3.1778759956359863,0.8,1.71,2.28,2.96
3.1878418922424316,0.77,2.12,2.34,3.25
3.1979057788848877,0.55,2.41,2.05,3.21
3.207746982574463,0.24,2.48,1.55,2.93
3.219188690185547,0.06,2.52,0.94,2.69
3.2735397815704346,0.04,2.55,0.75,2.65
3.273995876312256,0.01,2.5,0.56,2.56
3.274430751800537,-0.2,2.11,-0.1,2.12
3.274868965148926,-0.49,1.53,-0.9,1.84
3.275315761566162,-0.71,0.92,-1.48,1.88
3.2776758670806885,-0.86,0.36,-1.83,2.05
3.2876176834106445,-0.94,-0.26,-2.11,2.32
3.297785758972168,-0.96,-0.85,-2.2,2.54
3.307642936706543,-0.93,-1.29,-2.08,2.61
3.31906795501709,-0.9,-1.54,-1.95,2.64
3.374459743499756,-0.88,-1.52,-1.78,2.5
3.374917984008789,-0.83,-1.19,-1.35,1.98
3.375372886657715,-0.73,-0.65,-0.81,1.26
3.3758058547973633,-0.61,-0.01,-0.34,0.69
3.376239776611328,-0.48,0.59,-0.15,0.77
3.37748384475708,-0.39,1.22,-0.13,1.28
3.387540817260742,-0.31,1.82,-0.16,1.85
3.397718906402588,-0.23,2.15,-0.21,2.17
3.40744686126709,-0.16,2.14,-0.26,2.16
3.4189577102661133,-0.12,1.78,-0.04,1.78
3.475146770477295,-0.06,1.15,0.23,1.17
3.475602865219116,-0.03,0.37,0.38,0.53
3.476055860519409,-0.06,-0.47,0.42,0.63
3.4764997959136963,-0.11,-1.28,0.35,1.33
3.476958751678467,-0.16,-1.91,0.17,1.92
3.477402687072754,-0.21,-2.32,0.12,2.33
3.4873929023742676,-0.21,-2.56,0.07,2.56
3.4977338314056396,-0.2,-2.72,-0.1,2.72
3.507302761077881,-0.2,-2.82,-0.24,2.83
3.518725872039795,-0.13,-2.76,-0.24,2.77
3.574652671813965,-0.13,-2.72,-0.24,2.73
3.57511568069458,-0.11,-2.68,-0.25,2.69
3.5755558013916016,-0.13,-2.66,-0.23,2.67
3.5759949684143066,-0.16,-2.64,-0.27,2.65
3.5764336585998535,-0.2,-2.65,-0.28,2.67
3.5772809982299805,-0.24,-2.62,-0.3,2.64
3.5873398780822754,-0.22,-2.54,-0.25,2.56
3.5974597930908203,-0.21,-2.4,-0.12,2.41
3.607219696044922,-0.2,-2.16,0.07,2.17
3.6188406944274902,-0.21,-1.92,0.32,1.95
3.674797773361206,-0.25,-1.71,0.48,1.79
3.6752638816833496,-0.29,-1.43,0.53,1.55
3.6757068634033203,-0.3,-1.08,0.68,1.31
3.6761527061462402,-0.27,-0.65,0.93,1.16
3.6766088008880615,-0.19,-0.11,1.1,1.12
3.6772689819335938,-0.14,0.44,1.26,1.34
3.687229871749878,-0.13,1.01,1.53,1.83
3.6972289085388184,-0.19,1.55,1.75,2.34
3.707214832305908,-0.3,1.95,1.91,2.74
3.7186508178710938,-0.38,2.17,1.97,2.95
3.7749478816986084,-0.41,2.25,2.05,3.07
3.775409698486328,-0.4,2.18,2.12,3.06
3.775866985321045,-0.34,2.07,2.16,3.01
3.776272773742676,-0.33,2.1,2.16,3.03
3.7767419815063477,-0.34,2.38,2.13,3.21
3.7771806716918945,-0.4,2.63,2.08,3.37
3.787118911743164,-0.37,2.91,1.99,3.54
3.797280788421631,-0.12,3.08,1.31,3.34
3.8072707653045654,0.09,3.27,0.8,3.36
3.8184988498687744,0.31,3.31,0.45,3.35
3.8754818439483643,0.4,3.07,-0.11,3.09
3.875947952270508,0.42,2.62,-0.84,2.78
3.87641978263855,0.35,2.14,-1.46,2.61
3.8768649101257324,0.4,1.69,-1.74,2.45
3.877304792404175,0.49,1.1,-2.02,2.35
3.8777477741241455,0.61,0.44,-2.16,2.28
3.8870468139648438,0.66,-0.18,-2.1,2.2
3.8971328735351562,0.7,-0.68,-1.97,2.19
3.9075868129730225,0.72,-1.02,-1.9,2.27
3.9184188842773438,0.68,-1.0,-1.72,2.1
3.9761457443237305,0.6,-0.51,-1.31,1.52
3.9766387939453125,0.54,0.09,-0.95,1.09
3.977081775665283,0.5,0.57,-0.75,1.06
3.977494716644287,0.5,0.98,-0.64,1.27
3.977937698364258,0.52,1.24,-0.7,1.51
3.978372812271118,0.54,1.37,-0.72,1.63
3.986860752105713,0.5,1.44,-0.68,1.66
3.996886730194092,0.45,1.32,-0.58,1.51
4.0072526931762695,0.36,0.96,-0.51,1.14
4.018260955810547,0.3,0.42,-0.44,0.67
4.0765299797058105,0.19,-0.23,-0.38,0.48
4.076980829238892,0.1,-0.95,-0.19,0.97
4.07742166519165,0.01,-1.69,-0.27,1.71
4.0778608322143555,-0.06,-2.32,-0.42,2.35
4.078288793563843,-0.13,-2.81,-0.65,2.88
4.078715801239014,-0.16,-3.14,-0.75,3.23
4.086731910705566,-0.2,-3.3,-0.75,3.39
4.096826791763306,-0.14,-3.24,-0.7,3.31
4.106788873672485,-0.14,-3.16,-0.67,3.23
4.1182777881622314,-0.13,-3.02,-0.63,3.08
4.176692962646484,-0.07,-2.87,-0.47,2.9
4.17716383934021,-0.01,-2.68,-0.32,2.69
4.177616834640503,0.06,-2.53,-0.24,2.54
4.1780688762664795,0.09,-2.43,-0.13,2.43
4.1784749031066895,0.09,-2.29,-0.05,2.29
4.178918838500977,0.15,-2.15,0.04,2.15
4.186651706695557,0.19,-2.04,0.13,2.05
4.196877956390381,0.28,-1.92,0.18,1.94
4.206760883331299,0.37,-1.78,0.22,1.83
4.218228816986084,0.48,-1.57,0.26,1.66
4.277328968048096,0.62,-1.28,0.42,1.48
4.277777671813965,0.78,-0.92,0.63,1.36
4.27821683883667,0.93,-0.55,0.92,1.41
4.2786478996276855,0.99,-0.13,1.09,1.47
4.279077768325806,1.03,0.32,1.12,1.55
4.279498815536499,1.0,0.7,1.13,1.66
4.286482810974121,0.88,1.0,1.12,1.74
4.296624660491943,0.71,1.25,1.12,1.82
4.306567668914795,0.54,1.39,1.14,1.87
4.3180317878723145,0.44,1.45,1.21,1.93
4.377440929412842,0.49,1.48,1.32,2.04
4.3778977394104,0.59,1.51,1.42,2.15
4.3783369064331055,0.68,1.61,1.61,2.37
4.378776788711548,0.71,1.84,1.83,2.69
4.379206657409668,0.66,2.27,1.91,3.03
4.379633903503418,0.43,2.89,1.86,3.46
4.386474847793579,0.08,3.39,1.6,3.74
4.3964338302612305,-0.35,3.68,0.79,3.78
4.406469821929932,-0.54,3.81,0.46,3.87
4.417763710021973,-0.58,3.79,0.24,3.84
4.477299690246582,-0.78,3.32,-0.28,3.42
4.477756977081299,-0.99,2.44,-1.08,2.84
4.478201866149902,-1.16,1.4,-1.82,2.57
4.478640794754028,-1.27,0.35,-2.28,2.63
4.4790778160095215,-1.34,-0.65,-2.44,2.85
4.47951078414917,-1.24,-1.46,-2.33,3.01
4.486235857009888,-1.05,-1.68,-1.99,2.8
4.496338844299316,-0.86,-1.62,-1.55,2.4
4.506253719329834,-0.68,-1.14,-1.11,1.73
4.517510890960693,-0.62,-0.28,-0.61,0.91
4.578022003173828,-0.59,0.56,-0.33,0.87
4.57847785949707,-0.53,1.25,-0.26,1.38
4.578917980194092,-0.44,1.75,-0.35,1.83
4.5793609619140625,-0.35,2.08,-0.51,2.17
4.579799652099609,-0.22,2.17,-0.52,2.24
4.580237865447998,-0.12,1.97,-0.42,2.01
4.586160659790039,-0.07,1.49,-0.31,1.52
4.596150875091553,-0.04,0.79,-0.23,0.82
4.606160879135132,-0.07,0.03,-0.17,0.18
4.617532730102539,-0.1,-0.75,-0.18,0.77
4.678053855895996,-0.14,-1.47,-0.24,1.49
4.678513765335083,-0.19,-2.07,-0.32,2.1
4.678956985473633,-0.17,-2.52,-0.41,2.55
4.67939567565918,-0.19,-2.77,-0.45,2.81
4.679827690124512,-0.16,-2.84,-0.41,2.87
4.680259704589844,-0.14,-2.87,-0.53,2.92
4.68596887588501,-0.16,-2.81,-0.59,2.87
4.695982933044434,-0.16,-2.68,-0.53,2.73
4.706006765365601,-0.16,-2.48,-0.48,2.53
4.717315673828125,-0.14,-2.25,-0.46,2.3
4.778608798980713,-0.13,-2.14,-0.4,2.18
4.779058933258057,-0.14,-2.04,-0.34,2.07
4.779497861862183,-0.2,-1.94,-0.27,1.96
4.779932975769043,-0.24,-1.9,-0.17,1.92
4.780320882797241,-0.24,-1.89,-0.08,1.9
4.780749797821045,-0.21,-1.85,-0.06,1.86
4.7858476638793945,-0.16,-1.73,-0.02,1.73
4.79589581489563,-0.09,-1.54,0.16,1.55
4.805948734283447,-0.08,-1.31,0.32,1.35
4.81719183921814,-0.09,-1.02,0.54,1.15
4.878354787826538,-0.17,-0.61,0.84,1.05
4.878803730010986,-0.27,-0.09,1.11,1.14
4.879242897033691,-0.33,0.46,1.29,1.4
4.879676818847656,-0.37,0.91,1.35,1.66
4.8801069259643555,-0.41,1.27,1.32,1.87
4.880532741546631,-0.44,1.54,1.28,2.05
4.8858137130737305,-0.48,1.74,1.25,2.19
4.8958117961883545,-0.53,1.8,1.33,2.29
4.905853748321533,-0.54,1.74,1.49,2.35
4.917036771774292,-0.51,1.68,1.68,2.42
4.979050874710083,-0.52,1.77,1.76,2.54
4.979492664337158,-0.55,2.08,1.84,2.83
4.979920864105225,-0.53,2.54,2.1,3.33
4.980352878570557,-0.41,3.05,2.33,3.85
4.980779647827148,-0.17,3.31,1.77,3.75
4.98120379447937,0.01,3.26,0.57,3.3
4.985669851303101,0.14,3.09,0.15,3.09
4.995692729949951,0.28,2.74,-0.23,2.76
5.005846977233887,0.3,1.96,-1.01,2.22
5.017074823379517,0.29,1.12,-1.82,2.15
5.079356670379639,0.36,0.35,-2.44,2.49
5.079814910888672,0.44,-0.28,-2.71,2.75
5.080260753631592,0.55,-0.81,-2.74,2.9
5.08070182800293,0.57,-1.1,-2.45,2.74
5.081141948699951,0.51,-1.24,-2.0,2.4
5.0815839767456055,0.49,-1.12,-1.66,2.06
5.085584878921509,0.36,-0.43,-1.13,1.26
5.095516681671143,0.3,0.31,-0.54,0.69
5.105621814727783,0.28,1.11,-0.19,1.16
5.11673378944397,0.3,1.96,-0.07,1.98
5.179049968719482,0.32,2.59,-0.22,2.61
5.179497718811035,0.29,3.0,-0.51,3.05
5.179933786392212,0.25,3.18,-0.65,3.25
5.180363655090332,0.19,2.98,-0.61,3.04
5.180787801742554,0.08,2.32,-0.47,2.36
5.181222915649414,-0.02,1.42,-0.36,1.46
5.185466766357422,-0.11,0.41,-0.26,0.49
5.195422649383545,-0.19,-0.59,-0.27,0.67
5.2054619789123535,-0.26,-1.5,-0.37,1.56
5.216657876968384,-0.31,-2.2,-0.47,2.27
5.279152870178223,-0.41,-2.65,-0.53,2.73
5.280102729797363,-0.5,-2.89,-0.62,2.99
5.280550956726074,-0.59,-2.98,-0.67,3.11
5.280983924865723,-0.57,-2.88,-0.78,3.03
5.281414985656738,-0.55,-2.71,-0.8,2.87
5.281840801239014,-0.6,-2.51,-0.79,2.69
5.285325765609741,-0.43,-2.42,-0.78,2.57
5.295268774032593,-0.29,-2.37,-0.81,2.52
5.305468797683716,-0.11,-2.38,-0.93,2.55
5.316496849060059,0.07,-2.44,-0.93,2.61
5.325479984283447,0.18,-2.45,-0.98,2.64
5.379690647125244,0.21,-2.44,-1.01,2.64
5.380152702331543,0.2,-2.31,-0.88,2.48
5.380597829818726,0.27,-2.13,-0.67,2.24
5.381040811538696,0.37,-1.95,-0.37,2.01
5.381478786468506,0.43,-1.78,0.08,1.83
5.385246753692627,0.49,-1.48,0.52,1.64
5.395167827606201,0.53,-1.12,0.84,1.49
5.405346870422363,0.5,-0.83,0.98,1.37
5.416477680206299,0.48,-0.56,0.93,1.18
5.425288677215576,0.5,-0.24,0.78,0.95
5.47991681098938,0.58,0.16,0.75,0.96
5.480370998382568,0.72,0.56,0.92,1.29
5.480809688568115,0.8,0.89,1.21,1.7
5.4812397956848145,0.75,1.1,1.41,1.93
5.481674671173096,0.65,1.21,1.58,2.09
5.485049724578857,0.57,1.26,1.65,2.15
5.495084762573242,0.51,1.22,1.64,2.1
5.50513482093811,0.53,1.19,1.59,2.05
5.516444683074951,0.5,1.25,1.47,1.99
5.525152683258057,0.46,1.51,1.45,2.14
5.580774784088135,0.37,1.99,1.46,2.49
5.581180810928345,0.18,2.48,1.46,2.88
5.581620693206787,-0.07,2.83,1.38,3.14
5.582039833068848,-0.35,3.02,0.82,3.14
5.582470893859863,-0.51,3.03,0.19,3.07
5.585127830505371,-0.57,2.91,-0.28,2.97
5.595034837722778,-0.64,2.6,-0.3,2.69
5.6052117347717285,-0.77,1.99,-0.76,2.26
5.6165618896484375,-0.98,1.04,-1.47,2.05
5.625199794769287,-1.07,0.08,-1.8,2.09
5.681180953979492,-1.06,-0.67,-2.24,2.56
5.681628704071045,-1.01,-1.26,-2.23,2.75
5.682064771652222,-0.83,-1.44,-1.98,2.58
5.682497978210449,-0.74,-1.26,-1.68,2.22
5.682934761047363,-0.71,-0.7,-1.17,1.53
5.684993743896484,-0.69,0.05,-0.51,0.85
5.695005893707275,-0.78,0.76,-0.09,1.09
5.70501184463501,-0.77,1.41,0.02,1.6
5.7162909507751465,-0.7,2.12,-0.18,2.23
5.725024700164795,-0.52,2.79,-0.41,2.86
5.7813496589660645,-0.24,3.2,-0.36,3.22
5.78178596496582,0.03,3.22,-0.22,3.22
5.782225847244263,0.18,2.72,-0.18,2.73
5.782656669616699,0.22,1.94,-0.14,1.95
5.783088684082031,0.15,1.0,-0.04,1.01
5.784958839416504,0.07,-0.04,0.0,0.08
5.794881820678711,-0.06,-1.01,-0.06,1.01
5.804982662200928,-0.17,-1.84,-0.22,1.86
5.816364765167236,-0.27,-2.46,-0.36,2.5
5.8249406814575195,-0.31,-2.87,-0.46,2.92
5.882150650024414,-0.28,-3.09,-0.54,3.14
5.882600784301758,-0.23,-3.13,-0.63,3.2
5.883040904998779,-0.19,-3.03,-0.71,3.11
5.883434772491455,-0.19,-2.88,-0.72,2.97
5.883872985839844,-0.16,-2.68,-0.62,2.75
5.88477897644043,-0.2,-2.53,-0.48,2.58
5.894652843475342,-0.21,-2.42,-0.51,2.48
5.904850959777832,-0.26,-2.36,-0.49,2.42
5.916294813156128,-0.38,-2.31,-0.41,2.37
5.924835681915283,-0.46,-2.21,-0.34,2.28
5.9817798137664795,-0.53,-2.11,-0.31,2.19
5.982234954833984,-0.61,-1.97,-0.22,2.07
5.982671737670898,-0.59,-1.78,-0.11,1.87
5.983114719390869,-0.56,-1.56,0.07,1.65
5.983548879623413,-0.55,-1.3,0.31,1.44
5.984639883041382,-0.67,-0.91,0.55,1.25
5.99459171295166,-0.61,-0.48,0.81,1.12
6.00473690032959,-0.4,-0.28,1.01,1.12
6.015612840652466,0.02,-0.38,1.15,1.21
6.024770736694336,-0.19,0.28,1.2,1.24
6.082248687744141,-0.2,1.16,1.4,1.82
6.082697868347168,-0.24,1.48,1.47,2.09
6.083139896392822,-0.36,1.75,1.45,2.3
6.083572864532471,-0.44,1.85,1.46,2.39
6.0840208530426025,-0.61,1.99,1.48,2.55
6.084585666656494,-0.58,1.96,1.58,2.58
6.094414710998535,-0.66,1.87,1.55,2.51
6.104659795761108,-0.65,2.02,1.73,2.73
6.115564823150635,-0.45,2.2,1.98,2.99
6.124605655670166,0.02,2.32,2.35,3.3
6.182719707489014,0.46,1.99,2.19,2.99
6.183175802230835,0.44,2.21,1.45,2.67
6.183581829071045,0.44,2.7,1.11,2.95
6.184034824371338,0.35,3.21,0.98,3.37
6.184467792510986,0.17,3.36,0.47,3.39
6.184915781021118,-0.06,3.04,-0.55,3.08
6.1946327686309814,-0.15,2.37,-1.65,2.89
6.204579830169678,-0.02,1.47,-2.56,2.95
6.215467929840088,0.14,0.5,-3.13,3.17
6.224499702453613,0.32,-0.44,-3.06,3.1
6.282941818237305,0.45,-1.31,-2.75,3.07
6.283402919769287,0.39,-1.75,-2.19,2.83
6.283853769302368,0.28,-1.9,-1.86,2.67
6.284292697906494,0.07,-1.69,-1.7,2.39
6.284735679626465,-0.07,-1.09,-1.51,1.86
6.285183906555176,-0.05,-0.23,-1.13,1.15
6.2948057651519775,0.02,0.68,-0.8,1.05
6.30446195602417,0.17,1.4,-0.62,1.54
6.315347671508789,0.28,1.96,-0.64,2.08
6.3244099617004395,0.42,2.34,-0.7,2.47
6.383116722106934,0.59,2.39,-0.72,2.56
6.383603811264038,0.6,2.22,-0.71,2.4
6.384045839309692,0.92,1.61,-0.9,2.06
6.384491920471191,0.98,1.78,-0.44,2.07
6.3849287033081055,-0.5,1.22,-0.23,1.33
6.385371685028076,-0.48,-0.69,-0.2,0.86
6.394868850708008,-0.52,-1.63,-0.41,1.75
6.404338836669922,-0.66,-2.17,-0.53,2.32
6.415331840515137,-0.58,-2.62,-0.63,2.75
6.424264907836914,-0.52,-2.77,-0.76,2.91
6.483852863311768,-0.57,-2.68,-0.91,2.88
6.484318733215332,-0.56,-2.55,-1.07,2.82
6.484763860702515,-0.47,-2.46,-1.17,2.76
6.485201835632324,-0.39,-2.31,-1.15,2.6
6.485641956329346,-0.34,-2.12,-1.06,2.39
6.486076831817627,-0.26,-1.88,-0.95,2.12
6.494848728179932,-0.04,-1.79,-0.88,1.99
6.50420880317688,0.17,-1.79,-0.67,1.91
6.515069961547852,0.23,-1.83,-0.53,1.91
6.524150848388672,0.36,-1.93,-0.42,2.0
6.5838799476623535,0.43,-1.87,-0.3,1.94
6.584346771240234,0.48,-1.68,-0.08,1.74
6.5847859382629395,0.53,-1.57,0.02,1.65
6.585234880447388,0.56,-1.47,-0.02,1.57
6.585673809051514,0.55,-1.38,-0.05,1.48
6.586114883422852,0.61,-1.18,0.07,1.33
6.594114780426025,0.68,-0.94,0.26,1.18
6.604150772094727,0.76,-0.72,0.41,1.12
6.615086793899536,0.82,-0.5,0.47,1.06
6.624115943908691,0.8,-0.25,0.52,0.98
6.684457778930664,0.75,0.07,0.64,0.98
6.684911727905273,0.69,0.4,0.75,1.09
6.685359001159668,0.6,0.62,0.71,1.11
6.685787677764893,0.51,0.76,0.74,1.17
6.686223983764648,0.49,0.87,0.9,1.34
6.686619758605957,0.49,1.0,1.03,1.51
6.6940507888793945,0.52,1.03,1.12,1.6
6.704031944274902,0.55,1.01,1.3,1.73
6.71493673324585,0.58,0.99,1.46,1.85
6.723994731903076,0.62,1.15,1.49,1.98
6.784622669219971,0.63,1.34,1.54,2.13
6.785069942474365,0.58,1.7,1.57,2.38
6.785507678985596,0.43,2.14,1.47,2.63
6.785945892333984,0.17,2.56,1.32,2.88
6.78638482093811,-0.09,2.9,1.03,3.07
6.786820888519287,-0.26,3.18,0.74,3.27
6.793806791305542,-0.29,3.4,0.68,3.47
6.803881883621216,-0.3,3.51,0.58,3.57
6.814823865890503,-0.41,3.27,0.17,3.29
6.823849678039551,-0.66,2.58,-0.43,2.69
6.885541915893555,-0.84,1.72,-1.26,2.29
6.88600492477417,-1.02,0.81,-2.11,2.47
6.886451721191406,-1.17,-0.28,-2.61,2.87
6.886890888214111,-1.19,-1.26,-3.06,3.51
6.887331962585449,-1.22,-2.0,-2.81,3.65
6.887765884399414,-1.05,-2.13,-2.32,3.31
6.893711805343628,-0.88,-1.54,-1.71,2.46
6.903773784637451,-0.87,-0.72,-1.11,1.58
6.914679765701294,-0.76,0.18,-0.76,1.08
6.923742771148682,-0.61,1.0,-0.56,1.29
6.98508882522583,-0.41,1.81,-0.63,1.95
6.985547780990601,-0.15,2.51,-0.82,2.64
6.986006736755371,0.1,2.89,-0.89,3.02
6.986451864242554,0.3,2.85,-0.87,2.99
6.986886978149414,0.43,2.39,-0.78,2.55
6.987321853637695,0.46,1.72,-0.73,1.92
6.993545770645142,0.38,0.89,-0.67,1.17
7.0036797523498535,0.22,0.02,-0.64,0.67
7.01462984085083,0.11,-0.8,-0.7,1.06
7.023678779602051,0.05,-1.44,-0.79,1.64
7.085775852203369,0.02,-1.87,-0.9,2.07
7.086198806762695,0.02,-2.13,-0.95,2.33
7.086606979370117,0.03,-2.16,-0.95,2.35
7.087048768997192,0.04,-1.98,-0.96,2.2
7.08748197555542,0.08,-1.76,-0.98,2.01
7.087881803512573,0.08,-1.61,-0.96,1.87
7.0933966636657715,0.05,-1.41,-0.94,1.69
7.103532791137695,-0.02,-1.21,-0.91,1.51
7.11444091796875,-0.07,-1.05,-0.94,1.41
7.123493671417236,-0.09,-0.95,-0.93,1.33
7.185752868652344,-0.18,-0.85,-0.9,1.25
7.186163902282715,-0.23,-0.85,-0.89,1.25
7.186610698699951,-0.26,-0.89,-0.83,1.24
7.187013864517212,-0.26,-0.85,-0.66,1.1
7.187408924102783,-0.25,-0.85,-0.5,1.01
7.187854766845703,-0.26,-0.8,-0.31,0.89
7.193364858627319,-0.28,-0.72,-0.19,0.79
7.203459739685059,-0.31,-0.66,-0.12,0.73
7.214357852935791,-0.32,-0.53,-0.1,0.62
7.2234368324279785,-0.28,-0.35,-0.04,0.45
7.2862138748168945,-0.27,-0.2,0.15,0.36
7.28666877746582,-0.18,0.0,0.26,0.31
7.287118911743164,-0.08,0.2,0.24,0.32
7.28755784034729,0.02,0.38,0.21,0.43
7.287989854812622,0.1,0.53,0.19,0.57
7.288424968719482,0.25,0.7,0.27,0.79
7.293197870254517,0.35,0.81,0.41,0.97
7.303322792053223,0.47,0.86,0.53,1.11
7.31417179107666,0.54,0.84,0.59,1.15
7.32333779335022,0.58,0.79,0.62,1.15
7.386547803878784,0.61,0.81,0.61,1.18
7.386963844299316,0.61,0.97,0.67,1.32
7.387363910675049,0.61,1.29,0.7,1.58
7.387804985046387,0.65,1.68,0.77,1.95
7.388236999511719,0.7,2.01,0.81,2.27
7.388676881790161,0.82,2.23,0.43,2.41
7.39310884475708,1.03,2.27,-0.16,2.49
7.403151988983154,1.24,2.15,-0.64,2.56
7.414270877838135,1.39,1.86,-0.98,2.52
7.4232707023620605,1.52,1.42,-1.21,2.4
7.487188816070557,1.57,0.97,-1.39,2.31
7.487647771835327,1.56,0.66,-1.46,2.23
7.488091945648193,1.51,0.52,-1.41,2.13
7.4885358810424805,1.43,0.53,-1.4,2.07
7.4889678955078125,1.34,0.65,-1.44,2.07
7.489362716674805,1.34,0.89,-1.34,2.09
7.492947816848755,1.44,1.15,-1.47,2.35
7.503044843673706,1.54,1.3,-1.74,2.66
7.514464855194092,1.61,1.32,-1.78,2.73
7.523025989532471,1.64,1.21,-1.97,2.83
7.585920810699463,1.64,0.95,-1.96,2.72
7.586366653442383,1.7,0.67,-1.97,2.68
7.586796760559082,1.71,0.42,-2.09,2.73
7.5872297286987305,1.68,0.12,-2.18,2.75
7.587622880935669,1.68,-0.14,-2.34,2.88
7.588055849075317,1.67,-0.27,-2.46,2.98
7.592855930328369,1.68,-0.29,-2.49,3.01
7.603034973144531,1.74,-0.24,-2.46,3.02
7.614626884460449,1.85,-0.15,-2.42,3.04
7.622996807098389,1.96,-0.05,-2.35,3.06
7.686662673950195,2.1,0.09,-2.28,3.1
7.687121868133545,2.2,0.22,-2.24,3.14
7.687562942504883,2.25,0.32,-2.21,3.17
7.687994956970215,2.3,0.34,-2.18,3.18
7.688427925109863,2.27,0.22,-2.17,3.14
7.688859939575195,2.2,0.02,-2.18,3.09
7.692768812179565,2.11,-0.21,-2.15,3.01
7.702937841415405,2.06,-0.48,-2.04,2.93
7.7145256996154785,1.93,-0.58,-1.94,2.79
7.72288179397583,1.95,-0.7,-1.78,2.73
7.786212921142578,2.13,-0.67,-1.63,2.76
7.786664962768555,2.27,-0.55,-1.49,2.77
7.787099838256836,2.44,-0.41,-1.44,2.86
7.787532806396484,2.56,-0.23,-1.45,2.95
7.787959814071655,2.67,-0.03,-1.49,3.05
7.788352966308594,2.67,0.18,-1.52,3.07
7.792720794677734,2.57,0.37,-1.51,3.0
7.802750825881958,2.48,0.49,-1.46,2.91
7.8142619132995605,2.36,0.49,-1.44,2.8
7.822805881500244,2.22,0.43,-1.4,2.65
7.886354923248291,2.14,0.33,-1.34,2.54
7.886801719665527,2.1,0.21,-1.18,2.41
7.887237787246704,2.05,0.04,-1.04,2.29
7.887669801712036,1.97,-0.11,-0.94,2.18
7.888107776641846,1.88,-0.29,-0.88,2.09
7.888537883758545,1.81,-0.47,-0.86,2.05
7.892604827880859,1.68,-0.55,-0.85,1.96
7.902535915374756,1.58,-0.55,-0.81,1.85
7.9141926765441895,1.54,-0.47,-0.72,1.76
7.9227190017700195,1.49,-0.34,-0.59,1.63
7.9863996505737305,1.42,-0.16,-0.4,1.48
7.986852645874023,1.4,-0.03,-0.33,1.43
7.987246990203857,1.42,-0.03,-0.31,1.45
7.987684726715088,1.49,-0.09,-0.18,1.5
7.98811674118042,1.56,-0.23,-0.02,1.57
7.98855185508728,1.55,-0.34,0.11,1.59
7.992488861083984,1.51,-0.49,0.25,1.6
8.002447843551636,1.47,-0.66,0.35,1.64
8.0691556930542,1.38,-0.79,0.44,1.64
8.069617748260498,1.28,-0.89,0.49,1.63
8.070064783096313,1.19,-0.93,0.55,1.6
8.070462703704834,1.1,-0.93,0.57,1.54
8.070904731750488,1.03,-0.89,0.58,1.47
8.071345806121826,1.02,-0.83,0.63,1.45
8.0724778175354,0.98,-0.77,0.69,1.42
8.082324981689453,0.95,-0.76,0.71,1.4
8.092474937438965,0.93,-0.77,0.75,1.42
8.102477788925171,0.85,-0.82,0.8,1.42
8.169716835021973,0.81,-0.87,0.81,1.43
8.170167922973633,0.7,-0.86,0.79,1.36
8.17060899734497,0.63,-0.83,0.68,1.24
8.17103886604309,0.36,-0.6,0.41,0.81
8.171470880508423,0.16,-0.22,0.11,0.29
8.171921730041504,0.01,0.54,0.36,0.64
8.172355651855469,-0.26,1.43,0.51,1.54
8.182196855545044,-0.55,1.97,0.53,2.11
8.192376852035522,-0.71,2.24,0.3,2.36
8.20236086845398,-0.7,2.35,0.1,2.45
8.26924991607666,-0.49,2.23,0.09,2.28
8.26970386505127,-0.23,1.86,-0.07,1.87
8.270141839981079,0.01,1.16,-0.31,1.2
8.270574808120728,0.13,0.4,-0.5,0.65
8.271009922027588,-0.01,-0.14,-0.69,0.7
8.27148985862732,-0.3,-0.34,-0.72,0.85
8.2720627784729,-0.7,-0.22,-0.56,0.92
8.28205680847168,-1.1,0.02,-0.35,1.15
8.292253971099854,-1.45,0.29,-0.14,1.48
8.302202701568604,-1.55,0.61,0.1,1.66
8.36902379989624,-1.46,0.85,0.43,1.74
8.370022773742676,-1.17,0.96,0.76,1.69
8.37048077583313,-0.84,1.01,0.93,1.6
8.370929718017578,-0.46,1.05,0.98,1.5
8.37139368057251,-0.08,1.09,1.0,1.48
8.37182879447937,0.22,1.18,0.96,1.53
8.372265815734863,0.36,1.32,1.0,1.69
8.3829927444458,0.46,1.28,1.16,1.78
8.392147779464722,0.41,1.05,1.28,1.7
8.402082920074463,0.2,0.7,1.24,1.43
8.413328647613525,0.0,0.18,1.18,1.19
8.469626903533936,-0.18,-0.32,1.17,1.22
8.470083713531494,-0.31,-0.86,1.11,1.43
8.470523834228516,-0.41,-1.42,1.0,1.78
8.47095775604248,-0.43,-1.89,0.84,2.11
8.471414804458618,-0.44,-2.28,0.67,2.41
8.471849918365479,-0.43,-2.54,0.6,2.64
8.481867790222168,-0.33,-2.71,0.57,2.78
8.492003917694092,-0.29,-2.71,0.56,2.78
8.501986980438232,-0.29,-2.64,0.53,2.7
8.513324737548828,-0.31,-2.51,0.6,2.59
8.569560766220093,-0.33,-2.27,0.73,2.4
8.570022821426392,-0.36,-2.04,0.86,2.24
8.570430755615234,-0.36,-1.9,0.98,2.16
8.570884704589844,-0.38,-1.69,1.14,2.07
8.571353912353516,-0.41,-1.52,1.31,2.04
8.571893692016602,-0.42,-1.39,1.3,1.94
8.581700801849365,-0.3,-1.31,1.25,1.83
8.591961860656738,-0.23,-1.22,1.23,1.74
8.601805686950684,-0.15,-1.12,1.28,1.7
8.61319875717163,-0.18,-0.92,1.3,1.6
8.669557809829712,-0.16,-0.61,1.46,1.59
8.670020818710327,-0.2,-0.19,1.62,1.64
8.670470714569092,-0.18,0.13,1.83,1.84
8.670920848846436,-0.16,0.46,2.1,2.15
8.671388864517212,-0.18,0.82,2.27,2.42
8.671824932098389,-0.16,1.1,2.36,2.6
8.681585788726807,-0.19,1.39,2.46,2.83
8.691869735717773,-0.26,1.78,2.55,3.12
8.701665878295898,-0.26,1.99,2.59,3.27
8.713128805160522,-0.21,2.11,2.58,3.33
8.770453929901123,-0.15,2.37,2.62,3.53
8.770931720733643,-0.07,2.74,2.59,3.77
8.771369934082031,0.03,3.04,2.45,3.9
8.771796703338623,0.15,3.26,1.97,3.81
8.77221965789795,0.32,3.49,1.43,3.78
8.772642850875854,0.33,3.94,1.14,4.11
8.781409740447998,0.22,4.36,1.05,4.49
8.791778802871704,1.42,4.12,0.51,4.38
8.8016037940979,0.78,3.65,-0.14,3.73
8.81306791305542,0.38,2.89,-0.66,2.98
8.870669841766357,0.2,2.24,-0.94,2.43
8.871160984039307,0.42,1.32,-1.17,1.81
8.871607780456543,0.03,0.37,-1.57,1.61
8.87205171585083,-0.18,-0.69,-1.66,1.8
8.872493743896484,0.05,-1.53,-1.8,2.36
8.872934818267822,0.03,-1.98,-1.93,2.76
8.881540775299072,0.12,-2.15,-1.72,2.75
8.891673803329468,0.24,-2.12,-1.57,2.64
8.901407718658447,0.32,-1.93,-1.47,2.44
8.912803649902344,0.31,-1.68,-1.2,2.08
8.970929861068726,0.29,-1.31,-0.85,1.58
8.97137975692749,0.2,-1.07,-0.73,1.31
8.971818923950195,0.05,-0.89,-0.64,1.09
8.97225570678711,-0.07,-0.78,-0.47,0.91
8.972689867019653,-0.16,-0.76,-0.4,0.87
8.973121881484985,-0.29,-0.81,-0.36,0.93
8.981727838516235,-0.36,-0.88,-0.44,1.04
8.991590976715088,-0.42,-0.96,-0.51,1.16
9.001276969909668,-0.41,-1.19,-0.47,1.34
9.012770652770996,-0.4,-1.56,-0.44,1.66
9.072289943695068,-0.31,-1.96,-0.43,2.03
9.072754859924316,-0.18,-2.35,-0.42,2.39
9.073194980621338,-0.08,-2.69,-0.37,2.71
9.073643684387207,0.04,-2.84,-0.25,2.85
9.074094772338867,0.17,-2.86,-0.11,2.86
9.074533939361572,0.26,-2.73,0.02,2.74
9.08168888092041,0.34,-2.58,0.1,2.6
9.091361999511719,0.39,-2.46,0.19,2.49
9.101186752319336,0.34,-2.28,0.25,2.31
9.112715721130371,0.37,-2.19,0.27,2.23
9.172064781188965,0.36,-2.04,0.2,2.08
9.172513961791992,0.37,-1.62,0.13,1.66
9.17294692993164,0.29,-1.5,0.2,1.54
9.173379898071289,0.27,-1.61,0.07,1.63
9.173812866210938,0.24,-1.6,0.09,1.62
9.174243927001953,0.29,-1.33,0.33,1.4
9.181646823883057,0.36,-0.88,0.66,1.15
9.191295862197876,0.38,-0.43,1.03,1.17
9.201091766357422,0.38,-0.06,1.2,1.26
9.212517738342285,0.44,0.31,1.31,1.41
9.272385835647583,0.44,0.69,1.43,1.64
9.272840976715088,0.49,1.05,1.53,1.91
9.273294925689697,0.42,1.41,1.62,2.18
9.273733854293823,0.34,1.71,1.72,2.44
9.274165868759155,0.25,1.9,1.81,2.63
9.274565696716309,0.25,2.1,1.93,2.86
9.280994892120361,0.32,2.44,2.08,3.22
9.29117488861084,0.36,2.87,2.28,3.68
9.30092191696167,0.4,3.26,2.64,4.21
9.312375783920288,0.3,3.62,2.5,4.4
9.376961708068848,-0.11,3.93,1.85,4.34
9.377409934997559,0.14,3.92,1.44,4.17
9.377840995788574,-0.04,3.9,1.13,4.06
9.378274917602539,-0.32,3.54,0.75,3.63
9.37870168685913,-0.43,2.99,0.19,3.02
9.379135847091675,-0.56,2.29,-0.55,2.42
9.38088583946228,-0.77,1.34,-1.21,1.96
9.39110279083252,-0.84,0.31,-1.63,1.85
9.400827884674072,-0.77,-0.75,-1.91,2.19
9.412277698516846,-0.68,-1.85,-2.09,2.87
9.476439952850342,-0.56,-2.65,-2.36,3.59
9.476897716522217,-0.57,-3.06,-2.51,3.99
9.477330684661865,-0.68,-2.92,-2.25,3.74
9.477771759033203,-0.84,-2.3,-1.59,2.91
9.478202819824219,-1.07,-1.4,-0.89,1.97
9.4786376953125,-1.29,-0.63,-0.32,1.47
9.480816841125488,-1.36,0.04,0.16,1.36
9.490997791290283,-1.32,0.7,0.35,1.53
9.500731945037842,-1.18,1.37,0.16,1.81
9.512069702148438,-0.87,1.98,-0.2,2.17
9.57670783996582,-0.57,2.26,-0.25,2.34
9.577160835266113,-0.14,2.2,-0.38,2.23
9.577602863311768,0.31,1.69,-0.28,1.74
9.578027725219727,0.27,0.73,-0.1,0.78
9.57842493057251,0.27,-0.22,-0.01,0.34
9.578856945037842,0.12,-1.31,-0.06,1.31
9.580713748931885,0.05,-2.33,-0.2,2.33
9.59086799621582,-0.13,-3.07,-0.33,3.09
9.60065484046936,-0.31,-3.53,-0.41,3.56
9.611965656280518,-0.35,-3.7,-0.41,3.73
9.677127838134766,-0.34,-3.65,-0.45,3.69
9.677589893341064,-0.22,-3.45,-0.47,3.48
9.678040981292725,-0.05,-3.13,-0.42,3.15
9.678507804870605,0.09,-2.85,-0.29,2.86
9.678947925567627,0.17,-2.55,-0.12,2.55
9.67934799194336,0.17,-2.21,-0.01,2.21
9.680566787719727,0.04,-2.01,0.11,2.01
9.690820693969727,-0.32,-1.82,0.06,1.84
9.700573921203613,-0.53,-1.66,-0.05,1.74
9.711955785751343,-0.62,-1.57,-0.11,1.69
9.777738809585571,-0.57,-1.35,0.0,1.46
9.778191804885864,-0.49,-1.08,0.17,1.19
9.77863073348999,-0.34,-0.74,0.41,0.91
9.779062747955322,-0.22,-0.25,0.82,0.88
9.779518842697144,-0.14,0.32,1.27,1.31
9.779944896697998,-0.08,0.84,1.6,1.8
9.780414819717407,-0.06,1.27,1.71,2.13
9.790650844573975,-0.07,1.64,1.69,2.35
9.8004469871521,-0.13,1.96,1.59,2.52
9.81160283088684,-0.15,2.16,1.62,2.7
9.878342866897583,-0.13,2.2,1.82,2.85
9.878790855407715,-0.01,2.03,1.99,2.84
9.879187822341919,0.07,1.79,1.99,2.67
9.879596710205078,0.15,1.82,1.96,2.67
9.880042791366577,0.22,2.14,2.27,3.12
9.880465984344482,0.19,2.59,2.53,3.62
9.880870819091797,0.18,3.01,2.01,3.62
9.890540838241577,0.26,3.39,1.29,3.63
9.900331974029541,0.37,3.8,0.83,3.9
9.911585807800293,0.49,4.0,0.13,4.03
9.978611946105957,0.47,3.74,-0.84,3.86
9.979103803634644,0.49,3.08,-1.69,3.54
9.97957468032837,0.55,2.19,-2.18,3.13
9.980053901672363,0.62,1.28,-2.46,2.84
9.980515956878662,0.63,0.32,-2.57,2.66
9.980985879898071,0.56,-0.52,-2.51,2.62
9.981448650360107,0.46,-0.94,-2.26,2.49
9.990229845046997,0.37,-0.95,-2.0,2.24
10.00011682510376,0.5,-0.7,-1.55,1.77
10.011307716369629,0.63,0.06,-1.06,1.23
10.079012870788574,0.8,0.69,-0.81,1.33
10.079468727111816,0.97,1.18,-0.68,1.67
10.079920768737793,1.21,1.49,-0.64,2.02
10.080367803573608,1.34,1.65,-0.67,2.22
10.08080768585205,1.33,1.63,-0.62,2.19
10.081246852874756,1.12,1.37,-0.56,1.85
10.081687927246094,0.71,0.94,-0.45,1.26
10.090295791625977,0.29,0.3,-0.31,0.51
10.100027799606323,-0.05,-0.49,-0.3,0.57
10.111388683319092,-0.36,-1.35,-0.41,1.45
10.179452896118164,-0.54,-2.08,-0.53,2.21
10.179906845092773,-0.65,-2.61,-0.65,2.76
10.180342674255371,-0.58,-3.05,-0.76,3.19
10.18077278137207,-0.48,-3.27,-0.92,3.43
10.181201934814453,-0.34,-3.38,-1.09,3.56
10.181622982025146,-0.32,-3.34,-1.2,3.56
10.182052850723267,-0.18,-3.26,-1.21,3.48
10.19023585319519,-0.15,-3.2,-1.19,3.41
10.200204849243164,-0.07,-3.13,-1.17,3.34
10.21131181716919,-0.12,-2.95,-0.87,3.07
10.279834747314453,-0.12,-2.78,-0.68,2.86
10.28028392791748,-0.09,-2.67,-0.53,2.72
10.280726909637451,0.03,-2.51,-0.26,2.52
10.281161785125732,0.16,-2.34,-0.17,2.35
10.28159475326538,0.25,-2.23,-0.07,2.24
10.282029867172241,0.38,-2.13,0.02,2.16
10.282460689544678,0.52,-2.03,-0.02,2.09
10.290190696716309,0.63,-1.76,0.0,1.86
10.300175666809082,0.81,-1.38,0.24,1.61
10.311237812042236,0.93,-0.88,0.57,1.4
10.379993915557861,0.96,-0.39,0.83,1.32
10.380441665649414,0.94,0.07,1.06,1.41
10.38087272644043,0.88,0.57,1.3,1.67
10.381296873092651,0.78,1.1,1.41,1.95
10.381720781326294,0.62,1.52,1.44,2.18
10.382145881652832,0.49,1.81,1.58,2.45
10.382572650909424,0.4,1.99,1.81,2.71
10.3899507522583,0.45,2.05,2.02,2.91
10.40025782585144,0.55,1.97,2.06,2.9
10.411133766174316,0.52,1.91,1.9,2.74
10.48106575012207,0.55,2.1,1.91,2.89
10.481522798538208,0.51,2.55,2.12,3.35
10.481933832168579,0.4,3.0,2.12,3.69
10.482369899749756,0.17,3.31,1.75,3.74
10.48281192779541,-0.09,3.54,1.18,3.73
10.48379898071289,-0.22,3.8,0.83,3.89
10.48425579071045,-0.23,3.92,0.85,4.01
10.490437984466553,-0.3,3.55,0.62,3.61
10.500218868255615,-0.53,2.78,-0.23,2.83
10.511015892028809,-0.73,1.87,-0.97,2.22
10.58069372177124,-0.83,0.82,-1.55,1.94
10.581150770187378,-0.88,-0.21,-1.98,2.17
10.581586837768555,-0.81,-1.17,-2.29,2.69
10.582028865814209,-0.66,-1.86,-2.51,3.19
10.58245587348938,-0.65,-2.15,-2.58,3.42
10.5828857421875,-0.76,-2.07,-2.24,3.14
10.583800792694092,-0.92,-1.43,-1.59,2.32
10.589529991149902,-0.87,-0.7,-0.83,1.39
10.599647998809814,-1.22,-0.15,-0.36,1.28
10.61090087890625,-1.29,0.54,-0.1,1.4
10.681337833404541,-1.12,1.48,0.11,1.85
10.681802749633789,-1.05,2.26,0.08,2.49
10.682254791259766,-0.72,2.71,-0.14,2.8
10.682695865631104,-0.46,2.76,-0.34,2.81
10.68314790725708,-0.22,2.4,-0.39,2.44
10.68413782119751,-0.09,1.61,-0.31,1.64
10.684544801712036,-0.09,0.47,-0.2,0.51
10.689828872680664,-0.18,-0.76,-0.24,0.81
10.699432849884033,-0.34,-1.78,-0.36,1.84
10.710779666900635,-0.41,-2.48,-0.44,2.55
10.781614780426025,-0.47,-3.0,-0.58,3.09
10.782065868377686,-0.42,-3.29,-0.72,3.39
10.78246283531189,-0.36,-3.29,-0.81,3.4
10.782895803451538,-0.26,-3.32,-0.93,3.45
10.783324718475342,-0.2,-3.18,-0.97,3.33
10.784268856048584,-0.12,-3.04,-0.93,3.18
10.784716844558716,-0.09,-2.85,-0.87,2.98
10.789352893829346,-0.11,-2.62,-0.78,2.73
10.79935598373413,-0.13,-2.5,-0.6,2.57
10.81063985824585,-0.13,-2.35,-0.45,2.39
10.88193678855896,-0.13,-2.16,-0.34,2.19
10.882405757904053,-0.16,-1.99,-0.21,2.0
10.882853984832764,-0.24,-1.78,-0.08,1.79
10.883307933807373,-0.33,-1.51,0.04,1.54
10.884227752685547,-0.39,-1.15,0.24,1.23
10.88468599319458,-0.41,-0.72,0.42,0.92
10.885138988494873,-0.45,-0.25,0.64,0.82
10.889257907867432,-0.44,0.22,1.09,1.19
10.899274826049805,-0.36,0.67,1.45,1.63
10.910494804382324,-0.31,1.09,1.45,1.84
10.98196268081665,-0.3,1.46,1.38,2.03
10.98241376876831,-0.27,1.74,1.45,2.28
10.982848882675171,-0.26,1.82,1.46,2.34
10.98328185081482,-0.28,1.69,1.45,2.24
10.983684778213501,-0.28,1.44,1.64,2.2
10.984611988067627,-0.25,1.13,1.72,2.07
10.985058784484863,-0.24,1.07,1.78,2.09
10.989230871200562,-0.13,1.47,2.07,2.54
10.999173879623413,-0.01,2.05,2.25,3.04
11.010326862335205,0.05,2.61,2.19,3.4
11.082330703735352,0.12,3.03,1.47,3.36
11.082791805267334,0.31,3.33,0.44,3.37
11.083236694335938,0.55,3.58,-0.03,3.62
11.083680868148804,0.68,3.59,-0.32,3.66
11.084597826004028,0.72,2.96,-1.16,3.25
11.085055828094482,0.68,2.12,-2.15,3.09
11.085510730743408,0.7,1.44,-2.81,3.23
11.089163780212402,0.73,0.68,-3.08,3.23
11.099101781845093,0.76,-0.05,-2.99,3.08
11.110286712646484,0.69,-0.64,-2.58,2.74
11.182652950286865,0.55,-1.05,-2.05,2.36
11.18310284614563,0.33,-1.03,-1.66,1.98
11.18354082107544,0.12,-0.71,-1.28,1.46
11.183970928192139,-0.02,-0.02,-0.84,0.84
11.184861660003662,-0.12,0.71,-0.45,0.84
11.185308933258057,-0.11,1.42,-0.34,1.46
11.185742855072021,-0.16,2.07,-0.51,2.13
11.189007759094238,-0.16,2.54,-0.69,2.63
11.199100971221924,-0.11,2.76,-0.78,2.87
11.210108757019043,-0.07,2.62,-0.59,2.68
11.282994747161865,-0.08,2.06,-0.37,2.09
11.283423900604248,-0.08,1.22,-0.24,1.24
11.283877849578857,-0.07,0.25,-0.28,0.38
11.284322738647461,-0.06,-0.75,-0.43,0.86
11.285249710083008,-0.06,-1.68,-0.58,1.77
11.285701751708984,-0.08,-2.37,-0.73,2.48
11.286147832870483,-0.09,-2.84,-0.88,2.97
11.288883686065674,-0.13,-3.07,-0.94,3.21
11.298942804336548,-0.15,-3.14,-0.96,3.28
11.310009002685547,-0.13,-3.07,-1.0,3.23
11.383049964904785,-0.15,-2.96,-1.04,3.14
11.383498668670654,-0.14,-2.81,-1.03,2.99
11.38394284248352,-0.13,-2.55,-1.0,2.74
11.384377002716064,-0.1,-2.41,-0.93,2.58
11.385265827178955,-0.07,-2.31,-0.87,2.46
11.38571286201477,-0.03,-2.17,-0.77,2.3
11.386162757873535,0.03,-2.12,-0.7,2.23
11.388725757598877,0.05,-2.17,-0.63,2.26
11.398885726928711,0.1,-2.16,-0.52,2.22
11.410021781921387,0.1,-2.17,-0.34,2.19
11.482520818710327,0.13,-2.12,-0.19,2.13
11.482975959777832,0.14,-2.05,-0.08,2.05
11.483428955078125,0.18,-1.83,0.12,1.84
11.48387098312378,0.27,-1.56,0.41,1.63
11.484307765960693,0.34,-1.25,0.6,1.42
11.485216856002808,0.34,-0.93,0.66,1.19
11.4856276512146,0.34,-0.57,0.67,0.94
11.488740921020508,0.41,-0.13,0.76,0.87
11.498722791671753,0.54,0.41,0.96,1.17
11.509837865829468,0.62,0.95,1.21,1.65
11.583357810974121,0.68,1.45,1.44,2.15
11.583767890930176,0.68,1.8,1.58,2.48
11.584199905395508,0.66,1.9,1.66,2.6
11.584629774093628,0.65,1.84,1.63,2.54
11.585594654083252,0.63,1.65,1.59,2.37
11.586034774780273,0.67,1.52,1.69,2.36
11.586477756500244,0.69,1.7,1.73,2.52
11.588622808456421,0.65,2.03,1.81,2.79
11.598592758178711,0.51,2.49,1.94,3.19
11.609795808792114,0.18,2.93,1.61,3.34
11.682856798171997,-0.17,3.14,0.88,3.26
11.683307647705078,-0.37,3.16,0.32,3.19
11.683748722076416,-0.52,3.19,0.15,3.23
11.684205770492554,-0.77,2.97,-0.26,3.07
11.684643745422363,-1.02,2.3,-0.96,2.69
11.685593843460083,-1.16,1.52,-1.58,2.48
11.686039924621582,-1.23,0.58,-2.07,2.47
11.68854570388794,-1.15,-0.26,-2.33,2.61
11.698502779006958,-1.0,-0.83,-2.31,2.65
11.709552764892578,-0.86,-1.01,-2.11,2.49
11.718446731567383,-0.93,-0.9,-1.68,2.12
11.784360885620117,-0.83,-0.39,-1.18,1.49
11.78481388092041,-0.87,0.14,-0.72,1.13
11.785781860351562,-0.72,0.77,-0.32,1.1
11.786231994628906,-0.52,1.29,-0.12,1.39
11.78664493560791,-0.42,1.69,-0.12,1.74
11.78707480430603,-0.32,2.03,-0.1,2.05
11.788189888000488,-0.14,2.06,-0.15,2.07
11.798356771469116,0.04,1.79,-0.24,1.8
11.80948781967163,0.16,1.24,-0.23,1.27
11.818365812301636,0.23,0.49,-0.19,0.57
11.884328842163086,0.13,-0.27,-0.21,0.36
11.884815692901611,-0.01,-1.2,-0.36,1.25
11.8852698802948,-0.12,-2.05,-0.56,2.12
11.886191844940186,-0.3,-2.62,-0.66,2.71
11.886628866195679,-0.44,-3.05,-0.78,3.17
11.88705587387085,-0.51,-3.26,-0.84,3.4
11.888169765472412,-0.46,-3.23,-0.88,3.37
11.898274898529053,-0.38,-3.07,-0.89,3.21
11.909320831298828,-0.27,-2.92,-0.86,3.05
11.918193817138672,-0.17,-2.71,-0.85,2.84
11.984456777572632,-0.14,-2.49,-0.76,2.6
11.984908819198608,-0.19,-2.22,-0.64,2.31
11.985354900360107,-0.27,-1.92,-0.61,2.03
11.986281871795654,-0.3,-1.7,-0.53,1.8
11.986725807189941,-0.34,-1.51,-0.36,1.58
11.987131834030151,-0.34,-1.34,-0.23,1.4
11.988117694854736,-0.3,-1.19,-0.12,1.23
11.998133659362793,-0.12,-1.12,-0.09,1.13
12.009299755096436,-0.06,-1.09,0.13,1.09
12.018104791641235,0.05,-0.86,0.27,0.9
12.084366798400879,0.1,-0.45,0.55,0.71
12.084811687469482,0.15,0.01,0.88,0.89
12.085249900817871,0.19,0.45,1.18,1.27
12.08616590499878,0.19,0.84,1.4,1.64
12.086606979370117,0.13,1.23,1.55,1.98
12.087048768997192,0.03,1.63,1.59,2.27
12.087848663330078,-0.05,1.95,1.58,2.51
12.098061800003052,-0.13,2.09,1.57,2.61
12.109132766723633,0.55,1.31,1.69,2.2
12.118051767349243,0.62,0.16,1.52,1.64
12.18558382987976,-0.47,0.92,0.96,1.41
12.186527729034424,-1.18,2.62,1.12,3.08
12.186986923217773,-1.12,3.05,1.72,3.67
12.187445878982544,-0.94,2.68,1.87,3.4
12.187899827957153,-0.71,2.38,1.33,2.81
12.188329696655273,-0.2,2.29,0.62,2.38
12.188763856887817,0.47,2.18,0.75,2.35
12.19793176651001,0.84,1.94,0.54,2.18
12.20905876159668,0.95,1.79,-0.21,2.03
12.21787977218628,0.74,1.56,-0.98,1.98
12.285102844238281,0.55,1.22,-1.77,2.21
12.285546779632568,0.37,0.79,-2.31,2.46
12.28646469116211,0.29,0.15,-2.6,2.62
12.286927700042725,0.27,-0.27,-2.52,2.54
12.287367820739746,0.25,-0.59,-2.18,2.27
12.28780484199524,0.14,-0.82,-1.94,2.11
12.288291931152344,0.01,-0.94,-1.67,1.91
12.297764778137207,0.05,-0.62,-1.43,1.55
12.309018850326538,0.09,-0.06,-0.96,0.96
12.31774377822876,0.14,0.62,-0.54,0.83
12.386146783828735,0.23,1.17,-0.43,1.26
12.38659381866455,0.26,1.57,-0.46,1.65
12.38703179359436,0.28,1.93,-0.68,2.06
12.387471675872803,0.29,2.05,-0.8,2.21
12.387857913970947,0.34,1.91,-0.8,2.09
12.388285875320435,0.37,1.52,-0.66,1.69
12.388712882995605,0.4,0.93,-0.49,1.12
12.397660732269287,0.37,0.39,-0.32,0.62
12.408751964569092,0.28,-0.13,-0.26,0.4
12.41758680343628,0.23,-0.64,-0.27,0.73
12.486088752746582,0.21,-1.06,-0.39,1.14
12.487025737762451,0.11,-1.44,-0.55,1.54
12.487485885620117,0.02,-1.77,-0.7,1.9
12.487924814224243,-0.07,-2.07,-0.83,2.23
12.488400936126709,-0.15,-2.27,-0.9,2.44
12.488769769668579,-0.15,-2.38,-0.9,2.54
12.489203929901123,-0.11,-2.39,-0.95,2.57
12.49762487411499,0.04,-2.38,-0.93,2.55
12.508750915527344,0.09,-2.39,-0.81,2.52
12.517513751983643,0.15,-2.37,-0.71,2.47
12.586493968963623,0.19,-2.32,-0.66,2.41
12.586921691894531,0.21,-2.33,-0.66,2.43
12.587377786636353,0.25,-2.39,-0.62,2.48
12.58781886100769,0.3,-2.37,-0.66,2.47
12.5882568359375,0.34,-2.22,-0.42,2.28
12.588645935058594,0.34,-2.02,-0.2,2.05
12.589032649993896,0.34,-1.83,-0.08,1.86
12.597481727600098,0.36,-1.55,0.22,1.6
12.608474731445312,0.45,-1.19,0.45,1.34
12.617420673370361,0.53,-0.93,0.55,1.2
12.686899662017822,0.58,-0.73,0.53,1.07
12.687370777130127,0.63,-0.48,0.48,0.92
12.68781566619873,0.7,-0.21,0.6,0.94
12.688256740570068,0.77,0.16,0.74,1.07
12.68871784210205,0.83,0.48,0.97,1.36
12.689158916473389,0.8,0.69,1.18,1.58
12.689592838287354,0.72,0.83,1.3,1.7
12.697359800338745,0.67,1.05,1.44,1.9
12.708496809005737,0.68,1.35,1.54,2.15
12.717363834381104,0.7,1.73,1.58,2.44
12.787775993347168,0.65,2.26,1.59,2.83
12.78823184967041,0.47,2.83,1.6,3.28
12.788670778274536,0.25,3.33,1.92,3.85
12.789171695709229,-0.04,3.63,1.93,4.11
12.789612770080566,-0.33,3.66,1.36,3.91
12.790073871612549,-0.57,3.7,0.89,3.84
12.790498733520508,-0.55,3.71,0.85,3.84
12.797215938568115,-0.51,3.39,0.69,3.49
12.8084716796875,-0.49,2.73,-0.05,2.77
12.817308902740479,-0.55,2.01,-0.88,2.26
12.887630939483643,-0.64,1.03,-1.47,1.9
12.888146877288818,-0.61,-0.1,-1.9,1.99
12.888622760772705,-0.59,-0.94,-2.16,2.42
12.889084815979004,-0.54,-1.51,-2.29,2.79
12.889551877975464,-0.45,-1.74,-2.32,2.93
12.890016794204712,-0.47,-1.57,-2.13,2.68
12.890475749969482,-0.58,-1.02,-1.76,2.11
12.897165775299072,-0.66,-0.4,-1.28,1.49
12.908236980438232,-0.75,0.21,-0.74,1.07
12.917078971862793,-0.81,0.88,-0.28,1.22
12.988578796386719,-0.8,1.5,-0.04,1.7
12.989036798477173,-0.69,1.93,-0.32,2.07
12.989511966705322,-0.52,2.08,-0.72,2.26
12.989948749542236,-0.32,2.01,-0.77,2.17
12.99037790298462,-0.15,1.71,-0.77,1.88
12.990813732147217,-0.05,1.16,-0.55,1.28
12.991244792938232,0.09,0.39,-0.36,0.53
12.996922969818115,0.11,-0.41,-0.28,0.5
13.007874965667725,0.09,-1.25,-0.29,1.28
13.016984939575195,0.05,-1.92,-0.38,1.95
13.088733673095703,0.02,-2.32,-0.58,2.39
13.08918285369873,-0.02,-2.47,-0.65,2.55
13.089664936065674,-0.03,-2.4,-0.67,2.49
13.090094804763794,-0.04,-2.3,-0.73,2.41
13.090453863143921,-0.04,-2.19,-0.73,2.3
13.09086799621582,-0.04,-1.97,-0.66,2.07
13.091253757476807,-0.04,-1.66,-0.62,1.77
13.09679889678955,-0.07,-1.44,-0.53,1.53
13.107990741729736,-0.15,-1.27,-0.42,1.34
13.116856813430786,-0.23,-1.09,-0.3,1.15
13.18872880935669,-0.33,-0.96,-0.18,1.03
13.18913984298706,-0.43,-0.96,-0.08,1.05
13.189620971679688,-0.49,-1.06,-0.05,1.16
13.190067768096924,-0.53,-1.24,-0.11,1.35
13.190460681915283,-0.53,-1.38,-0.14,1.48
13.190914869308472,-0.51,-1.37,-0.23,1.47
13.191340923309326,-0.45,-1.19,-0.25,1.29
13.196731805801392,-0.37,-0.92,-0.11,0.99
13.207860946655273,-0.35,-0.55,0.18,0.67
13.216760873794556,-0.39,-0.08,0.54,0.67
13.288705825805664,-0.42,0.33,0.79,0.95
13.289151668548584,-0.44,0.67,0.83,1.15
13.289584875106812,-0.4,0.86,0.73,1.19
13.290008783340454,-0.29,0.96,0.73,1.24
13.290458679199219,-0.16,1.17,0.74,1.39
13.29090690612793,-0.09,1.36,0.73,1.54
13.291338920593262,-0.02,1.42,0.91,1.68
13.29656171798706,0.05,1.5,1.11,1.86
13.307583808898926,0.05,1.72,1.05,2.01
13.316691875457764,0.07,2.11,1.15,2.4
13.392132759094238,0.13,2.54,1.68,3.04
13.392578840255737,0.23,2.8,1.64,3.25
13.393008708953857,0.34,2.89,0.89,3.04
13.393433809280396,0.55,3.12,0.41,3.19
13.393852710723877,0.74,3.08,0.24,3.17
13.394280910491943,0.81,2.8,-0.15,2.91
13.394707679748535,0.85,2.29,-0.69,2.53
13.396520853042603,0.93,1.64,-1.04,2.15
13.407575845718384,1.03,0.99,-1.5,2.07
13.416647911071777,1.07,0.22,-2.25,2.5
13.492328882217407,0.95,-0.42,-2.72,2.91
13.492786884307861,0.78,-0.92,-2.8,3.04
13.493225812911987,0.58,-1.26,-2.65,2.99
13.493656873703003,0.4,-1.37,-2.48,2.86
13.494081974029541,0.32,-1.25,-2.16,2.51
13.49450969696045,0.39,-0.72,-1.74,1.92
13.494934797286987,0.48,-0.04,-1.38,1.46
13.496420860290527,0.62,0.55,-1.14,1.4
13.507416725158691,0.76,1.04,-0.94,1.59
13.516483783721924,0.86,1.46,-0.91,1.92
13.592260837554932,0.94,1.69,-1.0,2.17
13.592710971832275,0.88,1.74,-1.04,2.2
13.593149662017822,0.78,1.64,-0.92,2.03
13.593580722808838,0.69,1.35,-0.76,1.69
13.594008922576904,0.59,0.89,-0.64,1.24
13.594440937042236,0.55,0.32,-0.65,0.9
13.59486985206604,0.52,-0.26,-0.74,0.94
13.596319675445557,0.51,-0.75,-0.85,1.24
13.607279777526855,0.53,-1.14,-0.94,1.56
13.616390705108643,0.57,-1.41,-1.07,1.85
13.692026853561401,0.58,-1.62,-1.16,2.07
13.692478656768799,0.56,-1.72,-1.37,2.26
13.692916870117188,0.53,-1.75,-1.31,2.24
13.693346977233887,0.5,-1.77,-1.42,2.32
13.693773746490479,0.44,-1.75,-1.53,2.36
13.694199800491333,0.4,-1.59,-1.51,2.22
13.69463586807251,0.48,-1.33,-1.49,2.05
13.69622278213501,0.56,-1.24,-1.42,1.96
13.707274913787842,0.63,-1.03,-1.34,1.8
13.716322898864746,0.7,-0.7,-1.18,1.54
13.791615962982178,0.68,-0.41,-0.98,1.26
13.792072772979736,0.65,-0.09,-0.8,1.03
13.792507648468018,0.69,0.21,-0.6,0.93
13.792937755584717,0.78,0.39,-0.47,0.99
13.793365955352783,0.86,0.56,-0.38,1.09
13.793789863586426,1.0,0.74,-0.29,1.27
13.79421091079712,1.11,0.87,-0.3,1.44
13.796087741851807,1.16,0.86,-0.37,1.49
13.807315826416016,1.13,0.76,-0.46,1.43
13.816269874572754,1.06,0.57,-0.45,1.28
13.892390727996826,1.01,0.28,-0.46,1.14
13.892887830734253,0.92,-0.01,-0.58,1.08
13.89332389831543,0.86,-0.24,-0.67,1.11
13.893714904785156,0.79,-0.24,-0.66,1.05
13.894149780273438,0.68,0.13,-0.89,1.12
13.894576787948608,0.59,0.86,-0.74,1.27
13.895051956176758,0.52,1.87,-0.26,1.95
13.896055698394775,0.43,2.69,0.0,2.72
13.907492876052856,0.2,2.86,-0.21,2.87
13.916094779968262,-0.17,2.41,-0.98,2.6
13.9925856590271,-0.39,1.58,-1.76,2.39
13.993034839630127,-0.43,0.76,-2.07,2.24
13.993478775024414,-0.27,-0.22,-2.11,2.13
13.99390983581543,0.0,-1.06,-2.01,2.27
13.994314670562744,0.32,-1.49,-2.01,2.52
13.994747877120972,0.51,-1.54,-1.72,2.36
13.995200872421265,0.63,-1.08,-1.27,1.78
13.995858669281006,0.66,-0.41,-0.89,1.18
14.007572650909424,0.63,0.19,-0.53,0.84
14.01583480834961,0.54,0.76,-0.22,0.95
14.092845916748047,0.39,1.28,-0.15,1.34
14.093295812606812,0.29,1.66,-0.3,1.71
14.093729972839355,0.3,1.79,-0.44,1.86
14.09415864944458,0.48,1.69,-0.52,1.83
14.09458875656128,0.71,1.43,-0.57,1.69
14.09503984451294,0.9,1.04,-0.6,1.5
14.095464706420898,1.04,0.57,-0.7,1.37
14.095894813537598,1.1,0.13,-0.77,1.34
14.107527732849121,1.07,-0.22,-0.85,1.38
14.115837812423706,0.96,-0.48,-0.87,1.38
14.192576885223389,0.86,-0.63,-0.89,1.38
14.193030834197998,0.81,-0.7,-0.93,1.41
14.193468809127808,0.8,-0.71,-1.0,1.46
14.19388484954834,0.79,-0.67,-1.03,1.46
14.194315910339355,0.74,-0.61,-1.08,1.44
14.194747924804688,0.62,-0.6,-1.15,1.43
14.19520092010498,0.47,-0.54,-1.09,1.3
14.195633888244629,0.34,-0.4,-0.98,1.11
14.207404851913452,0.27,-0.25,-0.9,0.97
14.215755939483643,0.21,-0.1,-0.79,0.82
14.291865825653076,0.13,0.03,-0.7,0.71
14.29231595993042,0.06,0.14,-0.67,0.68
14.292755842208862,-0.02,0.25,-0.59,0.64
14.29318380355835,-0.05,0.4,-0.42,0.58
14.293599843978882,-0.13,0.49,-0.3,0.58
14.29403281211853,-0.17,0.59,-0.23,0.65
14.294456958770752,-0.15,0.7,-0.15,0.73
14.295456886291504,-0.1,0.78,-0.14,0.79
14.375677824020386,-0.04,0.86,-0.14,0.87
14.376128673553467,0.01,0.94,-0.16,0.95
14.376560688018799,0.05,0.95,-0.22,0.97
14.376989841461182,0.08,0.93,-0.16,0.94
14.377416849136353,0.09,1.02,-0.19,1.04
14.377838850021362,0.12,1.18,-0.18,1.19
14.378261804580688,0.19,1.3,-0.06,1.31
14.37868070602417,0.24,1.42,0.14,1.44
14.385451793670654,0.3,1.47,0.16,1.5
14.395301818847656,0.38,1.46,-0.08,1.51
14.475744724273682,0.46,1.34,-0.13,1.42
14.476188659667969,0.57,1.02,-0.3,1.2
14.476624965667725,0.72,0.55,-0.57,1.07
14.477055788040161,0.84,0.05,-0.8,1.16
14.477490901947021,0.9,-0.49,-1.04,1.46
14.477922916412354,0.92,-1.0,-1.22,1.82
14.47831678390503,0.92,-1.43,-1.32,2.15
14.478748798370361,0.86,-1.75,-1.37,2.38
14.48522686958313,0.84,-1.92,-1.32,2.47
14.495177745819092,0.79,-1.9,-1.31,2.43
14.575977802276611,0.89,-1.87,-1.26,2.42
14.576961994171143,1.04,-1.66,-1.16,2.27
14.577407836914062,1.23,-1.28,-0.93,2.0
14.577842712402344,1.44,-0.87,-0.6,1.78
14.578275680541992,1.65,-0.45,-0.35,1.74
14.578704833984375,1.85,-0.06,-0.19,1.86
14.57913064956665,2.0,0.3,-0.08,2.02
14.579551696777344,2.13,0.6,0.02,2.21
14.585210800170898,2.16,0.74,0.05,2.28
14.595107793807983,2.22,0.78,0.0,2.35
14.606242656707764,2.2,0.65,-0.03,2.29
14.676342964172363,2.14,0.51,0.1,2.2
14.676783800125122,2.08,0.35,0.29,2.12
14.677209854125977,2.02,0.11,0.35,2.05
14.677639961242676,1.93,-0.11,0.37,1.96
14.678071975708008,1.82,-0.32,0.27,1.86
14.678497791290283,1.71,-0.51,0.2,1.79
14.67891788482666,1.6,-0.7,0.15,1.75
14.685162782669067,1.53,-0.82,0.12,1.74
14.694950819015503,1.45,-0.9,0.08,1.7
14.706098794937134,1.39,-0.95,0.09,1.68
14.776784896850586,1.27,-0.95,0.13,1.59
14.77723479270935,1.18,-0.85,0.2,1.46
14.777670860290527,1.16,-0.8,0.25,1.43
14.778099775314331,1.15,-0.76,0.3,1.41
14.778533935546875,1.16,-0.69,0.33,1.38
14.77895975112915,1.19,-0.62,0.31,1.37
14.779382705688477,1.23,-0.6,0.3,1.4
14.784856796264648,1.3,-0.58,0.3,1.45
14.794838905334473,1.27,-0.57,0.32,1.42
14.806132793426514,1.27,-0.64,0.35,1.46
14.876730918884277,1.17,-0.7,0.41,1.42
14.877179861068726,1.1,-0.57,0.56,1.35
14.877609729766846,1.09,-0.39,0.73,1.36
14.878002882003784,1.09,-0.16,0.96,1.46
14.878424882888794,1.07,0.16,1.05,1.5
14.878845691680908,0.93,0.03,1.16,1.48
14.879270792007446,1.04,0.14,1.26,1.63
14.884857654571533,0.94,0.52,1.31,1.69
14.89483380317688,0.84,0.82,1.45,1.86
14.906055927276611,0.7,1.1,1.52,2.0
14.97687292098999,0.59,1.11,1.49,1.94
14.977313995361328,0.58,0.84,1.34,1.68
14.977738857269287,0.61,0.48,1.14,1.37
14.97816276550293,0.75,0.09,0.95,1.21
14.978591918945312,0.83,-0.27,0.69,1.11
14.979017734527588,0.87,-0.55,0.51,1.14
14.979411840438843,0.87,-0.58,0.4,1.11
14.98476266860962,0.81,-0.41,0.37,0.98
14.994848728179932,0.72,-0.11,0.35,0.8
15.00588083267212,0.57,0.22,0.28,0.67
15.077274799346924,0.41,0.5,0.17,0.66
15.077720880508423,0.3,0.66,0.26,0.77
15.078153848648071,0.22,0.67,0.13,0.71
15.078585863113403,0.04,0.56,0.02,0.56
15.079017877578735,-0.1,0.36,-0.07,0.38
15.079457759857178,-0.12,0.14,-0.03,0.18
15.079890727996826,-0.16,-0.14,-0.09,0.23
15.084588766098022,-0.3,-0.2,-0.15,0.39
15.094870805740356,-0.4,-0.63,-0.16,0.76
15.105914831161499,-0.49,-0.9,-0.19,1.04
15.177308797836304,-0.62,-0.98,-0.12,1.16
15.177767753601074,-0.78,-1.05,0.04,1.3
15.178210735321045,-0.94,-0.92,0.21,1.33
15.178645849227905,-1.08,-0.73,0.38,1.35
15.179086685180664,-1.14,-0.52,0.58,1.38
15.179519653320312,-1.08,-0.28,0.76,1.34
15.179957866668701,-0.97,0.1,0.85,1.29
15.184592723846436,-0.77,0.47,0.99,1.33
15.194593906402588,-0.7,0.78,1.12,1.53
15.205734729766846,-0.53,0.86,1.11,1.5
15.278085708618164,-0.36,0.7,1.03,1.29
15.278535842895508,-0.31,0.41,0.91,1.04
15.278974771499634,-0.28,-0.03,0.87,0.91
15.279404878616333,-0.31,-0.57,0.89,1.1
15.279839992523193,-0.33,-1.11,0.91,1.47
15.280266761779785,-0.31,-1.51,0.92,1.79
15.2806978225708,-0.29,-1.84,0.83,2.03
15.284382820129395,-0.24,-2.07,0.7,2.19
15.294320821762085,-0.21,-2.11,0.54,2.18
15.305558681488037,-0.19,-2.01,0.39,2.05
15.378570795059204,-0.14,-1.91,0.45,1.96
15.378983974456787,-0.14,-1.83,0.42,1.88
15.379426956176758,-0.15,-1.67,0.33,1.7
15.379823684692383,-0.15,-1.54,0.34,1.58
15.380258798599243,-0.12,-1.4,0.52,1.49
15.380693912506104,-0.05,-1.19,0.8,1.43
15.381130695343018,0.01,-1.06,1.04,1.48
15.384326934814453,0.07,-0.96,1.15,1.49
15.394270896911621,0.08,-0.86,1.22,1.49
15.40542483329773,0.06,-0.73,1.29,1.48
15.479339838027954,-0.05,-0.59,1.29,1.41
15.479797840118408,-0.13,-0.43,1.3,1.37
15.480241775512695,-0.16,-0.22,1.37,1.39
15.480684757232666,-0.21,0.09,1.53,1.54
15.481114864349365,-0.26,0.4,1.69,1.75
15.48155164718628,-0.31,0.66,1.83,1.96
15.481979846954346,-0.37,0.87,1.92,2.14
15.4842209815979,-0.43,0.94,1.93,2.18
15.494220733642578,-0.44,0.85,1.91,2.13
15.505615711212158,-0.37,0.7,1.92,2.07
15.580150842666626,-0.25,0.57,1.94,2.03
15.580586910247803,-0.13,0.49,1.97,2.03
15.580981731414795,0.01,0.49,2.02,2.07
15.58141565322876,0.06,0.6,2.01,2.09
15.581840991973877,0.05,0.94,1.98,2.19
15.58227276802063,-0.03,1.37,2.35,2.72
15.582700729370117,-0.06,1.76,2.5,3.05
15.58414888381958,0.01,2.03,1.98,2.83
15.594089984893799,0.15,2.32,1.41,2.71
15.60547399520874,0.36,2.7,1.14,2.95
15.680840969085693,0.5,2.9,1.02,3.11
15.681283950805664,0.54,2.74,0.63,2.86
15.681729793548584,0.49,2.39,-0.01,2.43
15.682170867919922,0.41,1.95,-0.64,2.09
15.682605743408203,0.31,1.58,-1.0,1.89
15.683034896850586,0.22,1.04,-1.29,1.67
15.68346381187439,0.08,0.47,-1.52,1.59
15.683990955352783,-0.06,-0.07,-1.46,1.46
15.693922996520996,-0.22,-0.46,-1.48,1.56
15.70524787902832,-0.33,-0.74,-1.41,1.62
15.781766891479492,-0.32,-0.81,-1.19,1.47
15.782226800918579,-0.22,-0.77,-1.3,1.52
15.782671928405762,0.0,-0.66,-1.15,1.32
15.783105850219727,0.23,-0.31,-1.0,1.07
15.783554792404175,0.43,0.09,-0.9,1.0
15.783978939056396,0.54,0.25,-0.85,1.03
15.784410953521729,0.62,0.37,-0.94,1.18
15.784797668457031,0.62,0.49,-0.98,1.25
15.793846845626831,0.59,0.68,-0.68,1.12
15.805170774459839,0.56,0.86,-0.34,1.08
15.88219690322876,0.45,0.9,-0.12,1.01
15.882654666900635,0.33,0.77,0.03,0.83
15.883087873458862,0.23,0.56,0.05,0.6
15.883528709411621,0.19,0.17,-0.08,0.26
15.883972883224487,0.14,-0.35,-0.22,0.43
15.884405851364136,0.03,-1.01,-0.37,1.07
15.8848397731781,-0.08,-1.71,-0.48,1.77
15.885272979736328,-0.12,-2.36,-0.55,2.42
15.893748760223389,-0.21,-2.83,-0.63,2.9
15.904977798461914,-0.21,-3.11,-0.61,3.17
15.982953786849976,-0.2,-3.22,-0.59,3.27
15.983425855636597,-0.18,-3.18,-0.56,3.23
15.983824729919434,-0.16,-3.05,-0.56,3.1
15.984264850616455,-0.11,-2.83,-0.49,2.87
15.984692811965942,-0.05,-2.55,-0.37,2.57
15.98512077331543,0.02,-2.35,-0.23,2.36
15.9855477809906,0.13,-2.11,-0.17,2.12
15.985975742340088,0.19,-1.9,-0.09,1.91
15.993607997894287,0.25,-1.74,0.19,1.76
16.004915714263916,0.36,-1.68,0.3,1.74
16.083159923553467,0.44,-1.64,0.35,1.73
16.083613872528076,0.51,-1.61,0.46,1.75
16.08405876159668,0.59,-1.53,0.54,1.72
16.084497928619385,0.63,-1.42,0.62,1.67
16.084895849227905,0.63,-1.27,0.69,1.57
16.085331916809082,0.64,-1.01,0.83,1.45
16.085768699645996,0.65,-0.68,1.1,1.44
16.086203813552856,0.66,-0.26,1.36,1.53
16.093472957611084,0.67,0.14,1.49,1.63
16.104893684387207,0.67,0.46,1.55,1.75
16.183420658111572,0.67,0.81,1.59,1.9
16.183867931365967,0.65,1.01,1.62,2.01
16.184284687042236,0.68,0.98,1.63,2.01
16.18471384048462,0.71,0.84,1.65,1.98
16.18513584136963,0.76,0.73,1.71,2.0
16.185556888580322,0.78,0.77,1.74,2.05
16.185982704162598,0.73,1.03,1.77,2.17
16.186405658721924,0.61,1.58,1.99,2.61
16.19354772567749,0.45,2.2,2.13,3.09
16.204797744750977,0.22,2.78,1.7,3.26
16.283531665802002,-0.07,3.3,1.14,3.49
16.28398585319519,-0.23,3.62,0.76,3.7
16.284425735473633,-0.37,3.58,0.36,3.61
16.28486394882202,-0.44,3.25,-0.36,3.29
16.285258769989014,-0.44,2.44,-1.26,2.78
16.28569483757019,-0.36,1.63,-1.88,2.51
16.28612470626831,-0.18,0.88,-2.12,2.3
16.286561965942383,-0.03,0.12,-1.94,1.94
16.293628692626953,0.04,-0.37,-1.59,1.63
16.3046817779541,-0.02,-0.55,-1.3,1.41
16.38402795791626,-0.25,-0.46,-1.16,1.27
16.38448476791382,-0.55,-0.1,-1.03,1.17
16.384922981262207,-0.76,0.41,-0.77,1.15
16.38535499572754,-0.93,0.99,-0.59,1.48
16.385790824890137,-0.99,1.44,-0.55,1.83
16.38621997833252,-0.96,1.74,-0.8,2.14
16.38664984703064,-0.87,1.81,-1.13,2.3
16.387080669403076,-0.64,1.69,-0.84,1.99
16.393749713897705,-0.41,1.42,-0.67,1.62
16.404545783996582,-0.17,0.97,-0.42,1.07
16.48447895050049,0.08,0.42,-0.27,0.5
16.48494577407837,0.21,-0.22,-0.23,0.38
16.48539400100708,0.26,-0.91,-0.27,0.98
16.485830783843994,0.25,-1.54,-0.45,1.62
16.486265659332275,0.22,-2.04,-0.55,2.12
16.486700773239136,0.15,-2.39,-0.6,2.46
16.48713970184326,0.04,-2.64,-0.67,2.72
16.487568855285645,-0.1,-2.79,-0.72,2.88
16.49372386932373,-0.24,-2.78,-0.71,2.87
16.50444483757019,-0.37,-2.72,-0.63,2.81
16.584770679473877,-0.44,-2.58,-0.55,2.67
16.585206985473633,-0.45,-2.37,-0.45,2.45
16.58564567565918,-0.42,-2.11,-0.25,2.16
16.5860857963562,-0.38,-1.9,-0.13,1.94
16.586520671844482,-0.36,-1.73,-0.07,1.76
16.586952686309814,-0.39,-1.58,-0.03,1.62
16.587382793426514,-0.41,-1.48,0.02,1.53
16.58781671524048,-0.39,-1.47,0.12,1.52
16.593007802963257,-0.37,-1.54,0.21,1.59
16.604368686676025,-0.36,-1.68,0.22,1.73
16.684791803359985,-0.33,-1.77,0.28,1.82
16.685240745544434,-0.25,-1.73,0.4,1.79
16.685682773590088,-0.17,-1.57,0.56,1.67
16.68611979484558,-0.08,-1.3,0.84,1.54
16.686550855636597,-0.12,-0.86,1.0,1.32
16.686981678009033,-0.15,-0.27,1.32,1.35
16.687418937683105,-0.19,0.43,1.59,1.65
16.68784999847412,-0.29,1.04,1.68,1.99
16.693169832229614,-0.37,1.62,1.65,2.34
16.704225778579712,-0.41,2.05,1.66,2.66
16.78514575958252,-0.33,2.26,1.8,2.9
16.785595893859863,-0.24,2.17,2.1,3.02
16.786037921905518,-0.12,2.08,2.28,3.08
16.786471843719482,-0.08,1.97,2.33,3.05
16.78690481185913,-0.14,2.21,2.64,3.44
16.787332773208618,-0.02,2.74,3.21,4.22
16.787760734558105,0.18,3.27,2.96,4.41
16.788182735443115,0.45,3.76,1.82,4.2
16.792810916900635,0.71,4.13,1.05,4.32
16.80411195755005,0.93,4.22,0.75,4.38
16.884707927703857,0.93,3.79,0.02,3.9
16.88516092300415,0.83,2.85,-1.08,3.15
16.885600805282593,0.68,2.05,-1.83,2.83
16.88603186607361,0.54,1.33,-2.24,2.66
16.886464834213257,0.43,0.47,-2.34,2.42
16.886903762817383,0.22,-0.16,-2.33,2.34
16.8873348236084,-0.02,-0.67,-2.12,2.22
16.887772798538208,-0.25,-1.0,-1.76,2.03
16.89267873764038,-0.45,-1.01,-1.42,1.79
16.90391182899475,-0.6,-0.78,-1.22,1.56
16.98552680015564,-0.58,-0.33,-0.98,1.18
16.985976696014404,-0.4,0.08,-0.82,0.91
16.986411809921265,-0.2,0.41,-0.75,0.87
16.986844778060913,0.01,0.71,-0.87,1.12
16.987271785736084,0.18,0.84,-1.05,1.35
16.98769998550415,0.26,0.8,-1.13,1.4
16.988128662109375,0.25,0.6,-1.04,1.22
16.988555908203125,0.18,0.35,-0.94,1.01
16.992570877075195,0.09,0.0,-0.84,0.84
17.003777980804443,-0.03,-0.45,-0.85,0.96
17.086668968200684,-0.12,-0.97,-0.83,1.28
17.087130784988403,-0.2,-1.43,-0.76,1.63
17.08757185935974,-0.24,-1.87,-0.73,2.02
17.088010787963867,-0.27,-2.18,-0.9,2.37
17.08844566345215,-0.21,-2.33,-0.91,2.51
17.08887767791748,-0.18,-2.43,-1.06,2.65
17.08931279182434,-0.12,-2.46,-1.04,2.67
17.08974266052246,-0.04,-2.32,-0.81,2.45
17.092429876327515,0.01,-2.2,-0.76,2.32
17.103620767593384,-0.01,-2.14,-0.82,2.29
17.18705987930298,-0.06,-2.12,-0.8,2.26
17.187517881393433,-0.11,-2.09,-0.74,2.21
17.187964916229248,-0.17,-2.11,-0.7,2.22
17.18839693069458,-0.18,-2.16,-0.67,2.26
17.1888267993927,-0.14,-2.17,-0.5,2.23
17.189254760742188,-0.06,-2.14,-0.35,2.16
17.189682960510254,0.02,-2.08,-0.09,2.08
17.19011688232422,0.08,-1.94,0.13,1.94
17.192319869995117,0.12,-1.69,0.25,1.71
17.2034969329834,0.1,-1.34,0.38,1.39
17.287075996398926,0.12,-0.91,0.72,1.16
17.287526845932007,0.17,-0.47,0.93,1.05
17.287964820861816,0.27,-0.13,0.95,0.99
17.288395881652832,0.39,0.2,0.99,1.08
17.288818836212158,0.56,0.6,1.1,1.37
17.289243698120117,0.68,0.88,1.33,1.73
17.28966784477234,0.78,1.07,1.46,1.97
17.29009199142456,0.74,1.12,1.55,2.05
17.29225182533264,0.68,1.17,1.63,2.11
17.30350399017334,0.68,1.15,1.61,2.09
17.387688875198364,0.69,1.14,1.54,2.03
17.38813066482544,0.8,1.13,1.44,1.99
17.388566970825195,0.83,1.21,1.39,2.02
17.388999938964844,0.92,1.47,1.48,2.27
17.38943099975586,0.95,1.99,1.56,2.7
17.38985776901245,0.97,2.63,1.64,3.24
17.390284776687622,0.93,3.19,1.49,3.64
17.390708923339844,0.75,3.47,0.8,3.63
17.392099857330322,0.46,3.55,0.09,3.58
17.403430938720703,0.19,3.33,-0.42,3.36
17.488375663757324,-0.16,2.66,-0.85,2.79
17.48882484436035,-0.46,1.86,-1.39,2.36
17.48927068710327,-0.65,0.97,-1.93,2.25
17.489704847335815,-0.81,0.04,-2.26,2.4
17.49013376235962,-0.97,-0.7,-2.16,2.46
17.49056386947632,-1.05,-1.09,-1.71,2.28
17.490992784500122,-1.11,-1.17,-1.14,1.97
17.491432666778564,-1.19,-0.82,-0.55,1.54
17.491987705230713,-1.3,-0.19,-0.12,1.31
17.503262996673584,-1.33,0.48,0.05,1.41
17.58906078338623,-1.27,1.12,0.13,1.69
17.589508771896362,-1.1,1.73,0.01,2.05
17.589945793151855,-0.89,2.2,-0.1,2.37
17.59038496017456,-0.69,2.41,-0.12,2.5
17.59081792831421,-0.53,2.23,-0.15,2.29
17.59128189086914,-0.44,1.7,-0.26,1.77
17.591760873794556,-0.4,0.84,-0.34,0.99
17.592209815979004,-0.39,-0.11,-0.38,0.55
17.592644691467285,-0.37,-1.06,-0.37,1.18
17.603230953216553,-0.39,-1.92,-0.42,2.0
17.688727855682373,-0.42,-2.58,-0.5,2.66
17.689231872558594,-0.4,-2.95,-0.63,3.04
17.68963384628296,-0.4,-3.15,-0.76,3.26
17.69007396697998,-0.33,-3.21,-0.86,3.33
17.69050884246826,-0.25,-3.17,-0.91,3.3
17.690935850143433,-0.23,-3.05,-0.97,3.2
17.691391944885254,-0.14,-2.86,-1.0,3.03
17.69182276725769,-0.02,-2.7,-0.95,2.86
17.692254781723022,-0.05,-2.63,-1.05,2.83
17.703293800354004,-0.11,-2.52,-1.1,2.75
17.711814880371094,-0.17,-2.4,-1.08,2.63
17.78932785987854,-0.29,-2.21,-0.97,2.43
17.789787769317627,-0.3,-2.0,-0.65,2.12
17.790233850479126,-0.29,-1.8,-0.56,1.9
17.790672779083252,-0.28,-1.49,-0.32,1.54
17.791136741638184,-0.18,-1.11,0.09,1.12
17.79158067703247,-0.1,-0.56,0.49,0.75
17.792016983032227,-0.06,-0.01,0.85,0.85
17.792447805404663,-0.1,0.53,1.19,1.3
17.802833795547485,-0.13,1.08,1.45,1.81
17.811845779418945,-0.23,1.55,1.48,2.15
17.890041828155518,-0.34,1.87,1.4,2.36
17.89049768447876,-0.36,1.93,1.27,2.33
17.890950679779053,-0.41,1.8,1.29,2.25
17.8913836479187,-0.37,1.56,1.43,2.14
17.891815662384033,-0.32,1.25,1.52,1.99
17.892249822616577,-0.31,0.99,1.55,1.86
17.892674922943115,-0.28,0.94,1.56,1.84
17.893104791641235,-0.18,1.27,1.62,2.06
17.9027578830719,-0.04,1.88,1.79,2.59
17.911593914031982,0.07,2.62,1.96,3.27
17.990336894989014,0.13,3.31,1.91,3.82
17.990782737731934,0.2,3.63,1.31,3.86
17.991177797317505,0.25,3.63,0.37,3.65
17.99160885810852,0.31,3.37,-0.25,3.39
17.99204182624817,0.36,2.77,-0.58,2.85
17.99247169494629,0.34,2.02,-1.14,2.34
17.99289894104004,0.33,1.22,-1.87,2.25
17.993326663970947,0.38,0.39,-2.48,2.53
18.002497673034668,0.43,-0.27,-2.84,2.88
18.011610984802246,0.47,-0.87,-2.76,2.93
18.090648651123047,0.49,-1.36,-2.43,2.82
18.09114384651184,0.33,-1.37,-1.95,2.4
18.091603755950928,0.17,-1.14,-1.48,1.87
18.092055797576904,-0.02,-0.59,-1.07,1.22
18.092503786087036,-0.09,0.11,-0.61,0.62
18.092941761016846,0.0,0.83,-0.12,0.83
18.093382835388184,0.13,1.45,-0.02,1.45
18.093814849853516,0.16,1.82,-0.18,1.83
18.10236167907715,0.17,2.0,-0.39,2.04
18.11136293411255,0.12,1.94,-0.48,2.0
18.191417694091797,0.02,1.54,-0.57,1.64
18.191833972930908,-0.04,0.94,-0.57,1.1
18.192280769348145,-0.06,0.25,-0.49,0.55
18.192718982696533,-0.01,-0.44,-0.4,0.59
18.193153858184814,0.02,-1.15,-0.39,1.21
18.19358777999878,0.05,-1.8,-0.44,1.85
18.193986892700195,0.05,-2.24,-0.53,2.3
18.194421768188477,-0.03,-2.49,-0.59,2.55
18.20218777656555,-0.13,-2.57,-0.67,2.65
18.211339950561523,-0.16,-2.48,-0.76,2.59
18.292367935180664,-0.22,-2.31,-0.8,2.45
18.292820930480957,-0.19,-2.16,-0.84,2.32
18.29326295852661,-0.17,-2.09,-0.81,2.24
18.29369878768921,-0.11,-2.06,-0.78,2.2
18.294089794158936,-0.08,-2.11,-0.78,2.25
18.294482707977295,-0.08,-2.17,-0.87,2.33
18.294911861419678,-0.03,-2.19,-0.85,2.34
18.29534888267517,0.01,-2.17,-0.77,2.3
18.302071809768677,0.05,-2.1,-0.67,2.2
18.311137676239014,0.13,-1.91,-0.4,1.95
18.39232087135315,0.22,-1.56,0.1,1.57
18.39277696609497,0.27,-1.17,0.6,1.34
18.39321279525757,0.3,-0.81,1.05,1.35
18.393662929534912,0.36,-0.5,1.3,1.43
18.39405393600464,0.42,-0.22,1.3,1.38
18.394484996795654,0.46,-0.02,1.16,1.24
18.39491081237793,0.53,0.12,0.76,0.93
18.395294666290283,0.53,0.25,0.71,0.92
18.402209758758545,0.56,0.38,1.0,1.2
18.411098957061768,0.52,0.37,1.0,1.18
18.49358892440796,0.54,0.31,1.24,1.38
18.49403476715088,0.6,0.35,1.3,1.47
18.494423866271973,0.6,0.5,1.34,1.55
18.494847774505615,0.62,0.67,1.52,1.77
18.495272874832153,0.6,1.05,1.55,1.96
18.49569582939148,0.59,1.53,1.44,2.18
18.496115684509277,0.6,2.16,1.5,2.69
18.497023820877075,0.6,2.85,1.59,3.31
18.502084732055664,0.53,3.23,1.45,3.57
18.511029720306396,0.36,3.34,0.81,3.45
18.594292879104614,0.14,3.17,0.06,3.17
18.594748973846436,-0.07,2.87,-0.29,2.88
18.59519100189209,-0.34,2.44,-0.44,2.5
18.59562873840332,-0.63,1.74,-0.72,1.98
18.596065998077393,-0.88,0.93,-1.25,1.78
18.59649682044983,-1.05,0.04,-1.85,2.12
18.597471714019775,-1.14,-0.88,-2.39,2.79
18.597917795181274,-1.2,-1.48,-2.63,3.24
18.60187292098999,-1.21,-1.61,-2.44,3.16
18.610875844955444,-1.1,-1.22,-1.82,2.45
18.69519877433777,-0.96,-0.44,-1.02,1.46
18.695655822753906,-0.8,0.41,-0.27,0.93
18.696099758148193,-0.64,1.25,0.32,1.44
18.696534872055054,-0.52,2.05,0.44,2.16
18.697507858276367,-0.38,2.61,0.16,2.64
18.697967767715454,-0.33,2.97,-0.14,2.99
18.698426723480225,-0.14,3.01,-0.27,3.02
18.698864936828613,0.08,2.55,-0.42,2.58
18.70186471939087,0.17,1.76,-0.37,1.8
18.710861682891846,0.19,0.73,-0.32,0.81
18.796382904052734,0.09,-0.37,-0.23,0.44
18.796844959259033,-0.02,-1.33,-0.21,1.34
18.797801971435547,-0.09,-2.04,-0.26,2.05
18.7982439994812,-0.16,-2.48,-0.36,2.51
18.798685789108276,-0.25,-2.67,-0.39,2.7
18.79913568496704,-0.27,-2.68,-0.47,2.73
18.799543857574463,-0.27,-2.56,-0.59,2.64
18.799996852874756,-0.28,-2.35,-0.68,2.46
18.801763772964478,-0.25,-2.13,-0.78,2.28
18.810714721679688,-0.24,-1.98,-0.8,2.14
18.89692497253418,-0.25,-1.83,-0.79,2.0
18.897918701171875,-0.34,-1.71,-0.81,1.92
18.89829683303833,-0.34,-1.71,-0.83,1.93
18.898756980895996,-0.44,-1.84,-0.75,2.03
18.89919090270996,-0.43,-1.89,-0.63,2.03
18.899648666381836,-0.37,-2.02,-0.51,2.11
18.900104999542236,-0.29,-2.05,-0.33,2.09
18.900548934936523,-0.21,-1.97,-0.12,1.98
18.90231990814209,-0.18,-1.79,0.05,1.79
18.910481929779053,-0.18,-1.46,0.3,1.5
18.997869968414307,-0.21,-1.06,0.55,1.21
18.998318672180176,-0.27,-0.63,0.79,1.04
18.998759746551514,-0.3,-0.2,0.99,1.05
18.99919080734253,-0.35,0.33,1.06,1.16
18.999642848968506,-0.37,0.87,1.13,1.47
19.00005078315735,-0.37,1.29,1.16,1.77
19.000476837158203,-0.33,1.59,1.25,2.04
19.00090479850769,-0.32,1.77,1.38,2.26
19.002631664276123,-0.25,1.9,1.63,2.51
19.010405778884888,-0.19,1.9,1.84,2.65
19.098816871643066,-0.19,1.82,1.89,2.63
19.099268913269043,-0.27,1.93,1.77,2.63
19.09976077079773,-0.35,2.3,1.57,2.8
19.100201845169067,-0.37,2.77,1.81,3.32
19.100645780563354,-0.21,3.0,2.27,3.76
19.10108995437622,0.0,2.74,1.58,3.16
19.10152292251587,0.21,2.46,0.86,2.61
19.101956844329834,0.49,2.44,0.7,2.58
19.10370182991028,0.59,2.3,0.68,2.46
19.11031484603882,0.46,1.94,0.13,1.99
19.198885917663574,0.24,1.63,-0.44,1.7
19.19935894012451,0.08,1.43,-0.84,1.66
19.199827671051025,-0.01,1.16,-1.11,1.6
19.20026397705078,-0.03,0.76,-1.38,1.57
19.200694799423218,-0.04,0.34,-1.53,1.56
19.201082706451416,-0.04,-0.01,-1.54,1.54
19.201472759246826,-0.09,-0.22,-1.54,1.55
19.201899766921997,-0.18,-0.41,-1.61,1.67
19.203608989715576,-0.24,-0.48,-1.6,1.68
19.210243701934814,-0.22,-0.43,-1.43,1.5
19.299786806106567,-0.08,-0.35,-1.27,1.31
19.300256729125977,0.08,-0.27,-1.11,1.14
19.300715923309326,0.27,-0.11,-1.0,1.04
19.301153659820557,0.49,0.03,-1.04,1.15
19.3015878200531,0.61,0.11,-1.17,1.32
19.302023887634277,0.64,0.23,-1.19,1.37
19.302461862564087,0.65,0.37,-1.01,1.25
19.30289387702942,0.57,0.41,-0.78,1.04
19.30464267730713,0.49,0.29,-0.61,0.83
19.31007671356201,0.38,0.06,-0.51,0.63
19.400298833847046,0.3,-0.29,-0.52,0.66
19.400749683380127,0.2,-0.66,-0.51,0.85
19.401188850402832,0.1,-1.08,-0.73,1.3
19.401627779006958,-0.01,-1.5,-1.02,1.81
19.402061939239502,-0.12,-1.8,-1.18,2.15
19.402493000030518,-0.17,-1.97,-1.09,2.25
19.40288496017456,-0.17,-2.08,-0.97,2.3
19.40327286720276,-0.17,-2.07,-0.91,2.26
19.404988765716553,-0.08,-2.12,-0.85,2.28
19.409907817840576,-0.03,-2.09,-0.71,2.2
19.50071883201599,0.02,-2.04,-0.57,2.11
19.50118589401245,0.08,-1.99,-0.48,2.04
19.501628875732422,0.07,-1.96,-0.37,1.99
19.502071857452393,0.05,-1.9,-0.25,1.91
19.502508878707886,0.03,-1.8,-0.16,1.8
19.502864837646484,0.03,-1.7,-0.16,1.7
19.50326180458069,0.04,-1.65,-0.16,1.65
19.50370478630066,0.05,-1.55,-0.02,1.55
19.50536298751831,0.17,-1.42,0.08,1.43
19.509828805923462,0.25,-1.35,0.16,1.38
19.601845741271973,0.32,-1.14,0.32,1.22
19.60229778289795,0.43,-0.91,0.43,1.09
19.60273265838623,0.45,-0.64,0.48,0.91
19.603127002716064,0.45,-0.33,0.56,0.79
19.603516817092896,0.45,-0.03,0.64,0.78
19.603948831558228,0.46,0.3,0.73,0.91
19.6043758392334,0.45,0.61,0.88,1.16
19.60476064682007,0.45,0.85,1.05,1.42
19.606445789337158,0.45,0.96,1.2,1.6
19.60968279838562,0.48,0.94,1.24,1.62
19.70260000228882,0.54,0.91,1.17,1.57
19.703056812286377,0.6,1.05,0.98,1.55
19.703494787216187,0.68,1.4,0.99,1.84
19.70393991470337,0.66,2.02,1.25,2.46
19.7043719291687,0.54,2.73,1.66,3.24
19.704800844192505,0.33,3.41,1.83,3.88
19.70524287223816,-0.02,3.86,1.54,4.15
19.70567798614502,-0.34,4.12,0.89,4.22
19.70733070373535,-0.55,4.02,0.6,4.1
19.70962381362915,-0.63,3.35,0.21,3.41
19.803635835647583,-0.68,2.41,-0.38,2.53
19.804091930389404,-0.6,1.29,-0.99,1.73
19.804532766342163,-0.63,0.08,-1.65,1.76
19.804964780807495,-0.74,-0.94,-1.99,2.32
19.805397987365723,-0.81,-1.53,-2.03,2.66
19.805831909179688,-0.94,-1.58,-1.81,2.57
19.80625867843628,-1.05,-1.22,-1.39,2.12
19.806686878204346,-1.1,-0.54,-0.97,1.56
19.808403968811035,-1.14,0.21,-0.61,1.3
19.80955982208252,-1.16,0.85,-0.39,1.49
19.90492868423462,-1.08,1.45,-0.17,1.81
19.90535283088684,-0.99,1.94,-0.17,2.18
19.90581464767456,-0.87,2.28,-0.31,2.45
19.906269788742065,-0.67,2.35,-0.33,2.46
19.90670871734619,-0.41,2.0,-0.37,2.07
19.907150745391846,-0.21,1.48,-0.36,1.53
19.90758991241455,-0.07,0.81,-0.32,0.87
19.908029794692993,-0.02,-0.05,-0.39,0.39
19.909772872924805,-0.02,-0.9,-0.54,1.04
19.910223960876465,-0.08,-1.65,-0.71,1.79
20.005639791488647,-0.12,-2.2,-0.86,2.36
20.006083965301514,-0.15,-2.6,-1.01,2.79
20.006516933441162,-0.22,-2.88,-1.12,3.09
20.006950855255127,-0.2,-2.93,-1.14,3.15
20.007380962371826,-0.25,-2.86,-1.15,3.09
20.00780987739563,-0.27,-2.72,-1.17,2.97
20.0082368850708,-0.41,-2.45,-1.12,2.72
20.008697986602783,-0.45,-2.2,-0.99,2.45
20.01040482521057,-0.48,-1.99,-0.95,2.25
20.010838985443115,-0.54,-1.84,-0.88,2.1
20.106918811798096,-0.58,-1.72,-0.91,2.03
20.107330799102783,-0.58,-1.6,-0.78,1.87
20.107778787612915,-0.52,-1.48,-0.63,1.69
20.108218669891357,-0.43,-1.4,-0.51,1.55
20.108654975891113,-0.32,-1.26,-0.32,1.33
20.10908794403076,-0.25,-1.09,-0.07,1.12
20.109479904174805,-0.25,-0.8,0.12,0.84
20.109914779663086,-0.31,-0.41,0.41,0.65
20.111620903015137,-0.37,0.0,0.77,0.85
20.112058877944946,-0.46,0.43,1.05,1.22
20.208213806152344,-0.59,0.83,1.15,1.53
20.20869278907776,-0.62,1.13,1.05,1.66
20.209133863449097,-0.64,1.35,0.97,1.78
20.209566831588745,-0.58,1.46,0.95,1.83
20.209991931915283,-0.45,1.45,1.04,1.84
20.21041774749756,-0.31,1.42,1.22,1.89
20.2108416557312,-0.21,1.32,1.42,1.95
20.211269855499268,-0.15,1.33,1.57,2.06
20.21299171447754,-0.16,1.45,1.58,2.15
20.21342372894287,-0.15,1.75,1.61,2.38
20.309016704559326,-0.07,2.21,1.66,2.76
20.30950164794922,0.06,2.61,1.91,3.23
20.309974670410156,0.29,2.82,1.83,3.37
20.31044292449951,0.43,2.84,1.13,3.08
20.310909748077393,0.56,2.79,0.47,2.88
20.31137466430664,0.59,2.72,0.25,2.79
20.311835765838623,0.58,2.46,0.15,2.53
20.312309741973877,0.5,2.05,-0.17,2.11
20.31407880783081,0.44,1.55,-0.62,1.72
20.314512729644775,0.46,1.01,-1.09,1.55
20.410499811172485,0.5,0.37,-1.54,1.66
20.410911798477173,0.5,-0.34,-1.96,2.05
20.41135597229004,0.37,-0.88,-2.44,2.62
20.411791801452637,0.16,-1.3,-2.4,2.73
20.41222882270813,-0.03,-1.53,-2.24,2.71
20.41266179084778,-0.32,-1.73,-2.36,2.94
20.41309690475464,-0.5,-1.71,-2.14,2.78
20.413529872894287,-0.53,-1.28,-1.73,2.21
20.415259838104248,-0.54,-0.72,-1.32,1.59
20.41569685935974,-0.51,-0.2,-0.91,1.06
20.51161766052246,-0.39,0.26,-0.7,0.84
20.512115955352783,-0.22,0.7,-0.69,1.0
20.512557983398438,0.0,1.12,-0.77,1.35
20.512990951538086,0.22,1.55,-0.81,1.76
20.51342487335205,0.43,1.91,-0.88,2.14
20.51385498046875,0.6,2.16,-0.85,2.39
20.514291763305664,0.68,2.17,-0.73,2.38
20.514681816101074,0.68,1.82,-0.66,2.05
20.51640486717224,0.59,1.26,-0.62,1.52
20.613118648529053,0.38,0.55,-0.6,0.89
20.61366367340088,0.26,-0.22,-0.68,0.76
20.61414670944214,0.1,-0.88,-0.79,1.18
20.614584922790527,-0.03,-1.32,-0.88,1.58
20.615023851394653,-0.11,-1.58,-0.91,1.82
20.615453720092773,-0.14,-1.62,-0.87,1.84
20.615882873535156,-0.12,-1.55,-0.89,1.79
20.616310834884644,-0.09,-1.48,-0.94,1.75
20.61674165725708,-0.13,-1.37,-1.01,1.7
20.619025707244873,-0.09,-1.29,-1.11,1.7
20.619470834732056,-0.04,-1.27,-1.22,1.76
20.619922876358032,0.03,-1.23,-1.34,1.81
20.62877368927002,0.11,-1.23,-1.26,1.76
20.72883892059326,0.19,-1.21,-1.11,1.65
20.72930383682251,0.25,-1.18,-0.95,1.53
20.72974681854248,0.3,-1.07,-0.67,1.29
20.730188846588135,0.34,-0.97,-0.41,1.1
20.730592727661133,0.34,-0.93,-0.31,1.03
20.73102569580078,0.32,-0.92,-0.41,1.05
20.732776880264282,0.37,-0.82,-0.51,1.03
20.733219861984253,0.49,-0.64,-0.4,0.89
20.8292818069458,0.61,-0.37,-0.14,0.72
20.829805850982666,0.74,-0.09,0.14,0.75
20.830252647399902,0.82,0.16,0.42,0.93
20.830689907073975,0.84,0.36,0.5,1.04
20.831084728240967,0.84,0.44,0.41,1.03
20.831520795822144,0.82,0.46,0.18,0.95
20.831954956054688,0.91,0.48,0.08,1.03
20.832380771636963,0.99,0.35,0.01,1.05
20.930362701416016,1.04,0.19,-0.08,1.06
20.93080472946167,1.06,0.06,0.02,1.06
20.93124294281006,1.0,0.02,0.09,1.0
20.93168067932129,0.84,0.28,0.03,0.88
20.932111740112305,0.64,0.79,0.14,1.02
20.932549953460693,0.44,1.51,0.49,1.64
20.932981967926025,0.22,2.36,0.79,2.49
20.933412790298462,0.0,2.94,0.63,3.0
20.933860778808594,-0.14,3.23,0.31,3.24
20.934844970703125,-0.35,3.4,0.12,3.42
20.93650984764099,-0.45,3.18,-0.13,3.21
20.936954975128174,-0.48,2.48,-0.52,2.57
20.937410831451416,-0.57,1.77,-0.97,2.09
20.937870979309082,-0.52,0.85,-1.32,1.65
20.938333988189697,-0.44,-0.05,-1.58,1.64
20.948448657989502,-0.24,-0.81,-1.87,2.05
21.048540830612183,-0.06,-1.24,-1.96,2.32
21.049002647399902,0.14,-1.18,-1.76,2.12
21.049441814422607,0.31,-0.83,-1.42,1.67
21.049879789352417,0.38,-0.29,-1.27,1.35
21.052170753479004,0.34,0.3,-1.09,1.18
21.052631855010986,0.38,0.94,-0.64,1.19
21.053079843521118,0.37,1.51,-0.81,1.75
21.0535306930542,0.44,1.9,-0.79,2.1
21.05392074584961,0.68,2.22,-0.79,2.45
21.05432891845703,0.93,2.22,-0.86,2.55
21.058335781097412,1.16,1.95,-0.91,2.44
21.16614079475403,1.31,1.4,-0.94,2.13
21.166602849960327,1.37,0.8,-0.9,1.82
21.167049884796143,1.35,0.17,-0.85,1.6
21.169246673583984,1.24,-0.35,-0.86,1.54
21.16969394683838,1.1,-0.72,-0.87,1.57
21.17015266418457,0.93,-0.93,-0.95,1.62
21.17058777809143,0.74,-1.02,-1.09,1.66
21.171026706695557,0.55,-0.97,-1.17,1.61
21.17145872116089,0.35,-0.89,-1.21,1.54
21.17190170288086,0.24,-0.74,-1.24,1.46
21.17233681678772,0.18,-0.49,-1.25,1.35
21.17820692062378,0.13,-0.26,-1.17,1.2
21.283655881881714,0.07,-0.1,-1.07,1.07
21.286041736602783,0.09,0.04,-0.96,0.96
21.286503791809082,0.07,0.01,-0.88,0.88
21.28696084022522,0.09,0.0,-0.85,0.85
21.287420749664307,0.02,-0.04,-0.86,0.86
21.28786587715149,-0.04,-0.07,-0.92,0.92
21.288298845291138,-0.14,-0.1,-0.94,0.95
21.288732767105103,-0.23,-0.08,-0.88,0.91
21.28917694091797,-0.26,0.01,-0.69,0.73
21.289609909057617,-0.19,0.15,-0.31,0.39
21.290042877197266,-0.09,0.3,-0.06,0.31
21.29899787902832,0.0,0.35,-0.01,0.35
21.4006187915802,0.07,0.25,0.04,0.26
21.401092767715454,0.1,0.1,-0.04,0.14
21.402026653289795,0.07,-0.07,-0.16,0.18
21.402482986450195,0.0,-0.18,-0.22,0.28
21.40285873413086,-0.09,-0.18,-0.22,0.29
21.403305768966675,-0.21,-0.09,-0.21,0.31
21.40375566482544,-0.35,-0.01,-0.23,0.41
21.404209852218628,-0.45,0.04,-0.27,0.52
21.404653787612915,-0.52,0.12,-0.29,0.6
21.406400680541992,-0.53,0.16,-0.32,0.63
21.407898902893066,-0.48,0.11,-0.38,0.62
21.417863845825195,-0.47,0.0,-0.53,0.7
21.517650842666626,-0.43,-0.11,-0.52,0.68
21.518127918243408,-0.38,-0.2,-0.5,0.65
21.51906967163086,-0.37,-0.25,-0.65,0.78
21.5195369720459,-0.42,-0.12,-0.72,0.84
21.519937992095947,-0.42,0.06,-0.67,0.79
21.520380973815918,-0.39,0.22,-0.6,0.74
21.520821809768677,-0.3,0.4,-0.55,0.74
21.522653818130493,-0.15,0.57,-0.48,0.76
21.52310276031494,0.07,0.71,-0.49,0.86
21.523538827896118,0.25,0.8,-0.6,1.03
21.527801990509033,0.38,0.88,-0.62,1.14
21.634974002838135,0.59,0.91,-0.66,1.26
21.635445833206177,0.8,0.89,-0.76,1.41
21.63589882850647,1.07,0.88,-0.83,1.61
21.636348724365234,1.29,0.81,-1.0,1.82
21.636783838272095,1.55,0.71,-1.01,1.98
21.637239933013916,1.77,0.61,-0.77,2.02
21.639039993286133,1.88,0.4,-0.74,2.05
21.639476776123047,2.0,0.17,-0.72,2.13
21.639904975891113,2.02,0.03,-0.77,2.16
21.640333652496338,1.94,-0.1,-0.89,2.13
21.64075994491577,1.82,-0.2,-1.15,2.16
21.647639751434326,1.75,-0.34,-1.04,2.06
21.751606941223145,1.7,-0.49,-0.84,1.95
21.752439975738525,1.76,-0.64,-0.77,2.02
21.75290083885193,1.82,-0.78,-0.71,2.1
21.753342866897583,1.86,-0.77,-0.67,2.12
21.755114793777466,1.88,-0.68,-0.56,2.07
21.75556182861328,1.91,-0.54,-0.51,2.04
21.756006717681885,1.92,-0.38,-0.46,2.01
21.756407737731934,1.92,-0.24,-0.44,1.98
21.756866931915283,1.88,-0.05,-0.4,1.92
21.757288932800293,1.91,0.01,-0.27,1.92
21.757720947265625,1.93,0.02,-0.18,1.93
21.767505884170532,1.89,0.11,-0.14,1.89
21.868841648101807,1.88,0.13,-0.1,1.88
21.869305849075317,1.8,0.14,-0.11,1.8
21.870978832244873,1.75,0.1,-0.11,1.75
21.871418952941895,1.66,0.07,-0.13,1.66
21.87185788154602,1.57,-0.02,-0.21,1.58
21.87229084968567,1.53,-0.18,-0.28,1.56
21.872679710388184,1.49,-0.28,-0.28,1.54
21.873109817504883,1.42,-0.25,-0.2,1.45
21.873541831970215,1.37,-0.14,-0.14,1.38
21.873968839645386,1.35,-0.05,0.0,1.35
21.87732982635498,1.31,0.04,0.06,1.31
21.98525094985962,1.24,0.1,0.04,1.24
21.987525939941406,1.15,0.1,-0.02,1.15
21.98798179626465,1.11,0.08,-0.06,1.11
21.98842477798462,1.09,-0.03,0.05,1.09
21.988894939422607,1.11,-0.2,0.19,1.14
21.989330768585205,1.03,-0.3,0.15,1.08
21.9897677898407,0.97,-0.45,0.12,1.07
21.990200996398926,0.9,-0.48,0.2,1.03
21.99063277244568,0.88,-0.43,0.3,1.02
21.991063833236694,0.84,-0.45,0.36,1.01
21.99145483970642,0.78,-0.45,0.33,0.95
21.998170852661133,0.72,-0.4,0.43,0.92
22.1020827293396,0.7,-0.3,0.55,0.93
22.102986812591553,0.7,-0.32,0.68,1.02
22.103461742401123,0.71,-0.36,0.71,1.06
22.10390567779541,0.73,-0.4,0.69,1.08
22.10435676574707,0.75,-0.45,0.68,1.1
22.10481071472168,0.79,-0.54,0.59,1.12
22.10524892807007,0.88,-0.65,0.56,1.22
22.105690002441406,0.93,-0.68,0.61,1.3
22.106132984161377,0.98,-0.65,0.71,1.37
22.107792854309082,1.0,-0.63,0.74,1.39
22.108232975006104,1.02,-0.56,0.7,1.35
22.117239952087402,1.01,-0.49,0.68,1.31
22.21914768218994,0.94,-0.31,0.65,1.18
22.220104694366455,0.85,0.0,0.62,1.05
22.220561981201172,0.8,0.3,0.68,1.09
22.220996856689453,0.77,0.45,0.65,1.1
22.221441745758057,0.64,0.48,0.57,0.98
22.22187089920044,0.47,0.42,0.47,0.78
22.222293853759766,0.39,0.32,0.33,0.6
22.224008798599243,0.35,0.05,0.1,0.36
22.22444486618042,0.33,-0.3,-0.07,0.45
22.22488784790039,0.32,-0.57,-0.23,0.69
22.227051734924316,0.17,-0.79,-0.38,0.89
22.335532665252686,0.05,-1.01,-0.37,1.07
22.336005687713623,-0.09,-0.85,-0.19,0.87
22.336970806121826,-0.48,-0.49,0.07,0.68
22.33743667602539,-0.63,-0.08,0.32,0.71
22.337891817092896,-0.59,0.29,0.46,0.8
22.338342666625977,-0.48,0.51,0.56,0.89
22.340181827545166,-0.47,0.78,0.8,1.21
22.340624809265137,-0.48,0.7,0.54,1.0
22.3410587310791,-0.32,0.41,0.39,0.65
22.341497898101807,-0.12,0.09,0.24,0.28
22.34193181991577,-0.13,-0.08,0.28,0.31
22.34688687324524,-0.27,-0.28,0.33,0.51
22.452870845794678,-0.35,-0.41,0.51,0.74
22.453815937042236,-0.57,-0.28,0.8,1.02
22.454283714294434,-0.74,-0.08,1.04,1.27
22.45472288131714,-0.8,0.09,1.16,1.41
22.456507682800293,-0.81,0.22,1.2,1.46
22.45695686340332,-0.76,0.2,1.05,1.31
22.457392692565918,-0.68,-0.02,0.88,1.11
22.45784091949463,-0.56,-0.26,0.7,0.93
22.458277702331543,-0.44,-0.58,0.46,0.86
22.45870876312256,-0.36,-0.95,0.32,1.06
22.459141731262207,-0.32,-1.3,0.24,1.36
22.466789722442627,-0.25,-1.59,0.31,1.63
22.568858861923218,-0.31,-1.67,0.37,1.73
22.56934380531311,-0.43,-1.66,0.46,1.77
22.571536779403687,-0.48,-1.54,0.57,1.71
22.571995735168457,-0.41,-1.37,0.67,1.57
22.57245683670044,-0.37,-1.08,0.84,1.41
22.572909832000732,-0.35,-0.75,0.96,1.26
22.57335376739502,-0.33,-0.48,1.05,1.2
22.57379984855652,-0.25,-0.34,1.09,1.16
22.57423686981201,-0.21,-0.25,1.1,1.14
22.574638843536377,-0.21,-0.21,1.19,1.22
22.57674264907837,-0.17,-0.17,1.37,1.39
22.686105728149414,-0.1,-0.27,1.5,1.52
22.688376903533936,-0.06,-0.46,1.58,1.64
22.68882465362549,-0.05,-0.69,1.63,1.77
22.68923282623291,-0.08,-0.87,1.63,1.84
22.689668655395508,-0.11,-1.0,1.61,1.89
22.690103769302368,-0.13,-1.12,1.59,1.94
22.690533876419067,-0.15,-1.24,1.51,1.95
22.69097876548767,-0.21,-1.3,1.42,1.93
22.691412925720215,-0.24,-1.28,1.4,1.91
22.69184184074402,-0.28,-1.11,1.34,1.76
22.692269802093506,-0.31,-0.91,1.4,1.69
22.697468757629395,-0.34,-0.54,1.47,1.6
22.80193567276001,-0.33,-0.17,1.51,1.55
22.80237579345703,-0.3,0.19,1.57,1.6
22.80280876159668,-0.26,0.62,1.65,1.78
22.803245782852173,-0.23,1.0,1.77,2.04
22.804175853729248,-0.23,1.28,1.87,2.27
22.80461883544922,-0.22,1.37,1.9,2.35
22.805063724517822,-0.2,1.42,1.94,2.41
22.805453777313232,-0.17,1.42,1.99,2.45
22.805904865264893,-0.11,1.47,1.98,2.46
22.807649850845337,-0.13,1.47,2.03,2.5
22.808095932006836,-0.16,1.49,2.1,2.57
22.816454887390137,-0.24,1.59,2.28,2.79
22.919757843017578,-0.16,1.63,2.36,2.87
22.920227766036987,-0.06,1.59,2.29,2.78
22.92097783088684,0.07,1.54,1.97,2.5
22.921437740325928,0.14,1.63,1.63,2.3
22.921875953674316,0.17,1.74,1.39,2.23
22.92232370376587,0.22,1.8,1.23,2.19
22.92276382446289,0.2,1.7,0.96,1.96
22.92447566986084,0.17,1.51,0.48,1.59
22.9249267578125,0.09,1.11,-0.13,1.12
22.92532968521118,0.09,0.65,-0.53,0.84
22.926268815994263,0.07,0.2,-1.11,1.13
22.936315774917603,-0.11,-0.27,-1.68,1.7
23.037035942077637,-0.18,-0.67,-1.9,2.02
23.037983894348145,-0.28,-0.84,-1.99,2.17
23.038428783416748,-0.23,-0.97,-1.96,2.19
23.038879871368408,-0.12,-1.12,-1.82,2.14
23.03931474685669,0.08,-1.08,-1.61,1.94
23.04109477996826,0.29,-1.03,-1.44,1.79
23.041544914245605,0.48,-0.86,-1.31,1.63
23.041976928710938,0.73,-0.64,-1.2,1.54
23.042414665222168,0.92,-0.29,-1.07,1.44
23.0428409576416,1.03,0.15,-0.82,1.32
23.04622983932495,1.01,0.61,-0.69,1.36
23.153055667877197,0.92,0.95,-0.51,1.41
23.15352487564087,0.74,1.18,-0.21,1.4
23.154512882232666,0.49,1.29,0.02,1.38
23.154967784881592,0.21,1.19,0.11,1.21
23.156762838363647,0.0,0.87,0.17,0.88
23.157217979431152,-0.15,0.35,0.15,0.4
23.157676696777344,-0.23,-0.39,0.0,0.45
23.158116817474365,-0.33,-1.11,-0.22,1.17
23.15856170654297,-0.32,-1.65,-0.39,1.72
23.158994674682617,-0.29,-2.05,-0.42,2.11
23.15943193435669,-0.27,-2.36,-0.44,2.41
23.16596484184265,-0.23,-2.61,-0.48,2.66
23.271270751953125,-0.21,-2.7,-0.49,2.75
23.271761894226074,-0.28,-2.75,-0.47,2.8
23.273566722869873,-0.37,-2.71,-0.4,2.76
23.274054765701294,-0.32,-2.62,-0.28,2.65
23.274489879608154,-0.33,-2.57,-0.15,2.59
23.274922847747803,-0.19,-2.4,0.1,2.4
23.275378704071045,-0.08,-2.26,0.25,2.27
23.275813817977905,0.02,-2.09,0.36,2.12
23.27624273300171,0.04,-2.01,0.45,2.06
23.276673793792725,0.18,-1.83,0.46,1.89
23.277100801467896,0.28,-1.73,0.57,1.84
23.285886764526367,0.3,-1.64,0.55,1.75
23.487578868865967,0.31,-1.45,0.46,1.55
23.48839569091797,0.35,-1.13,0.46,1.26
23.48885488510132,0.41,-0.8,0.58,1.06
23.489293813705444,0.54,-0.47,0.81,1.08
23.48973798751831,0.63,-0.08,1.03,1.21
23.490170001983643,0.68,0.31,1.26,1.46
23.4905948638916,0.76,0.62,1.45,1.75
23.491021871566772,0.78,0.8,1.4,1.79
23.491381883621216,0.78,0.99,1.4,1.88
23.49181890487671,0.75,1.11,1.36,1.9
23.493533849716187,0.65,1.12,1.3,1.83
23.493958950042725,0.63,1.24,1.32,1.91
23.494386672973633,0.61,1.52,1.38,2.14
23.49481177330017,0.58,1.95,1.67,2.63
23.495263814926147,0.56,2.53,2.1,3.33
23.495683670043945,0.5,3.12,2.42,3.98
23.496107816696167,0.41,3.61,2.24,4.26
23.496532917022705,0.32,3.93,1.65,4.27
23.496956825256348,0.15,4.12,1.09,4.26
23.497378826141357,0.13,4.02,0.66,4.07
23.498910903930664,0.15,3.31,0.09,3.31
23.606526851654053,0.11,2.21,-0.62,2.29
23.60701584815979,0.07,1.06,-1.14,1.55
23.60747981071472,0.0,-0.06,-1.61,1.61
23.60793685913086,-0.15,-1.02,-1.97,2.22
23.60839581489563,-0.28,-1.63,-2.11,2.68
23.608848810195923,-0.53,-1.84,-2.19,2.9
23.609298706054688,-0.91,-1.65,-2.23,2.91
23.609752655029297,-1.23,-1.24,-1.88,2.56
23.610201835632324,-1.36,-0.76,-1.25,1.99
23.611990928649902,-1.54,-0.25,-0.8,1.75
23.61243486404419,-1.52,0.24,-0.45,1.6
23.615391731262207,-1.41,0.77,-0.4,1.65
23.72263193130493,-1.16,1.24,-0.44,1.75
23.72305393218994,-0.85,1.65,-0.44,1.9
23.72350287437439,-0.43,1.76,-0.37,1.84
23.723944664001465,-0.11,1.59,-0.31,1.62
23.724387884140015,0.0,1.08,-0.24,1.1
23.72484278678894,0.01,0.37,-0.22,0.43
23.725229740142822,0.0,-0.38,-0.22,0.43
23.726881980895996,-0.03,-1.15,-0.28,1.18
23.72733187675476,-0.11,-1.78,-0.41,1.82
23.727765798568726,-0.12,-2.1,-0.51,2.16
23.72819995880127,-0.11,-2.26,-0.6,2.34
23.73531675338745,-0.12,-2.37,-0.71,2.47
23.840434789657593,-0.14,-2.36,-0.77,2.48
23.840887784957886,-0.13,-2.22,-0.75,2.34
23.84132981300354,-0.19,-2.09,-0.66,2.19
23.841765880584717,-0.14,-2.05,-0.56,2.12
23.842156887054443,-0.14,-1.93,-0.51,2.0
23.843856811523438,-0.2,-1.77,-0.4,1.82
23.844298839569092,-0.21,-1.72,-0.25,1.75
23.844737768173218,-0.22,-1.58,-0.19,1.6
23.84516978263855,-0.3,-1.6,-0.12,1.63
23.84556293487549,-0.34,-1.61,-0.12,1.64
23.845993995666504,-0.35,-1.7,-0.08,1.73
23.95551586151123,-0.35,-1.76,-0.12,1.79
23.956448793411255,-0.35,-1.74,-0.14,1.78
23.956904888153076,-0.38,-1.49,-0.05,1.53
23.957359790802002,-0.35,-1.17,0.26,1.24
23.95913076400757,-0.31,-0.91,0.64,1.15
23.95957374572754,-0.3,-0.62,0.89,1.12
23.960051774978638,-0.31,-0.33,1.11,1.19
23.960516929626465,-0.25,0.08,1.29,1.31
23.960991859436035,-0.21,0.5,1.41,1.51
23.96143078804016,-0.15,0.87,1.51,1.74
23.96190071105957,-0.13,1.18,1.58,1.97
23.96501588821411,-0.15,1.44,1.73,2.25
24.073729991912842,-0.17,1.59,1.92,2.49
24.074177742004395,-0.13,1.77,1.86,2.57
24.075910806655884,-0.08,2.23,1.99,2.98
24.07635188102722,-0.06,2.84,2.45,3.75
24.07678985595703,0.0,3.32,2.74,4.3
24.07721781730652,0.13,3.34,2.23,4.01
24.077645778656006,0.31,3.26,1.21,3.49
24.078068733215332,0.36,3.55,0.53,3.6
24.078489780426025,0.4,3.46,0.24,3.49
24.078918933868408,0.39,2.75,-0.27,2.79
24.079357862472534,0.32,1.93,-1.1,2.24
24.08492684364319,0.27,1.3,-1.66,2.12
24.19074773788452,0.29,0.68,-2.03,2.16
24.19120693206787,0.34,0.05,-2.33,2.35
24.19163990020752,0.36,-0.44,-2.29,2.35
24.19208288192749,0.35,-0.7,-2.12,2.25
24.192527770996094,0.29,-0.72,-2.01,2.15
24.192967891693115,0.3,-0.62,-1.85,1.97
24.193365812301636,0.3,-0.35,-1.44,1.51
24.193827867507935,0.33,0.02,-1.1,1.14
24.194278717041016,0.36,0.33,-0.88,1.0
24.194714784622192,0.33,0.64,-0.73,1.02
24.196338653564453,0.28,0.94,-1.03,1.42
24.204888820648193,0.07,1.19,-0.93,1.51
24.307065963745117,-0.02,1.37,-0.43,1.43
24.307557821273804,-0.11,1.4,-0.44,1.47
24.308043956756592,-0.15,1.17,-0.28,1.21
24.308515787124634,-0.18,0.78,-0.13,0.81
24.309000968933105,-0.19,0.29,-0.16,0.38
24.309440851211548,-0.2,-0.32,-0.29,0.47
24.309871673583984,-0.23,-0.99,-0.38,1.08
24.310306787490845,-0.31,-1.54,-0.5,1.64
24.31196880340576,-0.4,-2.02,-0.61,2.14
24.31240677833557,-0.45,-2.21,-0.69,2.35
24.31476879119873,-0.51,-2.36,-0.69,2.51
24.422761917114258,-0.44,-2.53,-0.69,2.65
24.423226833343506,-0.37,-2.58,-0.65,2.68
24.423675775527954,-0.31,-2.5,-0.61,2.59
24.42413091659546,-0.24,-2.41,-0.6,2.49
24.424577713012695,-0.13,-2.36,-0.57,2.43
24.425012826919556,-0.08,-2.32,-0.59,2.39
24.425410747528076,-0.02,-2.24,-0.59,2.31
24.427194833755493,0.04,-2.19,-0.55,2.25
24.42763876914978,0.07,-2.17,-0.44,2.21
24.42807388305664,0.09,-2.1,-0.31,2.12
24.428507804870605,0.13,-1.96,-0.18,1.97
24.434570789337158,0.21,-1.78,0.02,1.79
24.54084086418152,0.29,-1.51,0.26,1.55
24.54130983352661,0.35,-1.13,0.39,1.24
24.541786670684814,0.44,-0.79,0.43,1.0
24.542219877243042,0.54,-0.51,0.64,0.98
24.54265594482422,0.59,-0.2,0.81,1.02
24.544389724731445,0.63,0.06,0.88,1.08
24.54482364654541,0.62,0.31,0.95,1.17
24.54525375366211,0.61,0.48,1.15,1.38
24.545679807662964,0.53,0.75,1.44,1.7
24.546108722686768,0.5,0.89,1.6,1.89
24.546534776687622,0.49,0.93,1.66,1.96
24.55452871322632,0.49,1.01,1.64,1.98
24.65660572052002,0.6,1.2,1.61,2.09
24.657068729400635,0.64,1.6,1.62,2.36
24.65750479698181,0.59,2.25,1.9,3.0
24.659159660339355,0.56,3.02,2.34,3.86
24.6595938205719,0.41,3.6,2.52,4.41
24.66002082824707,0.12,4.0,1.93,4.44
24.66046667098999,-0.13,4.22,1.09,4.36
24.660898685455322,-0.37,4.25,0.75,4.33
24.66133165359497,-0.56,3.94,0.53,4.01
24.661762714385986,-0.69,3.25,0.1,3.32
24.66437077522278,-0.76,2.38,-0.59,2.56
24.77453899383545,-0.76,1.38,-1.26,2.01
24.774996757507324,-0.69,0.26,-1.69,1.84
24.77671766281128,-0.63,-0.71,-2.04,2.25
24.77715492248535,-0.55,-1.49,-2.31,2.8
24.77759599685669,-0.54,-1.95,-2.22,3.0
24.778063774108887,-0.5,-2.02,-1.87,2.79
24.778494834899902,-0.64,-1.82,-1.6,2.5
24.778923988342285,-0.78,-1.43,-1.36,2.12
24.77935266494751,-0.84,-0.91,-1.0,1.59
24.779780864715576,-0.82,-0.37,-0.67,1.12
24.780211925506592,-0.74,0.15,-0.53,0.92
24.784181833267212,-0.63,0.69,-0.54,1.07
24.89200186729431,-0.51,1.12,-0.41,1.29
24.892462730407715,-0.33,1.3,-0.36,1.38
24.89291477203369,-0.15,1.21,-0.44,1.29
24.893385887145996,-0.02,0.84,-0.6,1.03
24.89384365081787,-0.01,0.34,-0.71,0.78
24.894240856170654,-0.01,-0.23,-0.39,0.45
24.89468479156494,-0.11,-0.93,-0.44,1.03
24.895118713378906,-0.18,-1.64,-0.48,1.71
24.895474910736084,-0.18,-2.11,-0.48,2.17
24.895906925201416,-0.16,-2.38,-0.45,2.42
24.89753484725952,-0.21,-2.49,-0.48,2.54
24.904048919677734,-0.32,-2.45,-0.51,2.52
25.00955867767334,-0.33,-2.33,-0.6,2.42
25.01002597808838,-0.36,-2.19,-0.58,2.29
25.01046895980835,-0.4,-1.98,-0.49,2.07
25.010865688323975,-0.4,-1.84,-0.54,1.95
25.011298656463623,-0.33,-1.77,-0.48,1.86
25.01173496246338,-0.24,-1.75,-0.4,1.81
25.01216983795166,-0.19,-1.76,-0.33,1.8
25.012597799301147,-0.18,-1.7,-0.2,1.72
25.014334678649902,-0.19,-1.68,0.01,1.69
25.014737844467163,-0.21,-1.68,0.06,1.69
25.015111923217773,-0.25,-1.68,0.05,1.69
25.124477863311768,-0.29,-1.62,0.07,1.64
25.12531089782715,-0.32,-1.36,0.11,1.4
25.1257586479187,-0.26,-1.07,0.31,1.14
25.126200675964355,-0.22,-0.64,0.61,0.91
25.126632690429688,-0.24,-0.17,1.02,1.06
25.12706470489502,-0.3,0.31,1.33,1.39
25.12749195098877,-0.41,0.79,1.51,1.75
25.12919569015503,-0.48,1.29,1.6,2.11
25.129631996154785,-0.49,1.73,1.71,2.48
25.13001775741577,-0.49,1.96,1.76,2.67
25.130441665649414,-0.48,2.0,1.94,2.82
25.13382077217102,-0.4,1.8,2.06,2.76
25.24089479446411,-0.34,1.59,2.1,2.65
25.24135684967041,-0.23,1.61,2.13,2.67
25.24180579185486,-0.13,1.99,2.12,2.91
25.242244720458984,0.04,2.55,2.44,3.52
25.242677688598633,0.22,3.07,2.51,3.97
25.24439573287964,0.36,3.38,1.87,3.87
25.24483585357666,0.47,3.73,1.19,3.94
25.245280742645264,0.63,4.16,0.96,4.31
25.24571180343628,0.67,4.17,0.61,4.26
25.24614977836609,0.58,3.58,-0.04,3.62
25.246588706970215,0.52,2.71,-0.77,2.86
25.253769874572754,0.39,1.98,-1.33,2.41
25.358917713165283,0.29,1.11,-1.82,2.15
25.35938286781311,0.18,0.25,-2.2,2.22
25.359818935394287,0.05,-0.38,-2.19,2.22
25.361586809158325,-0.07,-0.68,-1.73,1.86
25.362042903900146,-0.17,-0.83,-1.49,1.71
25.362494945526123,-0.23,-0.84,-1.47,1.7
25.362960815429688,-0.17,-0.64,-1.41,1.55
25.363390922546387,-0.04,-0.34,-1.34,1.38
25.3638277053833,0.09,-0.1,-1.29,1.29
25.36425495147705,0.21,0.08,-1.34,1.35
25.364683866500854,0.28,0.21,-1.53,1.56
25.373671770095825,0.34,0.32,-1.55,1.61
25.474730968475342,0.4,0.42,-1.31,1.43
25.476423740386963,0.41,0.36,-1.02,1.15
25.476886749267578,0.34,0.16,-0.75,0.83
25.477333784103394,0.24,-0.1,-0.63,0.68
25.4777889251709,0.16,-0.42,-0.59,0.74
25.47823476791382,0.11,-0.79,-0.62,1.01
25.47867178916931,0.09,-1.17,-0.71,1.37
25.479123830795288,0.05,-1.51,-0.84,1.72
25.479557991027832,-0.04,-1.75,-1.12,2.07
25.479991912841797,-0.13,-1.99,-1.11,2.28
25.483531951904297,-0.12,-2.27,-1.0,2.48
25.59464979171753,-0.18,-2.34,-1.07,2.57
25.5951189994812,-0.08,-2.44,-0.94,2.61
25.59557867050171,0.03,-2.4,-0.82,2.53
25.596045970916748,0.07,-2.31,-0.6,2.38
25.59648370742798,0.11,-2.23,-0.52,2.29
25.59691882133484,0.15,-2.13,-0.41,2.17
25.5973539352417,0.19,-2.04,-0.3,2.07
25.597787857055664,0.21,-1.91,-0.29,1.94
25.59822368621826,0.24,-1.8,-0.22,1.82
25.59865665435791,0.28,-1.75,-0.08,1.77
25.600218772888184,0.31,-1.64,-0.02,1.66
25.603291988372803,0.29,-1.52,0.03,1.54
25.708783864974976,0.32,-1.35,0.12,1.39
25.7092227935791,0.37,-1.14,0.27,1.22
25.70965576171875,0.35,-0.99,0.32,1.09
25.710043907165527,0.35,-0.87,0.37,1.0
25.71047592163086,0.38,-0.64,0.45,0.86
25.71090078353882,0.4,-0.39,0.5,0.74
25.711317777633667,0.37,-0.16,0.63,0.74
25.711747646331787,0.38,0.16,0.79,0.89
25.713473796844482,0.41,0.47,0.99,1.17
25.713902950286865,0.47,0.67,1.18,1.43
25.714329719543457,0.54,0.8,1.38,1.68
25.72329092025757,0.64,0.92,1.45,1.83
25.825955867767334,0.74,1.05,1.46,1.94
25.826414823532104,0.82,1.39,1.49,2.19
25.82685685157776,0.78,1.95,1.53,2.59
25.827293872833252,0.63,2.66,1.94,3.35
25.827727794647217,0.35,3.25,2.1,3.88
25.82817578315735,-0.02,3.6,1.64,3.95
25.829819679260254,-0.3,4.02,1.19,4.2
25.830259799957275,-0.4,4.39,1.26,4.58
25.830700874328613,-0.38,4.17,1.14,4.33
25.831092834472656,-0.38,3.26,0.5,3.31
25.83306884765625,-0.38,2.21,-0.45,2.28
25.944466829299927,-0.3,1.0,-1.23,1.61
25.94492483139038,-0.22,-0.24,-1.75,1.78
25.94536280632019,-0.19,-1.28,-2.14,2.5
25.94579577445984,-0.22,-1.9,-2.31,2.99
25.94622778892517,-0.32,-2.06,-2.21,3.03
25.947887897491455,-0.49,-1.78,-1.91,2.65
25.948320865631104,-0.7,-1.13,-1.58,2.06
25.948765754699707,-0.82,-0.39,-1.15,1.46
25.949199676513672,-0.83,0.27,-0.64,1.08
25.949628829956055,-0.8,0.86,-0.19,1.18
25.950055837631226,-0.74,1.38,-0.07,1.56
25.953000783920288,-0.66,1.76,-0.35,1.91
26.05964469909668,-0.5,1.86,-0.54,2.0
26.060115814208984,-0.23,1.74,-0.43,1.8
26.060572862625122,0.05,1.34,-0.27,1.36
26.062334775924683,0.25,0.68,-0.11,0.73
26.06279182434082,0.33,-0.13,-0.13,0.37
26.063232898712158,0.27,-1.01,-0.3,1.08
26.0636727809906,0.16,-1.89,-0.46,1.95
26.064109802246094,0.07,-2.46,-0.61,2.53
26.06454586982727,-0.02,-2.73,-0.69,2.81
26.064984798431396,-0.07,-2.82,-0.77,2.92
26.06541681289673,-0.18,-2.76,-0.76,2.86
26.072982788085938,-0.25,-2.55,-0.78,2.67
26.17941188812256,-0.29,-2.33,-0.76,2.46
26.181220769882202,-0.37,-2.04,-0.71,2.19
26.181705951690674,-0.45,-1.75,-0.8,1.97
26.182185649871826,-0.51,-1.59,-0.43,1.72
26.182617664337158,-0.47,-1.3,-0.31,1.41
26.183047771453857,-0.41,-1.27,-0.15,1.34
26.18344283103943,-0.41,-1.22,0.05,1.28
26.183875799179077,-0.38,-1.17,0.22,1.24
26.184265851974487,-0.38,-1.24,0.31,1.33
26.184696674346924,-0.4,-1.29,0.32,1.38
26.185085773468018,-0.41,-1.33,0.32,1.42
26.397986888885498,-0.4,-1.33,0.33,1.42
26.3984158039093,-0.4,-1.2,0.27,1.29
26.398897647857666,-0.43,-0.94,0.32,1.08
26.399333953857422,-0.39,-0.57,0.51,0.85
26.399725914001465,-0.39,-0.2,0.7,0.82
26.400153875350952,-0.41,0.24,0.86,0.98
26.40058183670044,-0.4,0.62,0.89,1.15
26.40101194381714,-0.41,1.0,0.99,1.46
26.40143871307373,-0.34,1.42,1.08,1.81
26.401882648468018,-0.32,1.47,1.21,1.93
26.40359878540039,-0.16,1.54,1.34,2.04
26.40404486656189,0.0,1.64,1.57,2.27
26.40447187423706,0.11,1.77,1.66,2.42
26.40489387512207,0.2,2.03,1.81,2.72
26.40531873703003,0.19,2.39,2.11,3.19
26.40574288368225,0.2,2.69,2.34,3.57
26.406161785125732,0.31,2.9,2.13,3.61
26.40658473968506,0.4,3.0,1.42,3.34
26.407007694244385,0.58,3.2,0.82,3.35
26.40742778778076,0.66,3.4,0.46,3.49
26.40898084640503,0.64,3.24,0.07,3.3
26.51239776611328,0.51,2.73,-0.53,2.82
26.513287782669067,0.34,2.14,-1.26,2.5
26.513746738433838,0.26,1.54,-1.52,2.17
26.51414966583252,0.26,0.87,-1.76,1.98
26.514591693878174,0.24,0.12,-2.05,2.06
26.515034675598145,0.11,-0.51,-2.26,2.31
26.515475749969482,-0.02,-0.89,-2.2,2.37
26.515907764434814,-0.12,-1.06,-1.99,2.25
26.51634693145752,-0.17,-1.05,-1.75,2.04
26.518075942993164,-0.13,-0.75,-1.47,1.65
26.5185227394104,-0.04,-0.25,-1.08,1.1
26.51896381378174,0.08,0.25,-0.74,0.78
26.522361755371094,0.23,0.66,-0.56,0.89
26.632339000701904,0.35,0.9,-0.64,1.15
26.632837772369385,0.43,1.08,-0.61,1.31
26.633322715759277,0.46,1.17,-0.47,1.34
26.633798837661743,0.44,1.09,-0.36,1.22
26.634278774261475,0.39,0.79,-0.3,0.93
26.634748935699463,0.33,0.37,-0.26,0.55
26.63661479949951,0.28,-0.14,-0.22,0.38
26.637064933776855,0.19,-0.71,-0.22,0.76
26.63749885559082,0.17,-1.22,-0.27,1.26
26.63793182373047,0.14,-1.7,-0.41,1.75
26.638367652893066,0.08,-2.03,-0.57,2.11
26.642172813415527,0.06,-2.24,-0.64,2.33
26.746262788772583,-0.06,-2.39,-0.7,2.49
26.7467257976532,-0.12,-2.45,-0.82,2.58
26.747172832489014,-0.2,-2.53,-0.84,2.67
26.747609853744507,-0.31,-2.5,-0.76,2.63
26.7493097782135,-0.31,-2.43,-0.57,2.51
26.749756813049316,-0.32,-2.37,-0.4,2.42
26.750191688537598,-0.28,-2.22,-0.34,2.26
26.75062584877014,-0.23,-2.19,-0.35,2.22
26.75105571746826,-0.16,-2.08,-0.36,2.11
26.751511812210083,-0.14,-1.89,-0.57,1.97
26.752015829086304,-0.08,-1.83,-0.36,1.86
26.865883827209473,0.04,-1.83,-0.34,1.86
26.8663649559021,0.08,-1.79,-0.29,1.81
26.866827964782715,0.24,-1.62,-0.15,1.64
26.86857581138611,0.38,-1.26,0.18,1.32
26.869008779525757,0.44,-0.84,0.57,1.1
26.86944079399109,0.48,-0.5,0.75,1.02
26.86987280845642,0.5,-0.2,0.82,0.98
26.870300769805908,0.6,0.08,0.94,1.11
26.87072467803955,0.68,0.34,1.01,1.26
26.871148824691772,0.75,0.55,0.98,1.35
26.871572971343994,0.77,0.72,0.97,1.43
26.872002840042114,0.85,0.84,1.03,1.57
26.983190774917603,0.88,0.83,1.07,1.61
26.98509979248047,0.9,0.74,1.05,1.56
26.985591888427734,0.92,0.86,1.01,1.61
26.986060857772827,0.88,1.36,0.99,1.89
26.98654580116272,0.75,2.08,1.32,2.57
26.987008810043335,0.56,2.91,1.91,3.52
26.987477779388428,0.3,3.58,2.0,4.11
26.987943649291992,-0.09,4.09,1.44,4.33
26.988391876220703,-0.34,4.54,1.08,4.67
26.988841772079468,-0.42,4.75,0.93,4.85
26.98928689956665,-0.48,4.35,0.6,4.41
26.992809772491455,-0.52,3.36,-0.19,3.4
27.097466945648193,-0.43,2.34,-0.98,2.57
27.09793186187744,-0.33,1.23,-1.33,1.84
27.098376750946045,-0.34,0.02,-1.46,1.49
27.098817825317383,-0.46,-1.12,-1.71,2.09
27.099254846572876,-0.66,-1.85,-1.85,2.69
27.09971785545349,-0.85,-2.15,-2.15,3.15
27.100138664245605,-1.09,-1.99,-2.19,3.15
27.10057282447815,-1.26,-1.42,-1.92,2.7
27.101008892059326,-1.35,-0.73,-1.45,2.11
27.102741718292236,-1.33,-0.04,-0.87,1.58
27.10318374633789,-1.23,0.54,-0.4,1.4
27.2144718170166,-1.11,1.03,-0.36,1.55
27.214932918548584,-0.91,1.45,-0.42,1.76
27.215336799621582,-0.64,1.72,-0.42,1.88
27.215765953063965,-0.32,1.79,-0.48,1.88
27.216206789016724,-0.09,1.63,-0.51,1.71
27.216641902923584,0.13,1.21,-0.48,1.3
27.217078685760498,0.23,0.5,-0.46,0.71
27.217519760131836,0.25,-0.43,-0.44,0.66
27.219228744506836,0.2,-1.33,-0.44,1.41
27.2196307182312,0.1,-2.07,-0.44,2.11
27.220075845718384,-0.01,-2.52,-0.49,2.56
27.22160768508911,-0.12,-2.7,-0.53,2.75
27.33467674255371,-0.18,-2.69,-0.59,2.75
27.33513879776001,-0.23,-2.56,-0.64,2.64
27.33557677268982,-0.25,-2.33,-0.65,2.43
27.336009979248047,-0.29,-2.02,-0.69,2.15
27.336410999298096,-0.29,-1.76,-0.64,1.89
27.336864948272705,-0.33,-1.57,-0.55,1.69
27.338517665863037,-0.37,-1.45,-0.5,1.57
27.33895492553711,-0.41,-1.38,-0.45,1.5
27.339388847351074,-0.48,-1.37,-0.36,1.49
27.339777946472168,-0.48,-1.41,-0.3,1.51
27.34019684791565,-0.44,-1.43,-0.22,1.51
27.341391801834106,-0.38,-1.4,-0.09,1.45
27.44829487800598,-0.31,-1.39,-0.08,1.42
27.448757648468018,-0.3,-1.31,-0.15,1.35
27.449200868606567,-0.29,-1.13,-0.05,1.16
27.449639797210693,-0.33,-0.82,0.23,0.91
27.451409816741943,-0.38,-0.44,0.37,0.68
27.45185089111328,-0.43,-0.07,0.73,0.85
27.45225191116333,-0.43,0.36,0.85,1.01
27.452688694000244,-0.45,0.79,0.93,1.3
27.453121662139893,-0.37,1.15,1.06,1.6
27.45355796813965,-0.23,1.48,1.24,1.94
27.453994750976562,-0.14,1.66,1.46,2.21
27.565334796905518,-0.14,1.62,1.51,2.21
27.565754890441895,-0.17,1.53,1.51,2.15
27.56620478630066,-0.19,1.63,1.46,2.19
27.567863941192627,-0.24,1.96,1.29,2.35
27.568309783935547,-0.23,2.35,1.58,2.84
27.56874680519104,-0.09,2.76,2.13,3.48
27.569180965423584,0.12,3.0,1.84,3.52
27.569610834121704,0.37,3.11,1.18,3.34
27.570039749145508,0.63,3.28,0.93,3.46
27.570474863052368,0.83,3.31,0.69,3.48
27.57093095779419,0.81,3.05,0.03,3.15
27.571366786956787,0.69,2.44,-0.66,2.62
27.686169862747192,0.6,1.75,-1.18,2.19
27.68791675567627,0.47,1.06,-1.69,2.04
27.68837594985962,0.29,0.2,-2.02,2.05
27.68880796432495,0.08,-0.48,-2.0,2.05
27.689257860183716,-0.2,-0.87,-1.89,2.09
27.689705848693848,-0.49,-1.12,-1.84,2.2
27.690162658691406,-0.74,-1.19,-1.8,2.28
27.690626859664917,-0.83,-0.97,-1.69,2.11
27.691078662872314,-0.74,-0.68,-1.4,1.72
27.691529750823975,-0.52,-0.32,-1.11,1.26
27.691986799240112,-0.32,0.03,-0.97,1.02
27.693577766418457,-0.1,0.19,-0.84,0.86
27.806243896484375,0.1,0.29,-0.93,0.97
27.80674386024475,0.24,0.4,-1.18,1.26
27.807223796844482,0.35,0.49,-1.3,1.43
27.807676792144775,0.42,0.52,-1.17,1.34
27.808084964752197,0.4,0.52,-0.93,1.13
27.808530807495117,0.32,0.34,-0.81,0.93
27.80897283554077,0.27,0.09,-0.65,0.7
27.80941390991211,0.21,-0.09,-0.6,0.64
27.80986499786377,0.13,-0.39,-0.59,0.71
27.923744678497314,0.08,-0.69,-0.66,0.95
27.92430877685547,0.04,-0.94,-0.67,1.15
27.924799919128418,-0.03,-1.12,-0.74,1.34
27.925273895263672,-0.06,-1.28,-0.81,1.51
27.92574691772461,-0.09,-1.35,-0.85,1.59
27.926198959350586,-0.13,-1.36,-0.83,1.59
27.926651000976562,-0.18,-1.37,-0.79,1.59
27.927120685577393,-0.16,-1.38,-0.69,1.55
27.927546977996826,-0.12,-1.37,-0.62,1.5
27.9279727935791,-0.11,-1.36,-0.53,1.46
27.93022084236145,-0.08,-1.4,-0.48,1.48
27.930668830871582,0.0,-1.43,-0.45,1.49
27.931121826171875,0.05,-1.46,-0.46,1.53
27.931550979614258,0.1,-1.5,-0.44,1.56
27.9319908618927,0.14,-1.56,-0.46,1.63
27.940865993499756,0.18,-1.59,-0.46,1.66
28.0518479347229,0.21,-1.56,-0.5,1.65
28.052313804626465,0.25,-1.41,-0.43,1.49
28.05276393890381,0.32,-1.15,-0.26,1.22
28.053200721740723,0.39,-0.86,-0.1,0.94
28.054937839508057,0.47,-0.51,0.17,0.71
28.0553879737854,0.58,-0.18,0.41,0.73
28.055823802947998,0.71,0.08,0.51,0.87
28.056256771087646,0.82,0.31,0.47,0.99
28.056689739227295,0.89,0.53,0.49,1.14
28.057118892669678,0.95,0.7,0.4,1.24
28.057548999786377,0.89,0.79,0.26,1.21
28.060608863830566,0.92,0.76,0.52,1.3
28.171624660491943,0.91,0.68,0.38,1.19
28.172120809555054,0.85,0.61,0.54,1.17
28.17398977279663,0.89,0.83,0.67,1.38
28.174461841583252,0.81,1.39,0.81,1.8
28.174953937530518,0.72,2.04,1.29,2.51
28.17538595199585,0.63,2.73,1.63,3.24
28.175809860229492,0.45,3.31,1.29,3.58
28.17623281478882,0.31,3.81,0.72,3.88
28.17665982246399,0.26,4.03,0.57,4.07
28.177080869674683,0.22,3.92,0.46,3.95
28.177518844604492,0.2,3.15,-0.09,3.15
28.290133953094482,0.02,2.21,-0.75,2.33
28.291847705841064,0.0,1.3,-1.24,1.79
28.292285919189453,0.12,0.19,-1.47,1.48
28.29272174835205,0.18,-0.77,-1.89,2.04
28.2931547164917,0.21,-1.53,-2.27,2.74
28.2935848236084,0.15,-1.82,-2.48,3.07
28.294009685516357,0.03,-1.61,-2.36,2.85
28.29444169998169,-0.12,-1.07,-1.85,2.14
28.29489278793335,-0.31,-0.29,-1.23,1.3
28.29534077644348,-0.4,0.43,-0.67,0.89
28.29578399658203,-0.43,1.01,-0.24,1.12
28.41007089614868,-0.35,1.56,-0.2,1.61
28.410525798797607,-0.13,1.99,-0.42,2.03
28.410964965820312,0.23,2.13,-0.69,2.25
28.41139793395996,0.68,2.04,-0.96,2.35
28.411828994750977,1.02,1.73,-1.11,2.29
28.412214756011963,1.26,1.21,-1.11,2.06
28.412642002105713,1.38,0.39,-1.01,1.75
28.526102781295776,1.36,-0.56,-0.95,1.75
28.52660894393921,1.23,-1.33,-1.02,2.07
28.527087688446045,1.08,-1.77,-1.19,2.39
28.528886795043945,0.91,-2.0,-1.33,2.56
28.529366970062256,0.75,-1.99,-1.45,2.57
28.643274784088135,0.59,-1.76,-1.56,2.42
28.643775939941406,0.47,-1.52,-1.65,2.29
28.644254684448242,0.39,-1.22,-1.75,2.16
28.644728660583496,0.36,-0.87,-1.74,1.97
28.645208835601807,0.34,-0.51,-1.69,1.79
28.645652770996094,0.31,-0.16,-1.56,1.59
28.6460599899292,0.31,0.15,-1.39,1.43
28.647050857543945,0.3,0.45,-1.16,1.27
28.64884090423584,0.16,0.44,-0.96,1.06
28.64931082725525,0.07,0.59,-0.9,1.07
28.649781703948975,0.03,0.75,-0.67,1.0
28.650218963623047,-0.02,0.89,-0.51,1.02
28.650661945343018,0.0,0.85,-0.47,0.97
28.65107488632202,-0.03,0.81,-0.55,0.97
28.651508808135986,0.05,0.64,-0.71,0.95
28.651919841766357,0.07,0.39,-0.87,0.95
28.652342796325684,0.11,0.19,-0.96,0.98
28.652761936187744,0.15,0.0,-0.9,0.91
28.654306888580322,0.19,-0.12,-0.82,0.85
28.65473985671997,0.3,-0.19,-0.68,0.76
28.655202865600586,0.43,0.06,-0.51,0.66
28.655642986297607,0.52,0.31,-0.36,0.7
28.65608286857605,0.63,0.52,-0.42,0.91
28.65652370452881,0.68,0.65,-0.61,1.12
28.656928777694702,0.68,0.71,-0.84,1.29
28.660071849822998,0.59,0.68,-1.06,1.39
28.770071983337402,0.46,0.53,-1.23,1.41
28.770532846450806,0.33,0.4,-1.2,1.3
28.772289752960205,0.17,0.43,-1.29,1.37
28.772732734680176,0.03,0.56,-1.4,1.5
28.77317976951599,0.01,0.84,-1.03,1.32
28.77362084388733,0.03,1.24,-0.55,1.35
28.774054765701294,0.16,1.6,-0.2,1.62
28.77448797225952,0.39,1.61,-0.25,1.67
28.774930953979492,0.68,1.43,-0.61,1.69
28.775365829467773,1.03,1.12,-1.05,1.84
28.775798797607422,1.36,0.67,-1.35,2.03
28.779841899871826,1.69,0.15,-1.51,2.27
28.891957759857178,1.81,-0.35,-1.58,2.42
28.892363786697388,1.81,-0.62,-1.52,2.44
28.892801761627197,1.65,-0.54,-1.22,2.12
28.893237829208374,1.52,-0.27,-0.9,1.78
28.89367389678955,1.41,-0.06,-0.81,1.62
28.8941068649292,1.29,0.15,-0.85,1.55
28.8945369720459,1.26,0.38,-0.94,1.61
28.89496088027954,1.27,0.56,-0.96,1.68
28.895386695861816,1.29,0.66,-1.01,1.76
28.895817756652832,1.36,0.67,-1.05,1.84
29.003947734832764,1.46,0.63,-0.95,1.85
29.00441265106201,1.57,0.5,-0.8,1.83
29.004862785339355,1.71,0.34,-0.65,1.86
29.005298852920532,1.82,0.11,-0.58,1.91
29.00572967529297,1.94,-0.08,-0.5,2.0
29.00617265701294,1.97,-0.1,-0.57,2.05
29.00661277770996,2.0,-0.25,-0.55,2.08
29.007054805755615,1.93,-0.18,-0.47,1.99
29.007489681243896,1.86,-0.11,-0.5,1.92
29.007925987243652,1.77,0.0,-0.57,1.85
29.009711742401123,1.67,0.01,-0.45,1.72
29.01015567779541,1.63,0.04,-0.47,1.69
29.01058864593506,1.6,0.03,-0.49,1.67
29.118939876556396,1.59,0.03,-0.42,1.64
29.11941385269165,1.63,-0.01,-0.29,1.65
29.119858741760254,1.71,-0.02,-0.21,1.72
29.120259761810303,1.66,-0.06,-0.21,1.67
29.12069582939148,1.63,-0.12,-0.13,1.63
29.121129989624023,1.58,-0.09,-0.05,1.58
29.121582984924316,1.51,-0.11,0.04,1.51
29.123239994049072,1.47,-0.2,0.02,1.48
29.12368392944336,1.42,-0.31,-0.04,1.45
29.124120712280273,1.35,-0.42,-0.11,1.41
29.124554872512817,1.31,-0.58,-0.14,1.43
29.12971782684326,1.27,-0.68,-0.08,1.44
29.2398898601532,1.27,-0.78,0.0,1.49
29.240391731262207,1.3,-0.86,0.07,1.56
29.240829944610596,1.35,-0.86,0.16,1.6
29.241289854049683,1.36,-0.84,0.18,1.6
29.241719722747803,1.36,-0.74,0.24,1.56
29.24356484413147,1.35,-0.57,0.33,1.5
29.244054794311523,1.36,-0.44,0.35,1.47
29.24444580078125,1.36,-0.32,0.33,1.43
29.244882822036743,1.34,-0.28,0.28,1.39
29.245271682739258,1.34,-0.3,0.21,1.38
29.24564480781555,1.34,-0.34,0.04,1.38
29.3572096824646,1.29,-0.37,-0.01,1.34
29.357712745666504,1.19,-0.32,0.18,1.24
29.358195781707764,1.1,-0.31,0.28,1.17
29.358643770217896,0.94,-0.31,0.27,1.02
29.360383987426758,0.72,-0.21,0.19,0.77
29.360820770263672,0.5,-0.09,0.26,0.57
29.36124897003174,0.27,0.05,0.38,0.46
29.361685752868652,-0.04,0.14,0.24,0.28
29.36212182044983,-0.48,0.12,-0.24,0.54
29.362552881240845,-0.93,0.04,-0.97,1.34
29.36298680305481,-1.25,-0.02,-1.33,1.82
29.363422870635986,-1.52,0.1,-1.14,1.9
29.474371910095215,-1.64,0.25,-0.84,1.85
29.47486686706543,-1.54,0.37,-0.27,1.6
29.476720809936523,-1.39,0.61,0.2,1.53
29.47720193862915,-1.27,1.02,0.6,1.73
29.477677822113037,-1.15,1.36,0.86,1.97
29.478107929229736,-0.96,1.64,0.86,2.08
29.478582859039307,-0.76,1.74,0.71,2.02
29.479068756103516,-0.56,1.76,0.68,1.96
29.479501724243164,-0.49,1.82,0.74,2.02
29.479928970336914,-0.56,1.65,0.73,1.88
29.480355739593506,-0.63,1.28,0.59,1.54
29.480783939361572,-0.59,0.65,0.57,1.04
29.593007802963257,-0.47,-0.07,0.55,0.72
29.59350085258484,-0.38,-0.8,0.39,0.96
29.593993663787842,-0.43,-1.48,0.2,1.55
29.59443473815918,-0.41,-1.97,0.1,2.01
29.594873905181885,-0.4,-2.24,-0.02,2.27
29.59530282020569,-0.5,-2.4,-0.05,2.45
29.595730781555176,-0.52,-2.53,-0.09,2.58
29.596165657043457,-0.56,-2.44,-0.01,2.5
29.596596717834473,-0.57,-2.22,0.23,2.3
29.59702491760254,-0.56,-1.88,0.4,2.0
29.710431814193726,-0.53,-1.49,0.62,1.69
29.71088480949402,-0.46,-1.08,0.79,1.41
29.7113356590271,-0.32,-0.63,1.0,1.22
29.71177577972412,0.1,-0.39,1.25,1.31
29.71216583251953,0.1,-0.24,1.28,1.3
29.712594985961914,0.01,0.12,1.16,1.16
29.713018894195557,-0.1,0.56,1.2,1.32
29.713446855545044,-0.17,0.79,1.3,1.53
29.713897705078125,-0.18,0.67,1.32,1.49
29.71434783935547,-0.14,0.37,1.43,1.48
29.71669864654541,-0.12,0.0,1.4,1.4
29.71715784072876,-0.06,-0.36,1.34,1.38
29.717620849609375,-0.01,-0.76,1.27,1.48
29.718929767608643,-0.05,-1.04,1.26,1.63
29.728997707366943,-0.06,-1.24,1.28,1.78
29.83684778213501,-0.13,-1.33,1.21,1.8
29.837297916412354,-0.2,-1.39,1.16,1.82
29.83773684501648,-0.29,-1.49,1.11,1.88
29.838196754455566,-0.38,-1.47,1.16,1.91
29.838627815246582,-0.41,-1.4,1.15,1.85
29.840311765670776,-0.4,-1.3,1.19,1.8
29.840750694274902,-0.41,-1.17,1.27,1.77
29.841187000274658,-0.38,-1.05,1.33,1.73
29.841575860977173,-0.38,-0.94,1.38,1.71
29.84200382232666,-0.4,-0.78,1.39,1.64
29.84243679046631,-0.39,-0.65,1.45,1.63
29.955135822296143,-0.31,-0.53,1.48,1.6
29.95601987838745,-0.23,-0.45,1.52,1.6
29.956467866897583,-0.12,-0.4,1.54,1.59
29.956909656524658,-0.05,-0.34,1.61,1.64
29.95863389968872,-0.06,-0.24,1.63,1.64
29.959120750427246,-0.05,-0.17,1.69,1.69
29.959575653076172,-0.02,-0.06,1.82,1.82
29.96002769470215,0.05,0.23,1.89,1.9
29.960497856140137,0.08,0.63,1.97,2.06
29.960959911346436,0.13,1.06,2.11,2.36
29.961403846740723,0.2,1.33,2.09,2.48
29.961849689483643,0.18,1.44,1.73,2.25
30.0739426612854,0.15,1.57,1.36,2.08
30.074424743652344,0.17,1.79,1.31,2.22
30.076265811920166,0.16,2.06,1.4,2.49
30.076711654663086,0.06,2.36,1.42,2.75
30.077167987823486,-0.06,2.73,1.71,3.22
30.077610969543457,-0.17,3.18,1.6,3.56
30.078068733215332,-0.26,3.53,1.59,3.88
30.078516960144043,-0.2,3.82,1.79,4.22
30.078956842422485,0.0,3.94,1.75,4.31
30.079394817352295,0.08,3.77,1.44,4.03
30.079831838607788,0.07,3.13,0.91,3.26
30.080278873443604,-0.02,2.27,0.27,2.28
30.19374990463257,-0.14,1.34,-0.4,1.4
30.19423770904541,-0.25,0.36,-0.9,1.0
30.194716930389404,-0.28,-0.61,-1.36,1.51
30.195197820663452,-0.26,-1.5,-1.72,2.29
30.195673942565918,-0.18,-2.22,-1.91,2.93
30.19613790512085,-0.07,-2.68,-1.97,3.32
30.196568965911865,0.04,-2.82,-1.92,3.41
30.197001934051514,0.27,-2.65,-1.62,3.11
