time,ax,ay,az,atotal
0.002252817153930664,0.08,0.03,-0.16,0.18
0.003031015396118164,-0.02,0.0,-0.27,0.27
0.012324094772338867,-0.05,0.02,-0.21,0.21
0.02231287956237793,-0.04,0.01,-0.06,0.07
0.03236198425292969,-0.05,-0.02,0.1,0.11
0.09666895866394043,-0.02,-0.05,0.17,0.17
0.09736394882202148,-0.01,-0.06,0.23,0.23
0.09803509712219238,0.03,-0.05,0.25,0.25
0.09869503974914551,0.05,-0.06,0.28,0.29
0.09928679466247559,0.06,-0.06,0.2,0.21
0.09994006156921387,0.1,-0.02,0.08,0.12
0.10225701332092285,0.12,0.03,0.01,0.12
0.11238312721252441,0.1,0.04,-0.02,0.1
0.12244105339050293,0.08,0.03,-0.04,0.09
0.13231778144836426,0.05,0.04,-0.05,0.08
0.19668078422546387,0.03,0.07,-0.06,0.09
0.19734787940979004,0.02,0.09,-0.04,0.1
0.19794678688049316,0.02,0.08,-0.01,0.08
0.19859790802001953,0.01,0.04,-0.02,0.04
0.19924592971801758,0.0,0.01,0.02,0.02
0.19989895820617676,0.02,-0.01,0.06,0.06
0.20229291915893555,0.01,0.0,0.08,0.08
0.21240782737731934,0.04,0.02,0.08,0.09
0.22236990928649902,0.04,0.01,0.08,0.09
0.2323160171508789,0.06,-0.01,0.07,0.09
0.2958548069000244,0.09,-0.02,0.01,0.09
0.2965250015258789,0.11,-0.03,-0.02,0.11
0.2971339225769043,0.11,-0.04,0.04,0.12
0.2977941036224365,0.09,-0.07,0.11,0.15
0.2983880043029785,0.09,-0.06,0.13,0.16
0.2990419864654541,0.07,-0.03,0.11,0.13
0.30221009254455566,0.06,-0.02,0.05,0.08
0.312391996383667,0.05,0.0,-0.03,0.05
0.32238078117370605,0.05,0.03,-0.09,0.1
0.3323349952697754,0.05,0.07,-0.1,0.13
0.39597582817077637,0.03,0.09,-0.1,0.13
0.39665913581848145,0.05,0.08,-0.07,0.11
0.39731383323669434,0.07,0.05,-0.03,0.09
0.3979771137237549,0.08,-0.01,0.01,0.08
0.39862608909606934,0.07,-0.05,0.05,0.09
0.39927196502685547,0.06,-0.07,0.1,0.13
0.4022839069366455,0.03,-0.11,0.11,0.15
0.4124000072479248,0.03,-0.08,0.14,0.16
0.42256999015808105,0.05,-0.09,0.17,0.19
0.43242907524108887,0.06,-0.1,0.22,0.24
0.49582505226135254,0.04,-0.14,0.24,0.28
0.49649786949157715,0.03,-0.13,0.23,0.26
0.4971020221710205,0.03,-0.11,0.22,0.24
0.497697114944458,0.03,-0.07,0.2,0.21
0.4982869625091553,0.03,-0.04,0.24,0.24
0.49893689155578613,0.01,0.01,0.31,0.31
0.5022969245910645,0.0,0.05,0.44,0.44
0.5123798847198486,0.0,0.11,0.53,0.54
0.5224499702453613,-0.04,0.18,0.58,0.6
0.532329797744751,-0.06,0.19,0.58,0.61
0.5960800647735596,-0.1,0.15,0.56,0.58
0.5967590808868408,-0.11,0.08,0.53,0.54
0.5974228382110596,-0.13,0.03,0.49,0.5
0.5980818271636963,-0.19,-0.06,0.38,0.42
0.5987470149993896,-0.21,-0.11,0.37,0.43
0.5994009971618652,-0.23,-0.2,0.42,0.51
0.6023929119110107,-0.22,-0.34,0.52,0.65
0.6125450134277344,-0.23,-0.45,0.57,0.76
0.6225249767303467,-0.23,-0.5,0.55,0.77
0.6323578357696533,-0.24,-0.5,0.44,0.7
0.6961510181427002,-0.23,-0.48,0.33,0.62
0.6967618465423584,-0.23,-0.4,0.21,0.5
0.6974349021911621,-0.22,-0.34,0.17,0.43
0.6980960369110107,-0.23,-0.32,0.21,0.44
0.6987488269805908,-0.25,-0.29,0.31,0.49
0.6994059085845947,-0.27,-0.27,0.39,0.54
0.7022788524627686,-0.27,-0.25,0.38,0.52
0.7125461101531982,-0.28,-0.21,0.35,0.49
0.7225909233093262,-0.31,-0.14,0.29,0.44
0.7324459552764893,-0.34,-0.06,0.28,0.44
0.795767068862915,-0.37,0.02,0.32,0.48
0.7964379787445068,-0.38,0.08,0.31,0.49
0.797029972076416,-0.38,0.16,0.3,0.5
0.7976820468902588,-0.4,0.2,0.34,0.56
0.798353910446167,-0.42,0.19,0.41,0.61
0.7990059852600098,-0.41,0.16,0.45,0.62
0.80228590965271,-0.41,0.11,0.49,0.64
0.8124830722808838,-0.42,0.02,0.49,0.64
0.8226330280303955,-0.44,-0.06,0.52,0.68
0.8325231075286865,-0.45,-0.18,0.57,0.74
0.8954498767852783,-0.43,-0.29,0.54,0.74
0.8961329460144043,-0.4,-0.37,0.48,0.72
0.8967978954315186,-0.35,-0.46,0.4,0.7
0.8974359035491943,-0.32,-0.58,0.23,0.7
0.8980958461761475,-0.26,-0.69,0.02,0.73
0.8987557888031006,-0.18,-0.81,-0.1,0.83
0.9023919105529785,-0.13,-0.98,-0.13,0.99
0.9125559329986572,-0.06,-1.12,-0.06,1.12
0.9224488735198975,0.0,-1.21,0.07,1.21
0.9326560497283936,0.09,-1.19,0.28,1.22
0.9957199096679688,0.2,-1.01,0.55,1.16
0.9963901042938232,0.28,-0.79,0.95,1.26
0.99704909324646,0.31,-0.55,1.35,1.49
0.9976999759674072,0.35,-0.22,1.66,1.71
0.9983489513397217,0.41,0.12,1.67,1.72
0.9989950656890869,0.47,0.41,1.36,1.49
1.0024950504302979,0.52,0.64,0.99,1.28
1.0126330852508545,0.56,0.73,0.56,1.07
1.0224888324737549,0.66,0.79,0.15,1.04
1.0325500965118408,0.72,0.76,-0.19,1.06
1.0961520671844482,0.77,0.62,-0.24,1.01
1.09682297706604,0.71,0.41,0.04,0.82
1.0974738597869873,0.65,0.3,0.59,0.92
1.0981237888336182,0.56,0.32,1.18,1.34
1.0987679958343506,0.44,0.37,1.65,1.74
1.0994079113006592,0.36,0.45,2.0,2.08
1.1025989055633545,0.32,0.46,2.17,2.24
1.1126799583435059,0.28,0.42,1.98,2.04
1.1225049495697021,0.27,0.44,1.59,1.67
1.1326069831848145,0.22,0.37,1.23,1.3
1.1958138942718506,0.07,0.13,0.99,1.0
1.1964828968048096,-0.07,-0.2,0.87,0.89
1.1971399784088135,-0.14,-0.51,0.85,1.0
1.197796106338501,-0.18,-0.86,0.9,1.25
1.1983931064605713,-0.18,-1.16,1.15,1.64
1.199044942855835,-0.16,-1.43,1.5,2.07
1.202800989151001,-0.09,-1.7,1.67,2.38
1.212759017944336,0.01,-1.89,1.7,2.54
1.2224738597869873,0.11,-1.96,1.67,2.57
1.2324678897857666,0.12,-1.96,1.71,2.6
1.2962579727172852,0.2,-1.88,1.81,2.61
1.2969348430633545,0.24,-1.64,1.98,2.58
1.297611951828003,0.22,-1.38,2.05,2.48
1.2982089519500732,0.22,-1.2,2.1,2.42
1.2988650798797607,0.17,-0.99,2.0,2.23
1.2995178699493408,0.25,-0.73,1.77,1.93
1.3029038906097412,0.32,-0.34,1.57,1.63
1.312654972076416,0.35,0.05,1.36,1.4
1.3224389553070068,0.35,0.37,1.06,1.17
1.3325769901275635,0.34,0.67,0.79,1.09
1.3965749740600586,0.3,0.84,0.77,1.17
1.397230863571167,0.24,0.76,1.01,1.28
1.3978807926177979,0.21,0.62,1.36,1.5
1.3984699249267578,0.21,0.56,1.61,1.71
1.399115800857544,0.26,0.58,1.87,1.97
1.399756908416748,0.37,0.7,2.02,2.16
1.4029948711395264,0.43,0.91,2.07,2.3
1.412674903869629,0.5,1.13,2.06,2.4
1.4224739074707031,0.58,1.33,1.97,2.44
1.43259596824646,0.62,1.51,1.82,2.44
1.4972460269927979,0.61,1.68,1.63,2.41
1.4979159832000732,0.64,1.82,1.47,2.42
1.49857497215271,0.54,2.02,1.43,2.53
1.4992239475250244,0.36,2.18,1.39,2.61
1.4998679161071777,0.13,2.15,1.25,2.49
1.5005228519439697,-0.12,2.07,1.23,2.41
1.5030620098114014,-0.37,1.92,1.38,2.39
1.5128228664398193,-0.58,1.89,1.68,2.59
1.5226190090179443,-0.81,1.82,1.71,2.62
1.5326111316680908,-0.84,1.74,1.39,2.38
1.5962588787078857,-0.73,1.65,0.7,1.93
1.5969369411468506,-0.57,1.36,-0.27,1.49
1.5976030826568604,-0.38,0.86,-1.11,1.45
1.5982580184936523,-0.28,0.36,-1.66,1.72
1.598917007446289,-0.23,-0.11,-1.86,1.87
1.5995738506317139,-0.24,-0.58,-1.61,1.72
1.6031999588012695,-0.41,-1.07,-0.93,1.47
1.6128389835357666,-0.62,-1.49,-0.33,1.64
1.6225988864898682,-0.78,-1.75,-0.02,1.91
1.6326930522918701,-0.94,-1.96,0.11,2.17
1.6963369846343994,-1.09,-2.05,0.15,2.32
1.6970109939575195,-1.28,-2.0,0.14,2.37
1.697674036026001,-1.42,-1.87,0.13,2.35
1.698333978652954,-1.49,-1.75,0.2,2.3
1.6989879608154297,-1.48,-1.54,0.21,2.14
1.6995849609375,-1.34,-1.13,0.21,1.76
1.7031569480895996,-1.19,-0.89,0.14,1.49
1.7128210067749023,-1.0,-0.85,-0.07,1.31
1.7226297855377197,-0.73,-0.78,-0.44,1.15
1.7327148914337158,-0.45,-0.76,-0.79,1.18
1.7959299087524414,-0.2,-0.85,-0.95,1.29
1.796612024307251,0.01,-0.99,-0.96,1.37
1.7972769737243652,0.18,-1.04,-0.76,1.3
1.7979390621185303,0.24,-1.11,-0.38,1.19
1.7986018657684326,0.25,-1.28,0.07,1.3
1.7991969585418701,0.25,-1.44,0.62,1.58
1.8032290935516357,0.18,-1.61,1.14,1.98
1.8127858638763428,0.12,-1.75,1.42,2.25
1.8226509094238281,0.11,-1.88,1.49,2.4
1.832690954208374,0.1,-1.9,1.39,2.35
1.897123098373413,0.07,-1.81,1.33,2.24
1.8977839946746826,0.0,-1.74,1.34,2.19
1.8984489440917969,-0.11,-1.57,1.4,2.1
1.8991048336029053,-0.18,-1.28,1.41,1.91
1.8997628688812256,-0.24,-1.04,1.4,1.76
1.9004170894622803,-0.25,-0.82,1.34,1.59
1.9030489921569824,-0.27,-0.6,1.12,1.29
1.9128069877624512,-0.24,-0.34,0.89,0.98
1.9226911067962646,-0.2,-0.05,0.69,0.72
1.932703971862793,-0.15,0.23,0.38,0.46
1.9970190525054932,-0.14,0.72,0.33,0.8
1.9976909160614014,-0.33,1.17,0.6,1.35
1.9983549118041992,-0.46,1.52,1.0,1.87
1.9990129470825195,-0.61,1.81,1.18,2.24
1.999664068222046,-0.79,2.3,1.41,2.81
2.000314950942993,-0.94,2.63,1.61,3.22
2.002718925476074,-0.98,2.79,1.73,3.42
2.0128958225250244,-0.97,2.86,1.68,3.45
2.022876024246216,-0.79,3.0,1.43,3.41
2.0327320098876953,-0.64,3.32,1.27,3.61
2.0976779460906982,-0.55,3.79,1.41,4.08
2.098341941833496,-0.31,3.85,1.5,4.14
2.098973035812378,0.04,3.81,1.62,4.14
2.099594831466675,0.35,3.83,1.54,4.14
2.10024094581604,0.57,3.64,1.05,3.83
2.1008870601654053,0.64,3.04,0.44,3.13
2.1027629375457764,0.77,2.27,-0.2,2.4
2.1128809452056885,0.96,1.57,-0.96,2.07
2.122699022293091,1.2,0.94,-1.63,2.23
2.132769823074341,1.34,0.38,-1.94,2.38
2.1973798274993896,1.26,-0.22,-1.61,2.05
2.1980488300323486,1.08,-0.95,-0.85,1.67
2.1987099647521973,0.97,-1.46,-0.27,1.77
2.1993768215179443,1.12,-1.64,-0.11,1.98
2.2000348567962646,1.26,-1.69,-0.18,2.11
2.2006938457489014,1.36,-1.65,-0.2,2.14
2.2027828693389893,1.4,-1.48,-0.34,2.06
2.212960958480835,1.41,-1.16,-0.72,1.96
2.222827911376953,1.36,-0.76,-1.11,1.91
2.2327778339385986,1.21,-0.67,-1.53,2.06
2.297631025314331,0.79,-0.55,-1.67,1.92
2.2983038425445557,0.43,-0.71,-1.64,1.83
2.298963785171509,0.04,-1.06,-1.45,1.79
2.299614906311035,-0.23,-1.48,-1.18,1.9
2.3002729415893555,-0.5,-1.94,-1.06,2.26
2.3009250164031982,-0.65,-2.48,-0.99,2.74
2.3027970790863037,-0.69,-2.86,-0.64,3.01
2.3129398822784424,-0.68,-3.0,-0.13,3.07
2.3228209018707275,-0.52,-3.1,0.13,3.14
2.3328230381011963,-0.3,-2.98,0.35,3.01
2.398608922958374,-0.21,-2.75,0.6,2.82
2.3992860317230225,-0.12,-2.68,0.76,2.78
2.399954080581665,-0.16,-2.65,0.97,2.82
2.4006130695343018,0.0,-2.44,1.09,2.67
2.4012680053710938,0.13,-2.13,1.2,2.44
2.401963949203491,0.05,-2.02,1.41,2.46
2.402733087539673,0.03,-1.84,1.55,2.4
2.4129819869995117,0.05,-1.4,1.54,2.08
2.422778844833374,0.0,-0.98,1.45,1.75
2.4328439235687256,-0.07,-0.63,1.24,1.39
2.498142957687378,0.01,-0.36,0.81,0.88
2.4988129138946533,0.11,-0.08,0.18,0.22
2.4994759559631348,0.22,0.22,-0.34,0.46
2.5001308917999268,0.3,0.56,-0.55,0.84
2.500777006149292,0.41,0.96,-0.6,1.2
2.5014231204986572,0.42,1.29,-0.29,1.38
2.502854108810425,0.34,1.59,0.29,1.65
2.5129599571228027,0.35,1.77,0.9,2.01
2.5228099822998047,0.14,1.91,1.54,2.45
2.532829999923706,-0.02,1.9,1.83,2.63
2.5981199741363525,-0.04,1.84,1.51,2.38
2.598788022994995,0.02,1.95,0.93,2.16
2.5994489192962646,-0.01,2.48,0.74,2.58
2.600105047225952,-0.25,3.44,1.33,3.69
2.600762128829956,-0.55,4.06,2.01,4.56
2.6014180183410645,-0.91,4.29,2.49,5.04
2.602876901626587,-1.11,4.65,2.72,5.5
2.613008975982666,-1.14,4.78,2.59,5.55
2.6228139400482178,-1.09,4.17,2.18,4.83
2.632901906967163,-1.02,2.99,1.07,3.33
2.6984751224517822,-0.76,2.09,-0.56,2.29
2.6991450786590576,-0.5,1.25,-2.06,2.46
2.6998040676116943,-0.4,0.37,-2.93,2.98
2.7004599571228027,-0.43,-0.47,-2.87,2.93
2.701115846633911,-0.54,-1.3,-2.16,2.57
2.7017719745635986,-0.73,-1.89,-1.27,2.39
2.702903985977173,-0.94,-2.11,-0.43,2.34
2.7129249572753906,-1.19,-2.11,0.06,2.42
2.7228548526763916,-1.27,-1.96,0.17,2.34
2.732891798019409,-1.34,-1.86,0.04,2.29
2.7981178760528564,-1.34,-1.66,-0.25,2.14
2.7987987995147705,-1.3,-1.37,-0.92,2.1
2.7994577884674072,-1.04,-0.98,-1.64,2.17
2.800117015838623,-0.71,-0.69,-2.13,2.34
2.8007800579071045,-0.35,-0.65,-2.4,2.51
2.8014369010925293,0.05,-0.74,-2.56,2.66
2.8029348850250244,0.44,-0.93,-2.49,2.69
2.8130338191986084,0.75,-1.2,-2.04,2.48
2.822870969772339,1.03,-1.53,-1.38,2.3
2.8328940868377686,1.18,-1.86,-0.74,2.32
2.898620843887329,1.26,-2.1,-0.22,2.45
2.8992919921875,1.24,-2.32,0.03,2.63
2.8999550342559814,1.13,-2.47,0.22,2.72
2.9006099700927734,0.93,-2.59,0.4,2.78
2.901256799697876,0.78,-2.7,0.56,2.86
2.9018399715423584,0.58,-2.7,0.7,2.84
2.902920961380005,0.48,-2.53,0.77,2.68
2.913059949874878,0.35,-2.29,0.94,2.5
2.9229159355163574,0.17,-1.97,1.24,2.33
2.932947874069214,0.0,-1.54,1.63,2.24
2.998867988586426,-0.13,-1.05,1.94,2.2
2.9995501041412354,-0.29,-0.66,2.12,2.23
3.0002191066741943,-0.46,-0.39,1.93,2.02
3.0008769035339355,-0.52,-0.07,1.32,1.42
3.001544952392578,-0.49,0.59,0.53,0.93
3.002203941345215,-0.43,1.31,-0.19,1.39
3.0028979778289795,-0.41,1.94,-0.59,2.06
3.013098955154419,-0.47,2.51,-0.54,2.61
3.0229179859161377,-0.63,2.74,-0.23,2.82
3.0329439640045166,-0.7,2.67,-0.16,2.76
3.099071979522705,-0.71,2.58,-0.14,2.67
3.099745988845825,-0.63,2.32,-0.13,2.4
3.100414991378784,-0.47,1.96,0.01,2.01
3.1010799407958984,-0.33,1.92,0.65,2.05
3.101733922958374,-0.31,2.4,1.5,2.84
3.102407932281494,-0.15,2.64,1.7,3.14
3.1029980182647705,0.19,2.64,1.5,3.04
3.1130897998809814,0.47,3.01,1.35,3.33
3.1228599548339844,0.6,3.31,1.14,3.55
3.132889986038208,0.73,3.11,0.87,3.31
3.1985490322113037,0.85,2.46,0.52,2.65
3.1992127895355225,1.04,1.75,0.06,2.03
3.1998729705810547,1.24,1.28,-0.44,1.83
3.200525999069214,1.42,0.72,-0.81,1.78
3.2011799812316895,1.5,0.05,-1.05,1.83
3.2018678188323975,1.5,-0.51,-1.01,1.87
3.2029099464416504,1.52,-0.84,-0.77,1.89
3.213120937347412,1.54,-1.07,-0.5,1.94
3.222991943359375,1.51,-1.26,-0.28,1.98
3.23294997215271,1.51,-1.24,-0.23,1.96
3.299686908721924,1.59,-1.07,-0.23,1.93
3.3003618717193604,1.54,-0.93,-0.2,1.81
3.301024913787842,1.38,-0.88,-0.41,1.68
3.301685094833374,1.09,-0.78,-0.87,1.59
3.302367925643921,0.69,-0.68,-1.43,1.72
3.303023099899292,0.09,-0.88,-2.03,2.21
3.3036859035491943,-0.35,-1.3,-2.06,2.46
3.3131511211395264,-0.56,-1.66,-1.61,2.37
3.3229758739471436,-0.65,-1.91,-1.06,2.27
3.3329789638519287,-0.55,-2.37,-0.89,2.59
3.3997371196746826,-0.47,-2.69,-0.66,2.8
3.4004008769989014,-0.51,-2.74,-0.51,2.83
3.401055097579956,-0.44,-2.63,-0.42,2.69
3.401719808578491,-0.35,-2.7,-0.53,2.77
3.4023220539093018,-0.05,-2.7,-0.62,2.77
3.40297794342041,0.2,-2.76,-0.64,2.84
3.4036290645599365,0.26,-3.1,-0.54,3.15
3.4131968021392822,0.43,-3.01,-0.06,3.04
3.4230167865753174,0.57,-2.66,0.69,2.8
3.4330289363861084,0.61,-2.4,1.5,2.89
3.500027894973755,0.51,-2.17,2.25,3.16
3.5007059574127197,0.41,-1.76,2.81,3.34
3.501368999481201,0.4,-1.3,2.92,3.22
3.5019679069519043,0.4,-0.72,2.63,2.75
3.5026469230651855,0.53,-0.01,2.14,2.2
3.5032989978790283,0.62,0.66,1.44,1.7
3.5039260387420654,0.76,1.29,0.81,1.7
3.513155937194824,0.92,1.92,0.36,2.15
3.523000955581665,0.89,2.51,0.22,2.67
3.533099889755249,0.78,2.94,0.39,3.06
3.600036859512329,0.62,3.2,0.59,3.31
3.6006968021392822,0.35,3.28,0.5,3.33
3.601349115371704,0.1,3.48,0.31,3.49
3.602015972137451,-0.17,4.02,0.6,4.06
3.6026880741119385,-0.48,4.71,1.4,4.93
3.6033308506011963,-0.92,4.9,2.1,5.4
3.603977918624878,-1.37,5.06,2.66,5.87
3.613208055496216,-1.51,5.49,3.04,6.45
3.623041868209839,-1.47,5.55,2.75,6.36
3.6331539154052734,-1.31,4.8,1.66,5.24
3.7002041339874268,-1.04,3.39,-0.01,3.54
3.7008697986602783,-0.83,2.18,-1.41,2.72
3.7015068531036377,-0.59,1.2,-2.37,2.72
3.7021849155426025,-0.39,0.2,-2.49,2.52
3.7028489112854004,-0.54,-0.78,-1.7,1.94
3.7035019397735596,-0.73,-1.64,-0.59,1.88
3.7041540145874023,-1.14,-2.31,0.15,2.58
3.713258981704712,-1.41,-2.7,0.46,3.08
3.7230849266052246,-1.61,-2.57,0.3,3.04
3.7331650257110596,-1.71,-2.22,-0.04,2.8
3.8003737926483154,-1.9,-1.93,-0.37,2.73
3.801039934158325,-1.92,-1.67,-0.92,2.7
3.8017051219940186,-1.68,-1.21,-1.57,2.59
3.802375078201294,-1.4,-1.07,-2.33,2.92
3.803030014038086,-0.97,-1.14,-3.03,3.37
3.803683042526245,-0.56,-1.26,-3.58,3.83
3.8043410778045654,-0.18,-1.36,-3.6,3.85
3.8132259845733643,0.21,-1.51,-3.02,3.38
3.8232901096343994,0.59,-1.94,-2.04,2.87
3.833155870437622,0.89,-2.18,-1.06,2.58
3.900164842605591,1.2,-2.53,-0.36,2.82
3.900831937789917,1.4,-2.9,0.08,3.22
3.901481866836548,1.35,-3.06,0.23,3.35
3.9021339416503906,1.14,-3.22,0.15,3.41
3.902804136276245,0.98,-3.17,0.22,3.32
3.903454065322876,0.8,-2.96,0.35,3.08
3.904099941253662,0.57,-2.75,0.7,2.89
3.9132230281829834,0.23,-2.52,1.23,2.81
3.9234111309051514,-0.01,-2.19,1.76,2.8
3.9331939220428467,-0.21,-1.78,2.12,2.77
4.0014519691467285,-0.33,-1.34,2.07,2.48
4.002168893814087,-0.5,-0.85,1.63,1.9
4.002911806106567,-0.62,-0.55,0.91,1.23
4.003589868545532,-0.78,-0.13,0.07,0.79
4.004276990890503,-0.72,0.49,-0.54,1.02
4.004974126815796,-0.66,1.22,-0.6,1.51
4.005657911300659,-0.69,2.1,-0.09,2.21
4.013132810592651,-0.67,2.57,0.22,2.66
4.023446798324585,-0.6,2.79,0.17,2.85
4.033189058303833,-0.36,2.84,-0.04,2.86
4.102327108383179,-0.07,2.69,-0.25,2.7
4.103003978729248,0.13,2.31,-0.35,2.33
4.103663921356201,-0.04,1.92,0.07,1.92
4.104317903518677,-0.28,1.95,0.9,2.16
4.104974031448364,-0.49,2.64,2.62,3.75
4.105564832687378,-0.49,3.34,4.23,5.41
4.106751918792725,-0.21,3.51,4.99,6.1
4.1131439208984375,0.25,3.88,4.43,5.89
4.123585939407349,0.68,4.49,3.22,5.56
4.133161783218384,1.01,4.2,1.72,4.64
4.2009360790252686,1.43,3.26,-0.1,3.56
4.201617002487183,1.59,2.32,-1.32,3.1
4.20229697227478,1.64,1.56,-2.1,3.08
4.202951908111572,1.79,0.9,-2.33,3.07
4.203598976135254,1.77,0.22,-2.3,2.91
4.204257965087891,1.7,-0.38,-2.01,2.65
4.204910039901733,1.63,-0.75,-1.57,2.38
4.213200807571411,1.68,-0.96,-1.14,2.24
4.223704099655151,1.94,-0.95,-0.88,2.33
4.233260869979858,2.32,-0.72,-0.93,2.6
4.301829099655151,2.62,-0.3,-0.89,2.78
4.302510976791382,2.6,0.02,-0.85,2.73
4.303179025650024,2.2,0.09,-1.04,2.43
4.303834915161133,1.6,-0.05,-1.65,2.29
4.304487943649292,1.13,-0.35,-2.22,2.51
4.305166006088257,0.41,-1.03,-2.59,2.81
4.305890798568726,-0.5,-2.21,-3.49,4.16
4.313112020492554,-1.52,-3.28,-2.99,4.69
4.323657989501953,-1.83,-3.7,-1.67,4.45
4.333121061325073,-1.85,-3.97,-0.84,4.45
4.402209043502808,-1.59,-4.03,0.02,4.33
4.402874946594238,-1.32,-3.74,0.72,4.03
4.403533935546875,-0.94,-3.35,1.22,3.68
4.404220819473267,-0.27,-3.34,0.87,3.46
4.4048779010772705,0.1,-3.56,-0.05,3.56
4.405528783798218,0.32,-3.97,-0.95,4.09
4.406184911727905,0.69,-3.84,-1.3,4.11
4.414612054824829,0.79,-3.37,-0.85,3.56
4.424660921096802,0.72,-2.84,0.38,2.95
4.43451189994812,0.64,-2.36,1.73,2.99
4.501754999160767,0.39,-1.81,2.76,3.32
4.502429962158203,0.49,-1.15,3.21,3.44
4.503087997436523,0.55,-0.62,2.81,2.92
4.503740072250366,0.63,-0.17,1.8,1.91
4.504424810409546,0.66,0.58,0.81,1.19
4.505069971084595,0.62,1.41,0.28,1.56
4.505712985992432,0.46,2.25,0.05,2.29
4.514630079269409,0.37,3.03,0.07,3.05
4.524708986282349,0.24,3.46,0.11,3.47
4.534520864486694,0.12,3.62,0.17,3.62
4.602221965789795,0.03,3.37,0.09,3.37
4.6028969287872314,-0.11,3.25,-0.1,3.25
4.603554964065552,-0.1,3.29,0.27,3.3
4.6042420864105225,-0.29,3.89,1.13,4.06
4.604900121688843,-0.63,4.37,2.03,4.85
4.605550050735474,-1.08,4.5,2.96,5.49
4.6061999797821045,-1.41,4.91,3.33,6.09
4.6146838665008545,-1.57,4.97,3.04,6.03
4.624645948410034,-1.59,4.6,2.31,5.38
4.6345460414886475,-1.41,3.74,0.82,4.08
4.702193975448608,-1.06,2.95,-1.02,3.29
4.70287013053894,-0.65,2.2,-2.76,3.58
4.7035369873046875,-0.54,1.44,-3.44,3.76
4.704230070114136,-0.81,0.59,-2.83,3.0
4.704894781112671,-1.22,0.01,-1.5,1.93
4.7055559158325195,-1.49,-0.37,-0.42,1.59
4.70622181892395,-1.61,-0.59,-0.06,1.71
4.714679002761841,-1.62,-0.6,-0.18,1.73
4.724642038345337,-1.67,-0.73,-0.43,1.87
4.734579801559448,-1.66,-0.86,-0.58,1.95
4.802771806716919,-1.7,-0.87,-0.8,2.07
4.803443908691406,-1.59,-0.91,-1.18,2.17
4.804115056991577,-1.24,-0.9,-1.61,2.22
4.804767847061157,-0.89,-1.13,-1.86,2.35
4.805416822433472,-0.51,-1.6,-1.88,2.52
4.806065797805786,-0.1,-2.19,-1.86,2.87
4.80672812461853,0.17,-2.51,-1.73,3.05
4.8146960735321045,0.49,-2.72,-1.5,3.14
4.824609041213989,0.9,-3.21,-1.23,3.55
4.834597826004028,0.96,-3.4,-1.08,3.69
4.902997970581055,1.08,-3.45,-1.1,3.77
4.903671026229858,0.92,-3.52,-1.05,3.78
4.904353857040405,0.67,-3.72,-0.94,3.89
4.905014991760254,0.51,-3.82,-0.7,3.91
4.905674934387207,0.25,-3.62,-0.42,3.65
4.906326055526733,0.1,-3.42,0.07,3.42
4.906965970993042,0.0,-3.2,0.76,3.28
4.914680004119873,-0.21,-2.83,1.31,3.12
4.924836874008179,-0.41,-2.23,1.66,2.81
4.93464207649231,-0.4,-1.46,1.68,2.26
5.002839803695679,-0.41,-0.81,1.33,1.61
5.00351095199585,-0.55,-0.4,1.13,1.31
5.004183053970337,-0.91,0.33,1.24,1.57
5.004837989807129,-0.79,0.98,0.49,1.35
5.0054919719696045,-0.34,1.32,-0.66,1.51
5.0061469078063965,-0.1,1.77,-1.27,2.18
5.006798028945923,-0.14,2.3,-1.02,2.51
5.014753103256226,-0.43,2.63,-0.23,2.67
5.024835824966431,-0.7,2.8,-0.22,2.89
5.034678936004639,-0.35,2.4,-0.39,2.45
5.103621959686279,-0.86,3.06,-0.79,3.27
5.104324102401733,-0.41,2.04,-1.06,2.33
5.104985952377319,-0.75,2.47,1.81,3.15
5.105639934539795,-0.97,2.51,2.81,3.89
5.106297969818115,-0.72,2.86,3.55,4.61
5.106948137283325,-0.3,3.14,3.18,4.47
5.10813307762146,0.14,3.67,3.4,5.0
5.114732027053833,0.53,4.28,3.14,5.33
5.124975919723511,1.0,4.37,1.83,4.84
5.134683847427368,1.38,3.9,0.21,4.14
5.204052925109863,1.86,3.35,-0.98,3.95
5.204726934432983,2.19,2.71,-1.95,3.99
5.20538592338562,2.41,1.97,-2.11,3.76
5.20604681968689,2.4,1.28,-2.27,3.54
5.206695795059204,2.31,0.25,-1.67,2.86
5.207356929779053,2.23,-0.48,-1.02,2.49
5.208530902862549,2.04,-0.96,-0.47,2.3
5.214808940887451,1.93,-1.26,0.21,2.31
5.2251739501953125,1.79,-1.55,0.7,2.46
5.23474907875061,1.82,-1.84,0.56,2.64
5.304407835006714,1.86,-1.8,0.02,2.58
5.305072069168091,1.81,-1.59,-0.7,2.5
5.305743932723999,1.58,-1.49,-1.48,2.62
5.306410074234009,0.99,-1.58,-2.05,2.77
5.307068109512329,0.33,-1.84,-2.67,3.25
5.30773401260376,-0.33,-2.12,-3.18,3.83
5.308922052383423,-0.77,-2.41,-2.89,3.84
5.314815998077393,-0.96,-2.72,-2.1,3.56
5.325185060501099,-1.03,-3.18,-1.83,3.81
5.334829092025757,-0.97,-3.76,-1.77,4.26
5.404868841171265,-0.85,-3.96,-1.32,4.25
5.405544996261597,-0.73,-3.67,-0.66,3.79
5.406219005584717,-0.54,-3.18,0.03,3.22
5.406881093978882,-0.09,-2.69,0.37,2.71
5.407542943954468,0.37,-2.66,0.11,2.68
5.408731937408447,0.4,-3.33,-0.59,3.4
5.409408807754517,0.46,-3.47,-0.84,3.59
5.414819002151489,0.57,-3.01,-0.4,3.08
5.425213098526001,0.52,-2.67,0.7,2.8
5.434827089309692,0.51,-2.27,2.17,3.18
5.504303932189941,0.3,-1.6,3.45,3.81
5.5049729347229,0.44,-1.03,3.8,3.96
5.505634069442749,0.6,-0.54,3.33,3.42
5.506289005279541,0.62,0.0,2.18,2.26
5.5069358348846436,0.52,0.77,0.81,1.23
5.507583856582642,0.38,2.0,-0.38,2.07
5.508784055709839,0.17,3.09,-0.69,3.17
5.514837026596069,-0.09,3.58,-0.38,3.6
5.524656057357788,-0.25,3.68,0.0,3.68
5.534770965576172,-0.33,3.44,0.36,3.47
5.60429310798645,-0.2,3.12,0.73,3.21
5.604959011077881,0.08,2.82,1.01,2.99
5.60561203956604,0.18,3.0,1.28,3.26
5.60626482963562,0.05,3.98,2.04,4.47
5.606929063796997,-0.36,4.68,2.93,5.53
5.6075849533081055,-0.85,5.06,3.4,6.15
5.6087729930877686,-1.05,5.45,3.02,6.31
5.614912986755371,-1.03,5.23,1.85,5.64
5.624850034713745,-1.06,4.13,0.23,4.27
5.634824991226196,-1.02,2.68,-1.7,3.33
5.7046239376068115,-0.89,1.83,-3.17,3.76
5.705304861068726,-0.71,1.25,-3.62,3.89
5.705967903137207,-0.66,0.76,-2.8,2.97
5.706629991531372,-0.73,-0.01,-1.35,1.53
5.707288026809692,-0.78,-0.8,-0.26,1.14
5.707947015762329,-0.92,-1.03,0.28,1.4
5.709157943725586,-1.14,-1.1,0.35,1.62
5.714777946472168,-1.38,-1.11,0.11,1.77
5.724772930145264,-1.58,-1.07,-0.05,1.9
5.734782934188843,-1.64,-0.94,-0.44,1.94
5.804363965988159,-1.61,-0.81,-1.11,2.11
5.805033922195435,-1.46,-0.78,-1.88,2.5
5.805685997009277,-1.25,-0.82,-2.54,2.94
5.8063390254974365,-0.86,-0.95,-2.97,3.23
5.8069939613342285,-0.51,-1.25,-3.11,3.39
5.807641983032227,-0.14,-1.72,-2.76,3.25
5.808305025100708,0.23,-2.25,-2.0,3.01
5.814996004104614,0.61,-2.63,-1.31,3.0
5.824908971786499,0.82,-2.99,-0.52,3.14
5.834863901138306,0.97,-3.44,-0.08,3.57
5.9050209522247314,1.15,-3.8,-0.02,3.97
5.905690908432007,1.07,-3.88,0.05,4.02
5.9063498973846436,0.99,-3.82,-0.02,3.94
5.907006025314331,0.73,-3.86,-0.12,3.93
5.907657861709595,0.61,-3.69,-0.09,3.74
5.908313035964966,0.38,-3.32,0.14,3.34
5.909512996673584,0.18,-2.83,0.65,2.9
5.9148948192596436,0.1,-2.26,1.27,2.59
5.924799919128418,-0.06,-1.81,1.8,2.55
5.934837102890015,-0.29,-1.31,2.25,2.61
6.0049378871917725,-0.47,-0.78,2.3,2.47
6.005610942840576,-0.58,-0.38,1.76,1.89
6.006282091140747,-0.65,0.01,0.82,1.04
6.006932020187378,-0.66,0.83,0.09,1.06
6.00758695602417,-0.49,1.68,-0.41,1.79
6.008238077163696,-0.25,2.32,-0.75,2.45
6.009363889694214,-0.25,2.74,-0.86,2.88
6.014894962310791,-0.12,2.95,-1.05,3.13
6.024937868118286,0.0,2.85,-1.19,3.08
6.034945011138916,0.17,2.71,-1.29,3.0
6.105886936187744,0.31,2.62,-0.92,2.79
6.106560945510864,0.38,2.75,0.27,2.78
6.107213973999023,0.35,3.32,1.75,3.76
6.107866048812866,0.45,3.48,2.35,4.22
6.108459949493408,0.8,3.84,2.35,4.57
6.109641790390015,0.93,4.56,2.0,5.06
6.110314130783081,0.97,4.89,1.43,5.18
6.11493706703186,0.84,4.4,0.64,4.52
6.124905824661255,0.77,3.47,-0.26,3.56
6.134931802749634,0.98,2.94,-0.9,3.22
6.205517053604126,1.29,2.41,-1.3,3.02
6.206187963485718,1.6,1.73,-1.27,2.67
6.206843137741089,1.8,1.0,-0.96,2.27
6.207497835159302,2.02,0.4,-0.93,2.25
6.2081458568573,2.32,0.04,-1.21,2.61
6.208806991577148,2.54,-0.15,-1.55,2.97
6.210016965866089,2.63,-0.36,-1.86,3.24
6.214967966079712,2.57,-0.39,-1.92,3.23
6.2249720096588135,2.38,-0.23,-1.87,3.03
6.234983921051025,2.15,-0.12,-1.96,2.91
6.30579686164856,1.77,-0.21,-2.23,2.85
6.306476831436157,1.33,-0.27,-2.45,2.8
6.307146787643433,0.71,-0.25,-2.29,2.41
6.307801961898804,0.09,-0.86,-2.32,2.47
6.30846381187439,-0.41,-1.51,-2.58,3.01
6.309633016586304,-0.74,-2.17,-2.03,3.06
6.3103249073028564,-0.89,-2.7,-1.23,3.09
6.314965009689331,-0.82,-2.89,-0.63,3.06
6.324934005737305,-0.51,-3.16,-0.4,3.22
6.3349950313568115,-0.25,-3.42,-0.09,3.43
6.406412839889526,0.01,-3.44,0.06,3.44
6.407082796096802,0.27,-3.31,-0.02,3.32
6.407735109329224,0.67,-3.33,-0.39,3.41
6.408391952514648,0.88,-3.41,-0.8,3.61
6.409043073654175,0.96,-3.51,-0.9,3.74
6.410139799118042,1.01,-3.39,-0.68,3.6
6.410814046859741,1.0,-3.02,-0.15,3.18
6.414932012557983,1.0,-2.6,0.53,2.83
6.42493200302124,1.02,-2.21,1.03,2.64
6.435096979141235,0.95,-1.84,1.26,2.42
6.506011009216309,0.9,-1.34,1.32,2.08
6.506687879562378,0.84,-0.83,1.22,1.69
6.507349967956543,0.89,-0.37,0.92,1.33
6.508004903793335,1.04,0.15,0.61,1.21
6.50865912437439,1.16,0.73,0.54,1.47
6.5093019008636475,1.15,1.22,0.41,1.72
6.510483026504517,1.03,1.78,0.26,2.07
6.514931917190552,0.8,2.34,0.08,2.47
6.524947881698608,0.58,2.69,-0.31,2.76
6.535014867782593,0.35,2.95,-0.64,3.03
6.606290102005005,0.29,2.9,-1.01,3.08
6.606959104537964,0.23,2.57,-1.29,2.88
6.607619047164917,0.2,2.38,-1.04,2.6
6.608267068862915,0.19,2.69,0.03,2.69
6.608916997909546,0.06,3.43,1.78,3.86
6.610100984573364,-0.18,3.94,3.26,5.11
6.610790014266968,-0.33,4.4,4.13,6.04
6.614972829818726,-0.33,4.85,4.01,6.3
6.625056982040405,-0.38,4.57,2.85,5.39
6.635053873062134,-0.46,3.53,0.74,3.63
6.706934928894043,-0.5,2.52,-1.9,3.19
6.707603931427002,-0.28,1.91,-3.9,4.35
6.708268880844116,-0.13,1.51,-4.62,4.86
6.708862066268921,-0.13,1.09,-4.05,4.19
6.709522008895874,-0.22,0.54,-2.61,2.67
6.710697889328003,-0.27,-0.07,-0.85,0.89
6.7113869190216064,-0.25,-0.4,-0.14,0.49
6.715061902999878,-0.07,-0.41,-0.28,0.5
6.7250449657440186,0.36,-0.2,-0.63,0.75
6.7350828647613525,0.63,0.18,-1.09,1.27
6.807433843612671,0.92,0.55,-1.77,2.06
6.8081018924713135,1.12,1.16,-2.33,2.83
6.80869197845459,1.12,1.77,-2.83,3.52
6.80928111076355,1.12,2.17,-3.17,4.0
6.810467958450317,1.22,2.23,-3.52,4.34
6.811155080795288,1.23,1.96,-3.65,4.32
6.811832904815674,1.26,1.42,-3.16,3.68
6.815056085586548,1.42,0.73,-2.41,2.89
6.825001001358032,1.53,0.08,-1.74,2.31
6.835088014602661,1.67,-0.48,-1.16,2.08
6.907814979553223,1.82,-0.95,-0.79,2.19
6.90851092338562,1.92,-1.27,-0.6,2.37
6.90916895866394,1.96,-1.5,-0.5,2.51
6.909827947616577,1.94,-1.75,-0.53,2.66
6.911037921905518,1.81,-2.0,-0.64,2.77
6.911706924438477,1.67,-2.07,-0.63,2.73
6.912374973297119,1.52,-2.09,-0.57,2.64
6.915053129196167,1.43,-2.04,-0.6,2.56
6.925112962722778,1.47,-1.89,-0.74,2.5
6.935163974761963,1.54,-1.79,-0.94,2.54
7.007922887802124,1.64,-1.73,-1.21,2.67
7.008594989776611,1.79,-1.69,-1.56,2.91
7.009259939193726,1.9,-1.59,-2.02,3.19
7.009927034378052,1.89,-1.4,-2.49,3.42
7.010976076126099,1.72,-1.01,-2.62,3.29
7.011647939682007,1.55,-0.5,-2.35,2.85
7.012325048446655,1.39,-0.12,-2.05,2.47
7.015063047409058,1.24,0.21,-1.72,2.13
7.025091886520386,1.04,0.44,-1.25,1.68
7.035170793533325,0.88,0.57,-0.96,1.42
7.107887029647827,0.79,0.76,-0.96,1.45
7.108568906784058,0.7,0.98,-1.11,1.63
7.109229803085327,0.64,1.24,-1.19,1.83
7.109885931015015,0.67,1.52,-1.22,2.06
7.111084938049316,0.72,1.93,-1.02,2.29
7.111698865890503,0.72,2.55,-0.44,2.68
7.112384080886841,0.59,2.98,0.28,3.05
7.114996910095215,0.5,2.87,0.47,2.95
7.125041961669922,0.5,2.3,0.15,2.35
7.135073900222778,0.73,2.07,-0.62,2.28
7.208301782608032,1.27,1.87,-2.06,3.05
7.208975076675415,1.55,1.49,-2.98,3.67
7.209625959396362,1.76,1.13,-3.14,3.77
7.21027398109436,1.91,0.81,-2.97,3.62
7.211484909057617,1.9,0.44,-2.43,3.11
7.2121570110321045,1.8,0.17,-1.59,2.4
7.212827920913696,1.67,-0.08,-0.9,1.89
7.215134859085083,1.62,-0.26,-0.29,1.66
7.22514796257019,1.59,-0.4,0.32,1.67
7.235201120376587,1.56,-0.58,0.64,1.78
7.308560132980347,1.63,-0.7,0.8,1.94
7.309233903884888,1.79,-0.67,0.74,2.04
7.309888124465942,1.98,-0.51,0.51,2.1
7.310547113418579,2.02,-0.41,0.38,2.09
7.311762094497681,2.1,-0.38,0.33,2.15
7.312435865402222,2.24,-0.31,0.12,2.26
7.313110113143921,2.38,-0.26,-0.17,2.4
7.315119028091431,2.49,-0.2,-0.4,2.52
7.325222015380859,2.53,-0.08,-0.77,2.64
7.33521580696106,2.49,0.06,-1.25,2.78
7.408931016921997,2.3,0.21,-1.76,2.9
7.409611940383911,1.94,0.38,-2.05,2.84
7.410271883010864,1.5,0.46,-2.06,2.58
7.411444902420044,1.07,0.34,-1.82,2.13
7.412128925323486,0.57,0.03,-1.5,1.6
7.412799119949341,0.17,-0.34,-1.0,1.06
7.413461923599243,-0.05,-0.6,-0.31,0.67
7.415158033370972,-0.12,-0.7,0.45,0.84
7.4252119064331055,0.0,-0.7,0.97,1.19
7.435240983963013,0.22,-0.68,1.19,1.38
7.508436918258667,0.4,-0.48,1.29,1.43
7.509109973907471,0.6,-0.07,1.47,1.58
7.509775876998901,0.78,0.31,1.48,1.7
7.510433912277222,0.85,0.56,1.1,1.49
7.511610984802246,0.87,0.84,0.65,1.37
7.512295961380005,0.76,1.12,0.21,1.36
7.512946844100952,0.52,1.25,-0.19,1.36
7.515263795852661,0.23,1.21,-0.46,1.31
7.525197982788086,-0.07,1.05,-0.57,1.19
7.535283803939819,-0.4,0.79,-0.53,1.03
7.608614921569824,-0.77,0.5,-0.42,1.0
7.6092917919158936,-1.06,0.27,-0.2,1.11
7.609955072402954,-1.21,0.05,0.02,1.21
7.610610008239746,-1.29,-0.15,0.26,1.32
7.611768007278442,-1.25,-0.28,0.32,1.32
7.612466096878052,-1.11,-0.37,0.23,1.19
7.613140821456909,-0.93,-0.41,0.01,1.01
7.615235090255737,-0.76,-0.4,-0.22,0.88
7.6252357959747314,-0.6,-0.31,-0.42,0.79
7.635329961776733,-0.53,-0.29,-0.47,0.76
7.7094080448150635,-0.59,-0.38,-0.07,0.7
7.710086107254028,-0.7,-0.44,0.65,1.05
7.710752964019775,-0.74,-0.42,1.3,1.55
7.711918115615845,-0.79,-0.45,1.57,1.81
7.712610960006714,-0.76,-0.52,1.5,1.76
7.713287115097046,-0.7,-0.59,1.37,1.64
7.713964939117432,-0.65,-0.61,1.3,1.57
7.715258836746216,-0.58,-0.53,1.25,1.47
7.725286960601807,-0.42,-0.39,1.12,1.25
7.735329866409302,-0.32,-0.18,1.1,1.15
7.809462785720825,-0.27,0.03,1.09,1.12
7.810129880905151,-0.25,0.24,0.99,1.04
7.810788869857788,-0.23,0.41,0.79,0.91
7.811938047409058,-0.22,0.45,0.48,0.69
7.812617063522339,-0.17,0.38,0.16,0.44
7.813307046890259,-0.11,0.26,-0.19,0.34
7.813982009887695,-0.09,0.11,-0.39,0.41
7.815212965011597,-0.09,0.04,-0.41,0.42
7.82524299621582,-0.11,0.04,-0.24,0.26
7.835362911224365,-0.15,0.14,0.05,0.21
7.9095470905303955,-0.14,0.25,0.33,0.43
7.910228967666626,-0.1,0.37,0.57,0.68
7.910821914672852,-0.1,0.5,0.75,0.9
7.9114789962768555,-0.09,0.59,0.88,1.06
7.912617921829224,-0.09,0.62,0.89,1.08
7.913299798965454,-0.07,0.58,0.8,0.99
7.913977861404419,-0.02,0.6,0.59,0.84
7.9151928424835205,-0.02,0.51,0.46,0.68
7.925320863723755,-0.06,0.16,0.43,0.46
7.935410976409912,-0.15,-0.36,0.61,0.72
8.010049104690552,-0.31,-0.94,0.94,1.36
8.01075792312622,-0.36,-1.35,1.26,1.88
8.011454820632935,-0.37,-1.64,1.41,2.19
8.012557983398438,-0.39,-1.88,1.41,2.38
8.013312101364136,-0.43,-2.0,1.31,2.42
8.013989925384521,-0.47,-1.9,1.16,2.27
8.014648914337158,-0.56,-1.8,0.83,2.05
8.015301942825317,-0.63,-1.63,0.64,1.86
8.024111986160278,-0.72,-1.35,0.69,1.67
8.0933358669281,-0.76,-0.99,0.82,1.49
8.094021081924438,-0.79,-0.7,0.84,1.34
8.09469485282898,-0.82,-0.45,0.78,1.21
8.095887899398804,-0.85,-0.28,0.7,1.13
8.096506834030151,-0.85,0.02,0.64,1.06
8.097170114517212,-0.83,0.27,0.45,0.98
8.097790956497192,-0.8,0.53,0.24,0.98
8.103943109512329,-0.74,0.78,-0.04,1.07
8.114035844802856,-0.64,0.97,-0.27,1.19
8.124135971069336,-0.52,1.11,-0.3,1.26
8.193343877792358,-0.44,1.14,-0.13,1.22
8.194025993347168,-0.38,1.03,0.17,1.11
8.19468092918396,-0.33,0.8,0.45,0.97
8.19586992263794,-0.3,0.47,0.69,0.88
8.196555852890015,-0.45,0.03,1.01,1.1
8.197228908538818,-0.52,-0.32,1.42,1.54
8.197916984558105,-0.64,-0.48,1.9,2.06
8.204154014587402,-0.62,-0.67,2.33,2.5
8.213939905166626,-0.6,-0.84,2.56,2.76
8.224195957183838,-0.51,-0.97,2.57,2.79
8.294158935546875,-0.42,-1.11,2.37,2.65
8.294854879379272,-0.34,-1.22,2.01,2.37
8.296028852462769,-0.28,-1.25,1.63,2.07
8.296647787094116,-0.24,-1.25,1.34,1.84
8.297334909439087,-0.21,-1.22,1.15,1.68
8.297956943511963,-0.18,-1.22,1.0,1.58
8.298557996749878,-0.23,-1.23,1.0,1.6
8.303982973098755,-0.29,-1.26,1.11,1.7
8.313938856124878,-0.34,-1.22,1.25,1.77
8.32408595085144,-0.41,-1.16,1.36,1.83
8.394060850143433,-0.44,-1.1,1.42,1.84
8.394759893417358,-0.48,-1.01,1.41,1.79
8.395492792129517,-0.43,-0.9,1.31,1.64
8.396706819534302,-0.41,-0.79,1.28,1.55
8.397401094436646,-0.44,-0.73,1.34,1.58
8.39816689491272,-0.48,-0.71,1.59,1.8
8.39886999130249,-0.53,-0.67,1.83,2.01
8.405441999435425,-0.56,-0.6,1.93,2.09
8.415243864059448,-0.56,-0.52,1.87,2.02
8.425503015518188,-0.58,-0.43,1.75,1.89
8.435342073440552,-0.58,-0.26,1.7,1.81
8.445462942123413,-0.58,0.02,1.65,1.74
8.51177191734314,-0.57,0.39,1.55,1.69
8.512422800064087,-0.6,0.75,1.4,1.69
8.513595819473267,-0.66,1.1,1.35,1.86
8.514286994934082,-0.76,1.37,1.38,2.08
8.514975786209106,-0.83,1.48,1.4,2.19
8.515630960464478,-0.88,1.55,1.34,2.22
8.516295909881592,-0.96,1.61,1.25,2.25
8.52541184425354,-0.99,1.61,1.21,2.24
8.535377979278564,-0.97,1.61,1.18,2.21
8.545490980148315,-1.06,1.47,1.23,2.19
8.610298871994019,-1.06,1.16,1.27,2.02
8.610963106155396,-1.1,1.04,1.33,2.01
8.611625909805298,-1.15,0.99,1.43,2.08
8.612286806106567,-1.11,1.29,1.82,2.49
8.61349081993103,-1.03,1.63,2.22,2.94
8.614167928695679,-0.77,1.75,2.4,3.06
8.61533498764038,-0.46,2.0,2.55,3.27
8.625401973724365,-0.1,2.45,2.64,3.6
8.635515928268433,0.26,2.57,2.6,3.66
8.645529985427856,0.49,2.27,2.19,3.19
8.71085810661316,0.55,2.16,1.17,2.51
8.711529970169067,0.6,2.04,-0.49,2.18
8.71218490600586,0.58,1.64,-2.07,2.7
8.713375806808472,0.52,1.03,-2.9,3.12
8.714061975479126,0.4,0.33,-3.15,3.19
8.714736938476562,0.24,-0.5,-2.87,2.92
8.715405941009521,0.15,-1.25,-2.26,2.58
8.725515127182007,0.19,-1.8,-1.49,2.34
8.735424995422363,0.33,-2.15,-0.87,2.34
8.745561838150024,0.55,-2.31,-0.33,2.39
8.811367988586426,0.69,-2.35,0.03,2.44
8.812039136886597,0.79,-2.31,0.21,2.45
8.812700033187866,0.85,-2.02,0.35,2.21
8.813905954360962,0.82,-1.63,0.43,1.87
8.81458592414856,0.66,-1.31,0.16,1.47
8.815279960632324,0.46,-1.06,-0.34,1.2
8.8159499168396,0.2,-0.85,-0.74,1.14
8.825515985488892,-0.05,-0.64,-0.86,1.07
8.835593938827515,-0.24,-0.55,-0.79,0.99
8.84557294845581,-0.41,-0.59,-0.69,0.99
8.911531925201416,-0.47,-0.65,-0.51,0.95
8.912216901779175,-0.54,-0.7,-0.16,0.89
8.912882089614868,-0.61,-0.86,0.23,1.07
8.914061784744263,-0.6,-1.03,0.54,1.3
8.914767026901245,-0.54,-1.15,0.84,1.52
8.91543698310852,-0.45,-1.27,1.11,1.74
8.916094064712524,-0.4,-1.41,1.31,1.96
8.925593137741089,-0.3,-1.56,1.42,2.13
8.9356369972229,-0.17,-1.58,1.35,2.08
8.94557785987854,-0.08,-1.68,1.19,2.06
9.012105941772461,-0.03,-1.8,1.04,2.07
9.012780904769897,-0.05,-1.86,0.9,2.06
9.01394009590149,0.0,-1.8,0.81,1.97
9.014575958251953,0.0,-1.64,0.78,1.81
9.015273809432983,-0.04,-1.41,0.92,1.68
9.015948057174683,-0.09,-1.12,1.06,1.54
9.016607999801636,-0.15,-0.88,1.13,1.44
9.025540113449097,-0.17,-0.71,1.14,1.35
9.035614967346191,-0.17,-0.59,1.02,1.19
9.04562497138977,-0.19,-0.45,0.77,0.91
9.111852884292603,-0.16,-0.21,0.56,0.61
9.112531900405884,-0.23,-0.05,0.46,0.51
9.113131999969482,-0.23,0.17,0.52,0.59
9.114386796951294,-0.33,0.5,0.93,1.1
9.115014791488647,-0.33,0.65,1.38,1.56
9.115703821182251,-0.23,0.98,1.84,2.09
9.116370916366577,-0.11,1.49,2.14,2.6
9.125603914260864,0.17,1.74,2.02,2.67
9.135610818862915,0.44,2.05,1.49,2.57
9.145638942718506,0.58,2.32,1.02,2.59
9.212293863296509,0.54,3.06,0.93,3.24
9.212958097457886,0.64,4.08,0.88,4.22
9.214132070541382,0.49,4.9,1.3,5.09
9.214829921722412,0.21,5.32,1.85,5.63
9.215497016906738,-0.14,5.18,2.43,5.72
9.216184854507446,-0.61,4.58,2.59,5.29
9.216840028762817,-0.74,3.89,1.97,4.42
9.225624799728394,-0.75,2.93,0.64,3.09
9.235683917999268,-0.61,2.08,-0.93,2.35
9.245639085769653,-0.48,1.41,-2.09,2.56
9.312521934509277,-0.45,0.61,-2.22,2.34
9.313196897506714,-0.66,-0.25,-1.82,1.95
9.314400911331177,-0.87,-0.97,-1.18,1.75
9.315107107162476,-1.03,-1.54,-0.41,1.89
9.315786123275757,-1.14,-1.97,0.09,2.27
9.316463947296143,-1.28,-2.15,0.38,2.53
9.317116022109985,-1.41,-2.07,0.55,2.56
9.325634002685547,-1.56,-2.0,0.69,2.62
9.335676908493042,-1.61,-1.99,0.66,2.64
9.345573902130127,-1.66,-1.99,0.49,2.63
9.41292691230774,-1.64,-1.96,0.14,2.55
9.413617849349976,-1.5,-1.95,-0.32,2.48
9.414834976196289,-1.21,-1.85,-0.65,2.3
9.415508031845093,-0.87,-1.75,-0.85,2.13
9.416183948516846,-0.57,-1.84,-1.06,2.19
9.416845083236694,-0.18,-1.92,-1.21,2.27
9.417454957962036,0.09,-2.01,-1.21,2.34
9.425658941268921,0.37,-2.24,-1.16,2.54
9.43576192855835,0.54,-2.43,-0.99,2.67
9.44567084312439,0.57,-2.61,-0.64,2.74
9.512709856033325,0.5,-2.74,-0.2,2.79
9.513378858566284,0.3,-2.8,0.31,2.83
9.51452898979187,0.13,-2.86,0.74,2.95
9.515226125717163,0.0,-2.84,0.94,2.99
9.515908002853394,-0.04,-2.63,1.01,2.81
9.51659083366394,-0.05,-2.29,0.99,2.49
9.517258882522583,-0.1,-1.91,0.97,2.14
9.525671005249023,-0.15,-1.46,0.95,1.74
9.53576397895813,-0.22,-1.06,1.05,1.5
9.545748949050903,-0.35,-0.67,1.2,1.41
9.613303899765015,-0.49,-0.2,1.35,1.45
9.613964796066284,-0.59,0.19,1.44,1.56
9.615154027938843,-0.55,0.56,1.48,1.67
9.615840911865234,-0.54,1.04,1.22,1.69
9.616524934768677,-0.41,1.61,0.87,1.87
9.617175817489624,-0.39,2.3,0.69,2.43
9.617840051651001,-0.54,2.86,0.76,3.0
9.625728845596313,-0.75,3.07,1.04,3.32
9.635738134384155,-1.0,3.08,1.25,3.47
9.645782947540283,-1.1,2.77,1.21,3.21
9.713531017303467,-1.11,2.41,0.97,2.82
9.714199781417847,-0.87,2.21,0.88,2.53
9.715364933013916,-0.61,2.42,1.4,2.86
9.716041803359985,-0.41,3.01,2.52,3.94
9.716723918914795,-0.17,3.39,3.23,4.68
9.717370986938477,0.35,3.53,3.15,4.74
9.718020915985107,0.86,3.87,2.53,4.7
9.725719928741455,1.14,3.95,1.48,4.36
9.735759973526001,1.3,3.47,0.23,3.71
9.745816946029663,1.44,2.86,-1.11,3.38
9.81387996673584,1.45,2.36,-2.17,3.51
9.815032005310059,1.58,1.52,-2.54,3.35
9.815728902816772,1.55,0.59,-2.42,2.93
9.816431999206543,1.42,-0.45,-1.8,2.33
9.817101955413818,1.38,-1.23,-1.07,2.13
9.817776918411255,1.44,-1.59,-0.4,2.18
9.818427801132202,1.55,-1.87,0.08,2.43
9.825721979141235,1.6,-2.03,0.53,2.63
9.835633993148804,1.55,-2.03,0.65,2.63
9.845850944519043,1.5,-1.97,0.21,2.48
9.914206981658936,1.49,-1.65,-0.35,2.25
9.915374994277954,1.25,-1.47,-0.94,2.14
9.916037797927856,0.84,-1.43,-1.45,2.2
9.916708946228027,0.24,-1.46,-1.73,2.27
9.917372941970825,-0.26,-1.67,-1.92,2.55
9.918030023574829,-0.77,-1.92,-1.91,2.81
9.918685913085938,-0.99,-2.07,-1.37,2.67
9.92581582069397,-0.97,-2.38,-0.84,2.7
9.93578290939331,-0.9,-2.91,-0.43,3.07
9.945903062820435,-0.85,-3.13,0.22,3.25
10.014768838882446,-0.57,-3.21,0.43,3.28
10.015447854995728,-0.26,-3.18,0.47,3.22
10.016125917434692,-0.03,-3.24,0.41,3.26
10.016812086105347,0.21,-3.26,0.22,3.27
10.017389059066772,0.26,-3.26,0.03,3.27
10.018051862716675,0.29,-3.01,0.04,3.02
10.018723964691162,0.24,-2.56,0.37,2.59
10.025766134262085,0.18,-2.29,0.96,2.48
10.035762071609497,0.11,-1.98,1.49,2.48
10.045877933502197,-0.09,-1.49,1.87,2.39
10.114763021469116,-0.17,-1.07,1.85,2.14
10.115917921066284,-0.24,-0.7,1.68,1.83
10.116605043411255,-0.22,-0.21,1.39,1.42
10.117273092269897,-0.04,0.46,0.92,1.02
10.117924928665161,0.22,1.27,0.43,1.35
10.118566989898682,0.43,2.01,0.35,2.08
10.119218111038208,0.52,2.9,0.74,3.03
10.125769853591919,0.66,3.73,1.17,3.96
10.198466062545776,0.54,3.88,1.36,4.14
10.199148893356323,0.24,3.68,1.15,3.86
10.199827909469604,-0.03,3.55,0.57,3.59
10.20049786567688,-0.1,3.45,0.13,3.45
10.201157808303833,-0.2,3.65,0.61,3.7
10.201820135116577,-0.51,4.06,1.76,4.45
10.202473878860474,-0.94,4.23,2.51,5.0
10.205912828445435,-1.42,4.63,3.14,5.77
10.215937852859497,-1.67,4.79,3.09,5.93
10.225827932357788,-1.67,4.6,2.29,5.4
10.298847913742065,-1.54,3.85,0.72,4.2
10.299544095993042,-1.25,3.09,-1.01,3.48
10.300235986709595,-0.72,2.58,-2.6,3.73
10.300913095474243,-0.4,1.83,-3.59,4.04
10.301574945449829,-0.56,0.62,-3.17,3.27
10.302227973937988,-0.85,-0.33,-1.9,2.1
10.302881956100464,-1.18,-0.91,-0.69,1.64
10.30589509010315,-1.47,-1.25,-0.2,1.93
10.316095113754272,-1.69,-1.45,-0.23,2.23
10.325960874557495,-1.91,-1.57,-0.31,2.49
10.399254083633423,-1.88,-1.56,-0.4,2.47
10.399930000305176,-1.74,-1.51,-0.78,2.43
10.40059781074524,-1.55,-1.31,-1.41,2.47
10.4012610912323,-1.26,-1.28,-1.84,2.57
10.401916980743408,-0.83,-1.43,-2.05,2.63
10.402568101882935,-0.42,-1.54,-2.36,2.84
10.40322494506836,-0.1,-1.75,-2.45,3.01
10.405832052230835,0.23,-1.94,-2.13,2.89
10.416260957717896,0.6,-2.27,-1.57,2.82
10.426058053970337,0.81,-2.81,-1.02,3.09
10.499072790145874,0.83,-3.19,-0.52,3.33
10.499754905700684,0.92,-3.59,-0.32,3.71
10.50042200088501,0.8,-3.96,-0.39,4.05
10.501085042953491,0.57,-4.3,-0.53,4.36
10.501742124557495,0.39,-4.4,-0.43,4.43
10.502403020858765,0.21,-4.28,0.0,4.28
10.503057956695557,0.06,-4.01,0.57,4.05
10.505814790725708,-0.04,-3.59,1.16,3.77
10.516391038894653,-0.2,-3.03,1.87,3.56
10.526076078414917,-0.3,-2.38,2.29,3.31
10.598541975021362,-0.37,-1.65,2.06,2.66
10.599707841873169,-0.43,-0.92,1.51,1.81
10.600408792495728,-0.51,-0.29,0.85,1.03
10.60108494758606,-0.77,0.16,0.46,0.91
10.601745843887329,-0.84,0.7,0.03,1.09
10.602412939071655,-0.91,1.28,-0.31,1.6
10.603071928024292,-0.78,1.86,-0.29,2.03
10.60579800605774,-0.69,2.3,-0.1,2.4
10.616290807723999,-0.73,2.51,0.08,2.61
10.625981092453003,-0.6,2.73,0.23,2.8
10.699313879013062,-0.42,2.92,0.61,3.01
10.699975967407227,-0.44,2.85,1.02,3.05
10.700629949569702,-0.39,2.79,1.41,3.15
10.701287031173706,-0.29,3.39,2.23,4.06
10.70193600654602,-0.08,4.33,3.15,5.35
10.70253300666809,0.42,4.33,3.35,5.49
10.703176975250244,1.05,4.58,3.27,5.72
10.705920934677124,1.26,5.01,2.66,5.81
10.71654486656189,1.36,4.86,1.79,5.35
10.726104974746704,1.25,4.12,1.03,4.42
10.79958701133728,1.16,3.15,0.17,3.36
10.800267934799194,1.24,2.35,-0.77,2.76
10.800925970077515,1.13,1.5,-1.52,2.41
10.801580905914307,1.17,0.44,-1.7,2.11
10.802242040634155,1.09,-0.64,-1.49,1.95
10.802904844284058,1.07,-1.26,-0.97,1.91
10.803562879562378,1.09,-1.65,-0.33,2.0
10.805919885635376,1.15,-1.93,0.25,2.26
10.816404104232788,1.26,-2.11,0.56,2.52
10.826040029525757,1.28,-2.15,0.3,2.52
10.899208784103394,1.45,-2.17,-0.3,2.62
10.899886846542358,1.51,-1.77,-0.72,2.43
10.900568008422852,1.39,-1.56,-1.02,2.32
10.901238918304443,1.07,-1.68,-1.22,2.33
10.901906967163086,0.61,-1.8,-1.56,2.45
10.902565002441406,0.02,-1.88,-2.58,3.19
10.903219938278198,-0.44,-2.15,-3.19,3.87
10.905924081802368,-0.9,-2.53,-2.85,3.91
10.916384935379028,-1.1,-3.14,-2.21,3.99
10.926090002059937,-1.22,-3.28,-1.38,3.76
10.999521017074585,-1.04,-3.5,-0.69,3.71
11.00019097328186,-0.96,-3.57,-0.1,3.69
11.00085186958313,-0.64,-3.39,0.23,3.45
11.001513957977295,-0.4,-3.17,0.19,3.2
11.002169847488403,-0.12,-2.91,-0.07,2.91
11.002829790115356,0.18,-2.48,-0.29,2.5
11.003484964370728,0.26,-2.23,-0.32,2.26
11.006026983261108,0.17,-2.29,-0.08,2.29
11.01638388633728,0.32,-1.91,0.43,1.98
11.026081800460815,0.34,-1.33,1.04,1.72
11.101279973983765,0.34,-1.0,1.71,2.0
11.101957082748413,0.26,-0.8,2.1,2.26
11.102587938308716,0.19,-0.6,2.18,2.26
11.103246927261353,0.23,-0.25,2.0,2.02
11.103893041610718,0.4,0.27,1.43,1.5
11.104535818099976,0.5,0.84,0.71,1.2
11.105179071426392,0.52,1.51,0.37,1.63
11.105993032455444,0.38,2.32,0.46,2.39
11.116698026657104,0.21,3.02,0.83,3.13
11.126147985458374,0.07,3.52,1.27,3.74
11.201282978057861,-0.22,3.53,1.3,3.76
11.201950788497925,-0.34,3.32,0.88,3.45
11.202613115310669,-0.29,3.37,0.31,3.39
11.2032790184021,-0.22,3.88,0.27,3.89
11.203945875167847,-0.34,4.49,0.89,4.58
11.204596996307373,-0.75,4.97,1.97,5.39
11.205279111862183,-1.22,5.45,3.15,6.41
11.206159830093384,-1.71,5.56,3.51,6.79
11.21616005897522,-1.81,5.21,3.16,6.35
11.22627592086792,-1.83,4.63,1.46,5.18
11.301337003707886,-1.58,3.9,-0.78,4.27
11.302012920379639,-1.24,3.5,-2.68,4.57
11.302670001983643,-0.75,2.51,-4.12,4.88
11.303331136703491,-0.71,1.1,-4.2,4.39
11.303987979888916,-0.96,-0.01,-3.02,3.16
11.304634809494019,-1.2,-0.76,-1.75,2.25
11.305306911468506,-1.34,-1.24,-1.05,2.1
11.306199789047241,-1.44,-1.58,-0.75,2.26
11.316123008728027,-1.59,-1.81,-0.54,2.46
11.326292991638184,-1.6,-1.95,-0.43,2.55
11.401644945144653,-1.52,-1.93,-0.51,2.5
11.40232801437378,-1.48,-1.85,-0.74,2.48
11.403001070022583,-1.3,-1.78,-1.01,2.42
11.403657913208008,-1.02,-1.73,-1.38,2.43
11.404313802719116,-0.79,-1.66,-1.68,2.49
11.404968976974487,-0.26,-2.02,-2.01,2.86
11.40565800666809,0.06,-2.39,-1.98,3.1
11.406310796737671,0.14,-2.34,-1.63,2.85
11.416232824325562,0.4,-2.42,-1.31,2.78
11.426240921020508,0.45,-2.48,-1.0,2.71
11.501575946807861,0.48,-2.78,-0.83,2.94
11.502257108688354,0.32,-3.13,-0.13,3.14
11.502926111221313,0.04,-3.52,0.17,3.52
11.503582954406738,-0.1,-3.61,0.14,3.61
11.50424313545227,-0.12,-3.43,0.0,3.43
11.50490403175354,-0.07,-3.21,-0.18,3.21
11.50558590888977,0.03,-2.87,-0.37,2.89
11.50624680519104,-0.01,-2.47,-0.31,2.48
11.516177892684937,-0.06,-1.96,0.19,1.97
11.526279926300049,-0.21,-1.58,0.6,1.7
11.601666927337646,-0.31,-1.43,0.78,1.65
11.60234808921814,-0.46,-1.29,0.79,1.58
11.603018999099731,-0.54,-0.78,0.64,1.14
11.603691816329956,-0.62,-0.31,0.3,0.75
11.604355096817017,-0.67,0.16,-0.05,0.69
11.605014085769653,-0.79,0.67,0.12,1.04
11.605714082717896,-0.86,1.18,0.33,1.49
11.606802940368652,-0.93,1.87,0.32,2.11
11.616187810897827,-0.97,2.51,0.42,2.72
11.626364946365356,-1.06,2.69,0.49,2.93
11.703026056289673,-1.09,2.4,0.52,2.68
11.703702926635742,-1.11,2.04,0.78,2.44
11.704365968704224,-0.84,2.24,1.64,2.9
11.705030918121338,-0.52,2.98,2.72,4.06
11.70570683479309,-0.07,3.18,3.35,4.61
11.706358909606934,0.45,3.57,3.76,5.2
11.707000017166138,0.76,4.5,4.05,6.1
11.707642793655396,0.69,4.77,3.83,6.15
11.716211080551147,0.71,4.33,2.85,5.23
11.72626280784607,0.89,3.93,1.21,4.2
11.803689956665039,1.17,3.51,-0.53,3.73
11.804372072219849,1.28,2.6,-1.96,3.49
11.805036783218384,1.35,1.38,-2.81,3.4
11.805717945098877,1.29,0.33,-2.7,3.01
11.806381940841675,1.17,-0.22,-2.04,2.36
11.807044982910156,1.11,-0.55,-1.15,1.69
11.807707071304321,1.19,-0.76,-0.44,1.47
11.808363914489746,1.18,-0.93,-0.07,1.5
11.816230058670044,1.19,-1.07,-0.1,1.6
11.826360940933228,1.12,-1.18,-0.38,1.67
11.903867959976196,1.03,-1.06,-1.03,1.8
11.904541015625,0.65,-0.8,-1.85,2.11
11.905195951461792,0.26,-0.6,-2.49,2.57
11.905874967575073,-0.08,-0.42,-2.68,2.71
11.906526803970337,-0.47,-0.56,-2.44,2.54
11.907176971435547,-0.71,-1.06,-2.06,2.42
11.907840013504028,-0.81,-1.55,-1.71,2.44
11.90848994255066,-0.79,-2.16,-1.45,2.71
11.916285991668701,-0.72,-2.75,-1.2,3.08
11.926317930221558,-0.61,-3.07,-0.89,3.25
12.004480123519897,-0.43,-3.19,-0.59,3.27
12.005177974700928,-0.18,-3.08,-0.41,3.11
12.005881071090698,0.07,-3.03,-0.24,3.04
12.006580114364624,0.16,-3.31,-0.29,3.32
12.007263898849487,0.11,-3.76,-0.61,3.81
12.007942914962769,0.18,-3.78,-0.9,3.88
12.008626937866211,0.15,-3.5,-0.66,3.56
12.009301900863647,0.12,-3.2,0.22,3.2
12.014899015426636,0.04,-2.85,1.13,3.06
12.024924039840698,-0.01,-2.41,1.69,2.94
12.104905843734741,-0.03,-1.88,1.76,2.57
12.1055748462677,0.04,-1.2,1.66,2.04
12.106226921081543,0.14,-0.52,1.44,1.53
12.106870889663696,0.23,0.19,1.02,1.06
12.107518911361694,0.36,0.83,0.49,1.02
12.108175992965698,0.46,1.56,0.21,1.63
12.108768939971924,0.6,2.37,0.21,2.45
12.109412908554077,0.71,3.14,0.4,3.24
12.114995002746582,0.68,3.59,0.7,3.72
12.124941110610962,0.63,3.58,1.01,3.77
12.205168962478638,0.5,3.15,1.02,3.34
12.205830812454224,0.38,2.51,0.7,2.63
12.206488847732544,0.36,2.29,0.44,2.35
12.207139015197754,0.29,2.73,0.97,2.91
12.207806825637817,-0.17,3.34,2.14,3.97
12.208471059799194,-0.56,3.67,3.09,4.83
12.20912790298462,-0.84,4.21,3.61,5.6
12.209712982177734,-0.84,4.81,3.56,6.04
12.214907884597778,-0.8,4.82,3.05,5.75
12.225137948989868,-0.89,4.04,1.93,4.56
12.305614948272705,-0.88,3.15,0.26,3.28
12.306289911270142,-0.68,2.65,-1.6,3.16
12.306952953338623,-0.49,2.11,-2.82,3.55
12.307651996612549,-0.63,1.21,-2.85,3.15
12.308358907699585,-0.95,0.22,-1.86,2.1
12.309046983718872,-1.33,-0.57,-0.74,1.62
12.30971884727478,-1.55,-1.0,-0.2,1.85
12.3103768825531,-1.64,-1.07,0.04,1.95
12.314863920211792,-1.72,-1.03,0.34,2.03
12.324867963790894,-1.68,-1.01,0.34,1.98
12.4060959815979,-1.28,-1.05,-0.22,1.67
12.406773805618286,-0.97,-1.1,-1.55,2.13
12.40743899345398,-0.75,-1.14,-2.3,2.67
12.408095121383667,-0.5,-0.8,-3.02,3.16
12.408694982528687,-0.19,-0.8,-3.28,3.38
12.409357786178589,-0.05,-1.17,-3.13,3.34
12.410013914108276,0.27,-1.6,-2.72,3.16
12.410664796829224,0.56,-1.92,-2.25,3.01
12.416358947753906,0.9,-2.37,-1.83,3.12
12.426450967788696,0.91,-2.84,-1.32,3.26
12.506129026412964,0.81,-3.25,-0.62,3.4
12.506793975830078,0.57,-3.57,-0.08,3.61
12.507452964782715,0.4,-3.68,0.09,3.7
12.508104085922241,0.33,-3.51,0.01,3.52
12.508754014968872,0.28,-3.25,-0.18,3.26
12.509398937225342,0.35,-2.97,-0.42,3.01
12.509988069534302,0.35,-2.76,-0.43,2.81
12.510640859603882,0.27,-2.71,-0.3,2.73
12.516295909881592,0.12,-2.47,-0.16,2.47
12.526478052139282,-0.02,-2.01,0.12,2.01
12.606612920761108,-0.16,-1.58,0.39,1.63
12.607293844223022,-0.28,-1.27,0.44,1.37
12.6079580783844,-0.35,-1.03,0.43,1.16
12.608620882034302,-0.24,-0.75,0.25,0.82
12.609279870986938,-0.15,-0.22,-0.14,0.3
12.609939813613892,-0.02,0.36,-0.45,0.57
12.610598802566528,-0.07,0.84,-0.48,0.97
12.611279010772705,-0.22,1.29,-0.25,1.33
12.616337060928345,-0.48,1.82,0.15,1.88
12.626532793045044,-0.67,2.28,0.45,2.41
12.706429958343506,-0.79,2.48,0.42,2.63
12.707098007202148,-0.77,2.54,0.36,2.67
12.707756996154785,-0.72,2.37,0.17,2.48
12.708409070968628,-0.52,2.39,0.23,2.45
12.709057092666626,-0.15,3.15,1.12,3.34
12.709710836410522,0.07,3.65,2.36,4.34
12.710361957550049,0.35,3.59,3.05,4.72
12.711007833480835,0.51,3.79,3.55,5.21
12.716290950775146,0.55,4.24,3.64,5.61
12.726514101028442,0.48,4.16,3.09,5.2
12.806769132614136,0.45,3.6,2.01,4.14
12.807438135147095,0.62,3.17,0.55,3.27
12.808104991912842,0.98,2.66,-1.02,3.01
12.80876088142395,1.32,2.02,-2.15,3.23
12.809410810470581,1.49,1.19,-2.66,3.27
12.810057878494263,1.51,0.35,-2.34,2.8
12.810717821121216,1.47,-0.36,-1.74,2.3
12.811378002166748,1.46,-0.73,-1.39,2.14
12.81646990776062,1.52,-0.95,-1.38,2.26
12.826657056808472,1.47,-1.23,-1.35,2.34
12.907142877578735,1.37,-1.45,-1.23,2.34
12.907819032669067,1.06,-1.39,-1.19,2.11
12.908478021621704,0.65,-1.23,-1.07,1.75
12.909137964248657,0.06,-1.0,-0.93,1.36
12.909795999526978,-0.43,-0.86,-0.9,1.31
12.91045093536377,-0.84,-0.92,-1.01,1.6
12.911104917526245,-1.05,-1.08,-0.99,1.8
12.9117591381073,-1.0,-1.51,-0.93,2.03
12.916342973709106,-0.82,-2.03,-0.93,2.37
12.926555871963501,-0.58,-2.41,-0.91,2.64
13.007059812545776,-0.39,-2.58,-0.66,2.69
13.007737874984741,-0.26,-2.68,-0.26,2.7
13.008399963378906,-0.12,-2.74,-0.02,2.74
13.009054899215698,-0.08,-2.83,-0.11,2.83
13.009719133377075,-0.09,-3.05,-0.37,3.07
13.01031494140625,-0.12,-3.05,-0.55,3.1
13.010903120040894,-0.12,-3.01,-0.47,3.04
13.011563062667847,-0.15,-2.98,-0.11,2.98
13.016494989395142,-0.18,-2.74,0.46,2.78
13.026580095291138,-0.1,-2.32,1.04,2.54
13.10713505744934,-0.09,-1.85,1.37,2.3
13.107831001281738,-0.08,-1.26,1.35,1.84
13.108493089675903,-0.06,-0.72,1.07,1.29
13.109149932861328,-0.07,-0.19,0.64,0.67
13.10981297492981,-0.02,0.49,0.04,0.49
13.11046290397644,0.02,1.12,-0.42,1.19
13.111121892929077,0.05,1.71,-0.59,1.8
13.111773014068604,0.1,2.29,-0.44,2.33
13.116525888442993,0.08,2.6,-0.09,2.6
13.126637935638428,0.06,2.7,0.27,2.71
13.207047939300537,0.08,2.51,0.43,2.54
13.207655906677246,0.08,2.15,0.22,2.16
13.208324909210205,0.13,1.85,-0.02,1.85
13.208990812301636,0.28,1.63,-0.23,1.66
13.20964789390564,0.45,1.64,-0.11,1.7
13.210300922393799,0.47,2.12,0.7,2.28
13.210948944091797,0.14,2.58,1.87,3.18
13.211604833602905,-0.16,3.03,2.91,4.2
13.216591119766235,-0.49,3.7,3.37,5.02
13.226624011993408,-0.73,4.17,3.29,5.36
13.307482957839966,-0.96,4.02,2.64,4.9
13.308153867721558,-1.08,3.35,1.03,3.66
13.308818101882935,-0.93,2.71,-1.16,3.09
13.309472799301147,-0.76,2.22,-2.89,3.72
13.310131788253784,-0.73,1.69,-3.4,3.86
13.310789823532104,-1.02,0.66,-2.71,2.96
13.311442136764526,-1.4,-0.46,-1.53,2.12
13.31209683418274,-1.71,-1.1,-0.65,2.13
13.316491842269897,-1.79,-1.4,-0.56,2.34
13.326503038406372,-1.79,-1.5,-0.77,2.45
13.40796685218811,-1.75,-1.41,-0.75,2.36
13.408636808395386,-1.67,-1.24,-0.54,2.14
13.409305810928345,-1.62,-1.09,-0.44,2.0
13.409964799880981,-1.43,-0.89,-0.79,1.86
13.410630941390991,-1.12,-0.6,-1.53,1.98
13.411284923553467,-0.81,-0.45,-2.25,2.43
13.41193699836731,-0.41,-0.37,-2.83,2.88
13.412585020065308,-0.03,-0.42,-3.21,3.23
13.416610956192017,0.33,-0.6,-2.96,3.03
13.426603078842163,0.59,-0.8,-2.33,2.53
13.507690906524658,0.71,-1.1,-1.66,2.11
13.508363008499146,0.84,-1.37,-1.11,1.95
13.509031057357788,0.85,-1.52,-0.63,1.85
13.509662866592407,0.61,-1.73,-0.24,1.85
13.510320901870728,0.59,-2.07,-0.02,2.15
13.510976076126099,0.53,-2.27,-0.01,2.33
13.51162600517273,0.52,-2.4,-0.02,2.45
13.512277841567993,0.55,-2.44,0.0,2.5
13.516626119613647,0.5,-2.27,0.05,2.32
13.526631116867065,0.34,-2.02,0.21,2.05
13.607684850692749,0.08,-1.83,0.45,1.88
13.608402013778687,-0.21,-1.6,0.64,1.73
13.609073877334595,-0.57,-1.35,0.71,1.62
13.609732866287231,-0.84,-1.13,0.55,1.51
13.610384941101074,-1.08,-0.82,0.37,1.4
13.611040830612183,-1.21,-0.51,0.16,1.32
13.611710786819458,-1.13,-0.14,-0.26,1.16
13.612371921539307,-0.93,0.17,-0.87,1.28
13.616557836532593,-0.81,0.5,-1.24,1.56
13.626760005950928,-0.78,0.86,-1.16,1.64
13.707465887069702,-0.79,1.11,-0.7,1.53
13.708155870437622,-0.8,1.25,-0.21,1.49
13.708822965621948,-0.82,1.37,0.23,1.61
13.709474802017212,-0.85,1.42,0.56,1.74
13.710131883621216,-0.89,1.33,0.64,1.72
13.710779905319214,-0.87,1.2,0.44,1.54
13.711435079574585,-0.77,1.05,0.26,1.32
13.712085008621216,-0.67,1.0,0.22,1.22
13.716585874557495,-0.6,1.33,0.65,1.59
13.72672700881958,-0.58,2.25,1.49,2.76
13.807559967041016,-0.63,2.92,2.2,3.7
13.80818486213684,-0.63,3.28,2.66,4.26
13.808856010437012,-0.66,3.53,2.63,4.45
13.809515953063965,-0.63,3.4,1.78,3.88
13.810176134109497,-0.62,2.81,-0.09,2.87
13.810837030410767,-0.39,2.11,-2.21,3.08
13.811492919921875,0.04,1.44,-3.82,4.08
13.812144041061401,0.48,0.91,-4.68,4.79
13.816645860671997,0.85,0.52,-4.39,4.5
13.826842069625854,0.77,0.18,-2.97,3.07
13.907112836837769,0.62,-0.39,-1.06,1.28
13.908358812332153,0.5,-0.96,-0.04,1.08
13.909032106399536,0.44,-1.21,-0.01,1.28
13.909703969955444,0.38,-1.04,-0.35,1.16
13.910362958908081,0.18,-0.58,-0.67,0.9
13.911020040512085,-0.22,-0.11,-0.81,0.84
13.911681890487671,-0.66,0.17,-0.9,1.12
13.912336111068726,-1.06,0.45,-1.03,1.54
13.916643857955933,-1.44,0.72,-1.0,1.89
13.926757097244263,-1.82,1.07,-0.94,2.31
14.018102884292603,-2.01,1.48,-0.88,2.64
14.018779993057251,-2.01,1.67,-1.13,2.84
14.019450902938843,-1.86,1.68,-1.73,3.04
14.02060580253601,-1.75,1.6,-2.36,3.34
14.021299123764038,-1.63,1.44,-2.61,3.39
14.021962881088257,-1.53,1.14,-2.59,3.21
14.022624015808105,-1.32,0.74,-2.36,2.8
14.023289918899536,-1.12,0.38,-2.06,2.37
14.023952007293701,-0.94,-0.07,-1.29,1.59
14.026710987091064,-0.85,-0.58,-0.48,1.13
14.036638975143433,-0.81,-1.14,0.06,1.39
14.118789911270142,-0.84,-1.51,0.32,1.75
14.119394063949585,-0.96,-1.74,0.32,2.01
14.1200590133667,-1.03,-1.86,0.12,2.12
14.121263980865479,-1.07,-1.94,-0.24,2.22
14.12188196182251,-1.09,-1.94,-0.72,2.33
14.122558832168579,-1.02,-1.8,-1.15,2.36
14.123228788375854,-1.0,-1.58,-1.42,2.34
14.123892068862915,-0.93,-1.41,-1.6,2.32
14.12682294845581,-0.84,-1.1,-1.68,2.17
14.136734008789062,-0.73,-0.7,-1.7,1.97
14.21875,-0.57,-0.31,-1.56,1.68
14.219429016113281,-0.39,0.04,-1.37,1.42
14.220092058181763,-0.16,0.32,-1.14,1.19
14.221292972564697,-0.02,0.64,-1.03,1.21
14.221970796585083,0.15,0.87,-0.88,1.24
14.222652912139893,0.25,1.0,-0.71,1.25
14.223305940628052,0.29,1.06,-0.53,1.22
14.223973035812378,0.27,1.13,-0.31,1.2
14.22680401802063,0.21,1.24,-0.05,1.25
14.236676931381226,0.1,1.27,0.14,1.28
14.31995701789856,-0.06,1.14,0.38,1.2
14.321120023727417,-0.17,0.94,0.45,1.05
14.321830987930298,-0.19,0.71,0.22,0.76
14.32250189781189,-0.2,0.5,-0.1,0.54
14.3231840133667,-0.22,0.3,-0.35,0.51
14.323817014694214,-0.27,0.2,-0.39,0.51
14.32447600364685,-0.35,0.04,-0.44,0.56
14.325125932693481,-0.34,-0.15,-0.55,0.66
14.326812982559204,-0.24,-0.21,-0.57,0.65
14.3367760181427,-0.07,0.02,-0.38,0.38
14.41930079460144,-0.01,0.39,0.02,0.39
14.41997504234314,-0.03,0.55,0.42,0.69
14.420630931854248,-0.25,0.6,0.44,0.78
14.421776056289673,-0.5,0.55,-0.06,0.74
14.42245078086853,-0.79,0.45,-0.74,1.17
14.423117876052856,-1.06,0.29,-1.19,1.61
14.423800945281982,-1.37,0.11,-1.36,1.93
14.424452066421509,-1.72,-0.03,-1.2,2.09
14.426795959472656,-2.05,-0.2,-0.92,2.25
14.436753988265991,-2.44,-0.31,-0.51,2.51
14.519607782363892,-2.78,-0.42,-0.37,2.83
14.520302057266235,-3.08,-0.44,-0.34,3.12
14.521497964859009,-3.25,-0.21,-0.53,3.29
14.522148847579956,-3.25,0.1,-0.76,3.33
14.522847890853882,-3.17,0.31,-0.9,3.3
14.523567914962769,-2.93,0.38,-0.98,3.11
14.524235010147095,-2.58,0.23,-1.11,2.81
14.524902105331421,-2.09,0.01,-1.4,2.51
14.52689790725708,-1.67,-0.34,-1.76,2.44
14.536811113357544,-1.48,-0.37,-1.67,2.26
14.618551969528198,-1.27,-0.23,-1.75,2.17
14.619234800338745,-1.24,-0.13,-1.5,1.95
14.61989712715149,-1.34,0.02,-1.05,1.7
14.62055492401123,-1.54,0.24,-0.63,1.68
14.621755838394165,-1.66,0.37,-0.42,1.75
14.622437000274658,-1.67,0.33,-0.27,1.72
14.623114824295044,-1.65,0.16,-0.17,1.66
14.623776912689209,-1.56,0.09,-0.28,1.58
14.626879930496216,-1.4,0.13,-0.43,1.47
14.6368248462677,-1.22,0.22,-0.53,1.34
14.720708131790161,-1.06,0.34,-0.56,1.24
14.721824884414673,-0.95,0.47,-0.51,1.17
14.722491979598999,-0.93,0.55,-0.35,1.13
14.723154783248901,-0.97,0.52,-0.06,1.1
14.723814964294434,-1.12,0.35,0.27,1.2
14.72446894645691,-1.21,0.05,0.4,1.27
14.725117921829224,-1.2,-0.26,0.54,1.34
14.725774049758911,-1.17,-0.42,0.6,1.38
14.726804971694946,-1.1,-0.56,0.47,1.32
14.736865997314453,-0.96,-0.67,0.24,1.19
14.818257093429565,-0.91,-0.76,0.02,1.18
14.81890606880188,-0.88,-0.79,-0.07,1.18
14.81956696510315,-0.92,-0.81,0.03,1.22
14.820224046707153,-0.97,-0.72,0.33,1.25
14.820881128311157,-1.14,-0.63,0.74,1.49
14.821869134902954,-1.29,-0.56,1.1,1.78
14.82253384590149,-1.43,-0.54,1.22,1.95
14.823194980621338,-1.53,-0.58,1.16,2.0
14.826917886734009,-1.6,-0.63,1.02,1.99
14.837212800979614,-1.56,-0.66,0.79,1.86
14.919497013092041,-1.49,-0.68,0.5,1.71
14.920167922973633,-1.34,-0.61,0.33,1.5
14.920833826065063,-1.21,-0.46,0.34,1.33
14.921817064285278,-1.09,-0.37,0.46,1.23
14.92249083518982,-0.94,-0.29,0.67,1.19
14.92314600944519,-0.85,-0.21,0.85,1.22
14.923800945281982,-0.78,-0.14,0.99,1.26
14.924457788467407,-0.77,-0.04,1.13,1.36
14.926957845687866,-0.74,0.01,1.16,1.37
14.936850786209106,-0.67,0.02,1.06,1.25
15.017564058303833,-0.56,-0.04,0.91,1.06
15.018239974975586,-0.45,-0.08,0.69,0.82
15.018903017044067,-0.42,-0.07,0.49,0.64
15.019556999206543,-0.37,-0.04,0.4,0.54
15.02021598815918,-0.39,-0.03,0.47,0.61
15.020870923995972,-0.45,-0.08,0.68,0.81
15.02184796333313,-0.47,-0.16,0.91,1.03
15.022528886795044,-0.44,-0.22,1.11,1.21
15.026962041854858,-0.43,-0.26,1.33,1.42
15.036821126937866,-0.43,-0.36,1.52,1.62
15.118749856948853,-0.44,-0.44,1.59,1.7
15.11946702003479,-0.45,-0.46,1.54,1.66
15.120073080062866,-0.45,-0.42,1.44,1.56
15.120725870132446,-0.43,-0.41,1.32,1.44
15.121323823928833,-0.38,-0.41,1.17,1.29
15.122513055801392,-0.3,-0.36,1.0,1.1
15.123178005218506,-0.25,-0.44,0.86,0.99
15.123785972595215,-0.18,-0.49,0.86,1.0
15.126971006393433,-0.14,-0.54,0.95,1.1
15.137032985687256,-0.19,-0.61,1.09,1.26
15.217227935791016,-0.27,-0.7,1.32,1.51
15.217910051345825,-0.3,-0.68,1.41,1.59
15.218592882156372,-0.42,-0.51,1.39,1.53
15.219275951385498,-0.51,-0.23,1.38,1.48
15.219951868057251,-0.62,0.03,1.25,1.39
15.220623016357422,-0.64,0.22,1.07,1.26
15.221287965774536,-0.67,0.35,0.95,1.21
15.222419023513794,-0.68,0.47,0.91,1.22
15.22701382637024,-0.69,0.63,1.0,1.36
15.236907958984375,-0.72,0.72,1.09,1.49
15.31888198852539,-0.78,0.78,1.04,1.51
15.319589853286743,-0.89,0.86,0.9,1.53
15.320241928100586,-0.99,0.94,0.72,1.54
15.3208909034729,-1.0,1.23,0.66,1.71
15.321537017822266,-0.95,1.79,0.93,2.22
15.322736024856567,-0.77,2.18,1.2,2.6
15.323405981063843,-0.41,2.38,1.54,2.86
15.324054956436157,0.06,2.31,1.64,2.83
15.326949834823608,0.39,2.12,1.31,2.52
15.336971998214722,0.61,1.82,1.16,2.24
15.417125940322876,0.69,1.82,0.94,2.16
15.417793989181519,0.55,1.74,0.69,1.95
15.418445825576782,0.35,1.66,0.42,1.74
15.41910195350647,-0.03,1.45,0.03,1.45
15.41976809501648,-0.29,0.88,-0.42,1.01
15.420424938201904,-0.48,0.25,-0.98,1.11
15.421019792556763,-0.48,-0.18,-1.48,1.56
15.421674013137817,-0.3,-0.67,-1.73,1.87
15.427066087722778,-0.1,-1.15,-1.4,1.81
15.437007904052734,0.16,-1.37,-0.8,1.59
15.519238948822021,0.4,-1.43,-0.22,1.5
15.519966840744019,0.74,-1.5,0.08,1.67
15.52068305015564,1.03,-1.52,0.13,1.84
15.521412134170532,1.2,-1.41,0.16,1.85
15.52213978767395,1.31,-1.21,0.18,1.79
15.52330493927002,1.31,-0.91,0.16,1.6
15.524021863937378,1.25,-0.63,0.08,1.4
15.524739980697632,1.1,-0.37,-0.11,1.16
15.527095079421997,0.93,-0.18,-0.46,1.05
15.537049055099487,0.7,0.09,-0.71,1.0
15.618521928787231,0.47,0.28,-0.82,0.98
15.619195938110352,0.26,0.23,-0.78,0.85
15.619854927062988,0.11,0.05,-0.6,0.61
15.62051510810852,-0.02,-0.24,-0.41,0.47
15.621177911758423,0.07,-0.63,-0.11,0.64
15.621833086013794,0.12,-0.98,0.32,1.03
15.623004913330078,0.18,-1.3,0.75,1.51
15.623686075210571,0.22,-1.55,1.08,1.9
15.627100944519043,0.28,-1.84,1.27,2.25
15.637051820755005,0.4,-2.09,1.21,2.44
15.720432043075562,0.5,-2.23,1.12,2.54
15.72110390663147,0.49,-2.42,1.11,2.7
15.721710920333862,0.49,-2.53,1.07,2.79
15.722302913665771,0.45,-2.53,0.79,2.68
15.72350001335144,0.46,-2.36,0.48,2.45
15.724174976348877,0.39,-2.06,0.45,2.14
15.72484278678894,0.28,-1.66,0.79,1.85
15.725492000579834,0.12,-1.33,1.29,1.85
15.727131128311157,0.06,-1.11,1.64,1.98
15.737042903900146,0.07,-0.78,1.73,1.89
15.818174123764038,0.18,-0.44,1.51,1.58
15.81884503364563,0.42,-0.14,1.18,1.26
15.819504976272583,0.59,0.1,0.85,1.03
15.820150136947632,0.64,0.26,0.45,0.82
15.820800065994263,0.72,0.55,0.01,0.9
15.821449041366577,0.76,0.92,-0.22,1.21
15.822098016738892,0.69,1.25,-0.01,1.42
15.822748899459839,0.62,1.48,0.57,1.7
15.82714581489563,0.55,1.67,1.33,2.2
15.83715295791626,0.5,1.86,1.9,2.7
15.920623064041138,0.44,1.78,2.14,2.81
15.921304941177368,0.25,1.8,2.26,2.9
15.921978950500488,0.27,1.71,1.87,2.54
15.922645807266235,0.37,1.78,1.23,2.19
15.923841953277588,0.39,2.21,0.91,2.42
15.92451786994934,0.31,2.83,0.87,2.97
15.925179958343506,0.11,3.22,0.91,3.34
15.925845861434937,-0.15,3.36,1.14,3.55
15.927193880081177,-0.34,3.5,1.54,3.83
15.937115907669067,-0.57,3.46,1.75,3.91
16.019591093063354,-0.87,2.93,1.87,3.58
16.0202579498291,-1.12,2.0,1.6,2.79
16.02091693878174,-1.17,0.97,0.93,1.78
16.02157497406006,-1.06,0.4,-0.33,1.18
16.022236108779907,-0.83,0.18,-1.62,1.82
16.022886037826538,-0.61,-0.09,-2.09,2.17
16.02408003807068,-0.51,-0.42,-1.79,1.9
16.024763822555542,-0.56,-0.81,-1.38,1.69
16.025798082351685,-0.65,-1.18,-0.96,1.65
16.035913944244385,-0.87,-1.63,-0.6,1.94
16.122273921966553,-1.08,-1.86,-0.26,2.16
16.122960805892944,-1.24,-1.9,0.06,2.26
16.124151945114136,-1.37,-1.82,0.29,2.29
16.12483811378479,-1.41,-1.66,0.47,2.22
16.12555694580078,-1.43,-1.47,0.48,2.1
16.126158952713013,-1.43,-1.29,0.26,1.94
16.12683081626892,-1.37,-1.06,-0.19,1.74
16.127497911453247,-1.17,-0.79,-0.87,1.65
16.12814998626709,-0.87,-0.51,-1.52,1.82
16.135937929153442,-0.6,-0.39,-2.04,2.16
16.222162008285522,-0.34,-0.58,-2.24,2.33
16.222856998443604,-0.04,-0.93,-2.05,2.25
16.224014043807983,0.15,-1.2,-1.55,1.96
16.22472310066223,0.31,-1.41,-0.81,1.65
16.22539210319519,0.44,-1.7,-0.08,1.75
16.22606587409973,0.49,-1.86,0.66,2.03
16.22674298286438,0.44,-1.98,1.21,2.36
16.227423906326294,0.38,-2.08,1.47,2.57
16.228014945983887,0.31,-2.08,1.38,2.51
16.23596501350403,0.28,-1.87,1.04,2.15
16.321128129959106,0.23,-1.62,0.89,1.86
16.321850061416626,0.08,-1.44,0.96,1.73
16.322550058364868,-0.04,-1.25,0.93,1.55
16.32322597503662,0.01,-0.87,0.85,1.21
16.324384927749634,-0.14,-0.65,0.96,1.16
16.32502293586731,-0.21,-0.56,0.96,1.13
16.325698137283325,-0.17,-0.44,0.71,0.85
16.326376914978027,-0.15,-0.45,0.33,0.57
16.327044010162354,-0.09,-0.54,-0.15,0.56
16.335911989212036,-0.01,-0.6,-0.73,0.94
16.422850847244263,0.02,-0.61,-1.0,1.17
16.423578023910522,-0.04,-0.5,-0.7,0.86
16.42472791671753,-0.15,-0.19,0.04,0.24
16.425410985946655,-0.53,0.68,1.45,1.68
16.42609190940857,-0.72,1.03,1.89,2.26
16.426751852035522,-0.91,1.2,2.22,2.68
16.427417993545532,-1.02,1.39,2.31,2.88
16.428066968917847,-0.92,1.75,1.96,2.78
16.4317889213562,-0.68,2.17,1.41,2.67
16.439987897872925,-0.24,2.93,1.18,3.16
16.524224042892456,-0.02,3.75,1.29,3.96
16.524955987930298,0.42,4.07,1.66,4.41
16.525659799575806,0.69,4.41,2.49,5.11
16.52631688117981,0.74,4.67,3.01,5.6
16.52697205543518,0.67,4.41,2.48,5.1
16.527615785598755,0.46,3.69,1.42,3.98
16.528268098831177,0.43,2.63,-0.02,2.66
16.528942823410034,0.51,1.81,-1.09,2.17
16.531827926635742,0.71,1.04,-2.4,2.71
16.539992094039917,0.86,0.24,-3.18,3.3
16.624913930892944,0.74,-0.48,-3.1,3.22
16.625566959381104,0.74,-1.14,-2.28,2.65
16.626230001449585,0.84,-1.78,-1.19,2.3
16.6268949508667,1.09,-2.28,-0.58,2.59
16.62755298614502,1.29,-2.45,-0.47,2.8
16.628206968307495,1.37,-2.39,-0.62,2.82
16.628884077072144,1.32,-2.19,-0.74,2.66
16.629556894302368,1.07,-1.84,-0.73,2.25
16.63233995437622,0.74,-1.54,-0.7,1.84
16.639885902404785,0.32,-1.33,-0.75,1.56
16.72259783744812,-0.18,-1.19,-0.9,1.5
16.723269939422607,-0.56,-1.04,-0.96,1.52
16.72393012046814,-0.76,-1.05,-0.91,1.58
16.725094079971313,-0.78,-1.31,-0.92,1.78
16.725790977478027,-0.74,-1.59,-1.03,2.03
16.726447820663452,-0.64,-1.84,-0.91,2.15
16.727131128311157,-0.54,-2.06,-0.45,2.17
16.72779393196106,-0.4,-2.12,0.17,2.16
16.73181390762329,-0.24,-2.17,0.44,2.22
16.74003291130066,-0.04,-2.09,0.27,2.1
16.821908950805664,0.11,-2.03,0.09,2.03
16.82258892059326,0.16,-2.17,-0.07,2.17
16.82325291633606,0.23,-2.14,-0.11,2.15
16.823909044265747,0.22,-2.02,0.06,2.03
16.824559926986694,0.19,-1.95,0.47,2.01
16.825801134109497,0.12,-1.78,0.81,1.95
16.826462984085083,0.05,-1.59,1.17,1.97
16.827144861221313,0.02,-1.32,1.3,1.85
16.83176898956299,-0.05,-1.04,1.05,1.47
16.84009099006653,0.0,-0.76,0.63,0.98
16.922677993774414,0.04,-0.34,0.2,0.39
16.923337936401367,0.15,0.18,0.01,0.23
16.92399001121521,0.26,0.76,0.15,0.81
16.924638032913208,0.29,1.32,0.65,1.49
16.925841093063354,0.3,1.79,1.22,2.18
16.926512956619263,0.37,2.22,1.65,2.79
16.92718005180359,0.38,2.33,1.97,3.07
16.927837133407593,0.11,2.53,2.03,3.24
16.93176007270813,0.11,2.9,1.6,3.31
16.94009804725647,0.22,3.08,0.99,3.24
17.02369499206543,0.22,3.62,0.96,3.75
17.024374961853027,-0.03,4.38,1.54,4.64
17.025523900985718,-0.45,4.7,2.14,5.18
17.026219129562378,-0.79,5.02,2.69,5.74
17.02690291404724,-1.13,5.36,3.13,6.3
17.02756690979004,-1.39,4.97,2.94,5.93
17.028230905532837,-1.53,3.92,1.93,4.62
17.02889394760132,-1.55,2.6,0.2,3.03
17.031697988510132,-1.26,1.27,-1.67,2.44
17.040125131607056,-0.86,0.3,-3.05,3.18
17.123641967773438,-0.47,-0.58,-3.27,3.35
17.124315977096558,-0.19,-1.44,-2.65,3.02
17.124974966049194,-0.05,-1.99,-1.76,2.65
17.126195907592773,-0.06,-2.16,-1.17,2.45
17.12686800956726,-0.08,-2.0,-0.88,2.18
17.127543926239014,-0.29,-1.73,-0.59,1.85
17.12820792198181,-0.48,-1.51,-0.29,1.61
17.128870010375977,-0.7,-1.26,-0.01,1.44
17.13171696662903,-0.93,-1.14,0.1,1.47
17.140104055404663,-1.14,-0.92,-0.15,1.47
17.22377610206604,-1.1,-0.67,-0.79,1.51
17.22445511817932,-0.91,-0.48,-1.66,1.95
17.22512197494507,-0.66,-0.49,-2.11,2.26
17.226295948028564,-0.42,-0.64,-2.24,2.36
17.226958990097046,-0.15,-0.89,-2.15,2.33
17.22764492034912,0.17,-1.2,-1.87,2.22
17.22830891609192,0.43,-1.57,-1.57,2.26
17.22897982597351,0.59,-1.97,-1.35,2.45
17.23172092437744,0.65,-2.31,-1.14,2.65
17.240150928497314,0.65,-2.49,-0.83,2.7
17.327219009399414,0.55,-2.65,-0.61,2.77
17.32791495323181,0.44,-2.89,-0.51,2.96
17.32859778404236,0.3,-3.03,-0.26,3.05
17.329309940338135,0.06,-3.08,0.23,3.08
17.3299720287323,-0.21,-3.05,0.63,3.12
17.330620050430298,-0.41,-2.94,0.87,3.09
17.3312771320343,-0.55,-2.61,1.07,2.87
17.33193278312683,-0.63,-2.19,1.26,2.6
17.334643125534058,-0.56,-1.65,1.28,2.16
17.340226888656616,-0.43,-1.11,1.1,1.62
17.42461609840393,-0.25,-0.72,0.78,1.09
17.425292015075684,-0.16,-0.49,0.54,0.74
17.42646813392639,-0.09,-0.29,0.49,0.57
17.42713189125061,-0.05,0.07,0.44,0.44
17.427799940109253,-0.18,0.77,0.64,1.01
17.4284770488739,-0.28,1.37,0.71,1.56
17.429162979125977,-0.4,1.82,0.8,2.02
17.429842948913574,-0.49,2.42,0.93,2.63
17.432607889175415,-0.55,2.91,0.65,3.03
17.44019389152527,-0.56,3.05,0.24,3.11
17.528000116348267,-0.5,3.19,-0.24,3.23
17.528695821762085,-0.28,3.54,-0.01,3.55
17.52941107749939,-0.21,4.27,1.26,4.45
17.53009009361267,-0.18,4.42,2.64,5.15
17.53076195716858,0.13,4.26,3.29,5.38
17.531435012817383,0.45,4.55,3.36,5.67
17.53210186958313,0.5,4.61,2.79,5.41
17.532774925231934,0.48,4.1,1.85,4.52
17.53545594215393,0.4,3.42,0.63,3.5
17.540172815322876,0.35,2.95,-0.44,3.0
17.625555992126465,0.49,2.29,-1.25,2.65
17.62672209739685,0.69,1.1,-1.47,1.96
17.627407789230347,0.84,0.07,-1.19,1.45
17.628087997436523,0.93,-0.64,-0.84,1.4
17.62876009941101,1.06,-1.17,-0.77,1.75
17.62945580482483,1.19,-1.47,-0.87,2.08
17.6301109790802,1.26,-1.61,-0.86,2.21
17.63076090812683,1.29,-1.67,-0.95,2.31
17.633466958999634,1.36,-1.63,-1.23,2.45
17.640281915664673,1.44,-1.38,-1.68,2.6
17.725982904434204,1.33,-1.34,-1.94,2.7
17.72721290588379,0.93,-1.31,-1.93,2.51
17.72788405418396,0.41,-1.14,-1.74,2.12
17.728492975234985,-0.05,-1.14,-1.6,1.96
17.7291738986969,-0.53,-1.31,-1.48,2.04
17.729861974716187,-0.84,-1.57,-1.4,2.26
17.730522871017456,-0.91,-2.0,-1.27,2.53
17.73117995262146,-0.8,-2.47,-1.13,2.83
17.733937978744507,-0.73,-2.91,-1.0,3.16
17.740216970443726,-0.4,-3.29,-0.95,3.44
17.829973936080933,-0.22,-3.31,-0.64,3.37
17.83064293861389,0.02,-3.29,-0.32,3.3
17.831315994262695,0.31,-3.17,-0.17,3.18
17.83197283744812,0.49,-2.97,-0.1,3.01
17.832627058029175,0.53,-2.98,-0.14,3.03
17.833282947540283,0.54,-3.07,-0.26,3.12
17.833935976028442,0.55,-2.77,0.02,2.82
17.83459496498108,0.41,-2.35,0.67,2.47
17.83730387687683,0.29,-1.96,1.46,2.46
17.840264081954956,0.26,-1.44,2.13,2.58
17.927109956741333,0.21,-0.91,2.39,2.56
17.92778491973877,0.23,-0.49,2.18,2.24
17.928446054458618,0.24,-0.12,1.49,1.51
17.929124116897583,0.39,0.3,0.63,0.79
17.929771900177002,0.51,0.86,0.0,0.99
17.930444955825806,0.66,1.45,-0.3,1.62
17.931101083755493,0.82,2.06,-0.18,2.22
17.931751012802124,0.83,2.69,0.41,2.84
17.934489011764526,0.71,3.05,0.93,3.26
17.940197944641113,0.44,3.0,1.13,3.23
18.03059196472168,0.2,2.86,0.92,3.01
18.03126096725464,0.14,2.69,0.36,2.71
18.031913995742798,0.22,2.47,0.14,2.48
18.032562017440796,0.14,2.79,0.92,2.94
18.033222913742065,-0.11,3.31,1.97,3.85
18.033926010131836,-0.55,3.54,2.8,4.54
18.03460192680359,-0.91,3.96,3.55,5.39
18.035274982452393,-1.34,4.23,3.74,5.8
18.038079023361206,-1.51,3.81,2.98,5.06
18.04030680656433,-1.54,3.02,1.13,3.57
18.12801194190979,-1.28,2.45,-1.22,3.02
18.12869095802307,-0.88,2.42,-2.97,3.93
18.129382848739624,-0.57,2.43,-3.78,4.52
18.130064964294434,-0.56,1.84,-3.57,4.05
18.13071894645691,-0.85,0.68,-2.59,2.8
18.13137698173523,-1.18,0.03,-1.7,2.06
18.132030963897705,-1.31,-0.2,-1.15,1.75
18.132683992385864,-1.42,-0.38,-0.56,1.57
18.135446786880493,-1.54,-0.7,-0.16,1.69
18.140317916870117,-1.57,-0.97,-0.13,1.85
18.231584787368774,-1.46,-1.06,-0.37,1.84
18.23232102394104,-1.27,-0.95,-0.7,1.73
18.23301911354065,-0.92,-0.89,-1.17,1.73
18.233750104904175,-0.49,-1.02,-1.64,1.99
18.23443102836609,-0.04,-1.24,-2.04,2.38
18.235109090805054,0.4,-1.5,-2.21,2.7
18.235780954360962,0.75,-1.85,-2.08,2.88
18.236468076705933,1.02,-2.27,-1.78,3.05
18.239224910736084,1.12,-2.6,-1.41,3.16
18.240411043167114,1.2,-2.99,-1.16,3.42
18.329015016555786,1.13,-3.34,-0.91,3.64
18.329735040664673,0.95,-3.62,-0.74,3.81
18.330405950546265,0.73,-3.86,-0.7,3.99
18.331063985824585,0.45,-3.98,-0.62,4.05
18.331718921661377,0.24,-3.92,-0.42,3.94
18.33238196372986,0.02,-3.75,-0.05,3.75
18.333035945892334,-0.12,-3.4,0.43,3.42
18.333690881729126,-0.26,-2.86,0.88,3.0
18.3364360332489,-0.28,-2.3,1.14,2.58
18.340399980545044,-0.35,-1.89,1.18,2.25
18.43304991722107,-0.4,-1.48,0.99,1.82
18.43372893333435,-0.43,-1.12,0.65,1.36
18.43441081047058,-0.29,-0.93,0.13,0.98
18.43506407737732,-0.16,-0.52,-0.44,0.69
18.435724020004272,0.01,0.17,-0.84,0.85
18.43637490272522,0.08,0.93,-0.71,1.17
18.437025785446167,0.07,1.75,-0.13,1.75
18.437670946121216,-0.14,2.42,0.41,2.45
18.440387964248657,-0.35,2.74,0.84,2.88
18.44104504585266,-0.51,2.92,1.01,3.13
18.535375833511353,-0.5,2.85,1.04,3.07
18.53610897064209,-0.43,2.75,1.03,2.96
18.5368230342865,-0.28,2.72,1.0,2.91
18.53752899169922,-0.1,3.12,1.73,3.56
18.53824210166931,-0.02,3.74,2.57,4.53
18.53894591331482,0.25,4.02,3.14,5.1
18.53965401649475,0.59,4.55,3.54,5.79
18.54031991958618,0.74,5.18,3.64,6.37
18.543092012405396,0.81,5.19,3.2,6.15
18.636533975601196,0.77,4.72,2.22,5.27
18.637314081192017,0.86,3.89,0.57,4.02
18.63804292678833,1.1,3.09,-1.23,3.5
18.63875412940979,1.31,2.12,-2.48,3.51
18.639477014541626,1.28,0.89,-2.75,3.16
18.6401469707489,1.19,-0.2,-2.11,2.43
18.64079999923706,1.01,-0.96,-1.19,1.83
18.641458988189697,1.08,-1.42,-0.64,1.89
18.64210796356201,1.15,-1.56,-0.38,1.97
18.738147974014282,1.14,-1.66,-0.18,2.02
18.738818883895874,1.08,-1.78,-0.09,2.08
18.739497900009155,1.02,-1.76,-0.34,2.06
18.740201950073242,0.9,-1.7,-1.0,2.16
18.740883111953735,0.69,-1.56,-1.64,2.36
18.741565942764282,0.34,-1.23,-1.93,2.31
18.742242097854614,-0.09,-1.0,-2.0,2.23
18.74292492866516,-0.51,-1.11,-1.92,2.27
18.743605852127075,-0.74,-1.27,-1.72,2.26
18.744847059249878,-0.87,-1.59,-1.55,2.38
18.747668027877808,-0.81,-2.07,-1.33,2.59
18.748366117477417,-0.67,-2.72,-1.25,3.06
18.75053596496582,-0.68,-2.92,-1.02,3.16
18.760541915893555,-0.29,-3.11,-0.86,3.23
18.849218130111694,-0.16,-3.1,-0.65,3.17
18.84993004798889,0.15,-2.76,-0.5,2.8
18.8505859375,0.37,-2.7,-0.38,2.75
18.851244926452637,0.51,-2.78,-0.29,2.84
18.851896047592163,0.49,-3.12,-0.25,3.16
18.852548837661743,0.55,-3.01,-0.13,3.06
18.855302095413208,0.59,-2.57,0.2,2.64
18.855954885482788,0.57,-2.13,0.73,2.32
18.85660195350647,0.4,-1.7,1.33,2.19
18.860520124435425,0.22,-1.17,1.93,2.26
18.954787969589233,0.13,-0.72,2.24,2.35
18.95551085472107,0.04,-0.33,2.1,2.12
18.95622491836548,0.07,0.04,1.5,1.5
18.956934928894043,0.14,0.34,0.55,0.66
18.95764994621277,0.23,0.8,-0.27,0.87
18.958354949951172,0.34,1.4,-0.53,1.53
18.961068868637085,0.38,1.99,-0.06,2.02
19.056813955307007,0.42,2.39,0.59,2.49
19.057474851608276,0.31,2.53,1.08,2.76
19.058125972747803,0.21,2.6,1.12,2.83
19.058793783187866,0.09,2.66,0.71,2.75
19.059449911117554,-0.02,2.6,0.23,2.61
19.06005597114563,-0.02,2.85,0.31,2.86
19.060706853866577,-0.09,3.51,1.3,3.74
19.061361074447632,-0.42,3.81,2.53,4.59
19.062576055526733,-0.69,4.08,3.57,5.46
19.065490007400513,-0.92,4.58,4.23,6.3
19.066209077835083,-1.15,4.55,4.19,6.29
19.06692099571228,-1.36,4.03,3.18,5.31
19.067631006240845,-1.38,3.19,0.87,3.58
19.07056212425232,-1.06,2.61,-1.84,3.36
19.16858983039856,-0.47,2.35,-3.83,4.51
19.169265031814575,-0.06,1.87,-4.72,5.07
19.169957876205444,-0.08,0.89,-4.05,4.14
19.170609951019287,-0.35,-0.08,-2.42,2.44
19.171273946762085,-0.62,-0.49,-1.3,1.52
19.174022912979126,-0.82,-0.89,-0.96,1.54
19.174685955047607,-0.94,-1.24,-0.72,1.71
19.17534899711609,-1.21,-1.29,-0.49,1.83
19.17600393295288,-1.23,-1.4,-0.6,1.95
19.17665982246399,-1.18,-1.44,-0.77,2.01
19.26986289024353,-1.01,-1.22,-0.94,1.84
19.270540952682495,-0.78,-1.11,-1.32,1.89
19.271209001541138,-0.5,-1.12,-1.7,2.09
19.271872997283936,-0.14,-1.16,-2.02,2.33
19.27253293991089,0.24,-1.2,-2.25,2.56
19.27528405189514,0.64,-1.36,-2.18,2.64
19.275937795639038,0.91,-1.63,-1.76,2.56
19.27659010887146,1.1,-1.94,-1.18,2.52
19.277244806289673,1.19,-2.25,-0.74,2.65
19.27789807319641,1.17,-2.58,-0.47,2.87
19.370671033859253,0.99,-2.9,-0.39,3.08
19.371372938156128,0.71,-3.23,-0.38,3.32
19.372034788131714,0.34,-3.57,-0.27,3.59
19.372691869735718,0.04,-3.78,-0.18,3.78
19.37335181236267,-0.13,-3.79,-0.11,3.79
19.37610697746277,-0.28,-3.67,0.21,3.68
19.37676501274109,-0.46,-3.34,0.86,3.47
19.377426862716675,-0.59,-2.87,1.44,3.26
19.378086805343628,-0.65,-2.37,1.74,3.01
19.471151113510132,-0.68,-1.84,1.76,2.63
19.4719398021698,-0.71,-1.34,1.47,2.11
19.472613096237183,-0.65,-0.71,1.03,1.4
19.473275899887085,-0.54,-0.33,0.39,0.74
19.47394299507141,-0.58,0.12,0.06,0.59
19.47460103034973,-0.59,1.04,-0.35,1.24
19.47729802131653,-0.51,1.6,-0.43,1.73
19.477958917617798,-0.52,1.98,-0.15,2.05
19.47861886024475,-0.57,2.42,0.19,2.49
19.572075128555298,-0.57,2.79,0.4,2.87
19.572751998901367,-0.55,3.0,0.35,3.07
19.573410987854004,-0.51,2.99,0.2,3.03
19.574064016342163,-0.39,2.83,0.1,2.85
19.574718952178955,-0.17,2.89,0.37,2.91
19.57536792755127,0.04,3.53,1.22,3.73
19.576010942459106,0.08,3.99,2.1,4.5
19.672854900360107,0.24,4.26,2.66,5.02
19.673589944839478,0.29,4.66,2.88,5.48
19.67423987388611,0.23,4.93,2.78,5.66
19.67489194869995,0.22,4.74,2.28,5.26
19.67553400993347,0.24,4.16,1.41,4.39
19.676183938980103,0.48,3.5,0.34,3.54
19.67683482170105,0.95,2.89,-0.78,3.14
19.677488088607788,1.43,1.95,-1.74,2.97
19.678137063980103,1.7,0.92,-2.09,2.84
19.678793907165527,1.75,0.13,-1.76,2.48
19.68200993537903,1.75,-0.4,-1.32,2.22
19.68269181251526,1.82,-0.79,-1.12,2.27
19.683371782302856,1.9,-1.08,-1.05,2.42
19.68402886390686,1.89,-1.34,-1.2,2.6
19.684688806533813,1.8,-1.59,-1.37,2.76
19.6853449344635,1.6,-1.58,-1.44,2.67
19.690773963928223,1.35,-1.57,-1.49,2.55
19.79712200164795,1.01,-1.56,-1.55,2.41
19.797849893569946,0.54,-1.62,-1.72,2.42
19.7985680103302,0.16,-1.64,-2.02,2.6
19.801544904708862,-0.28,-1.61,-2.31,2.82
19.802275896072388,-0.84,-1.83,-2.11,2.91
19.802993059158325,-1.09,-2.04,-1.6,2.81
19.803713083267212,-1.17,-2.31,-1.24,2.87
19.80443787574768,-0.95,-2.47,-0.96,2.81
19.80513095855713,-0.71,-2.53,-0.76,2.73
19.805812120437622,-0.44,-2.69,-0.51,2.77
19.806487798690796,-0.12,-2.86,-0.36,2.88
19.81072688102722,0.24,-2.91,-0.27,2.93
19.90846300125122,0.39,-2.94,-0.21,2.97
19.911228895187378,0.52,-3.04,-0.13,3.08
19.91189694404602,0.57,-3.08,-0.05,3.13
20.009055852890015,0.54,-2.85,0.25,2.91
20.00982403755188,0.49,-2.44,0.74,2.59
20.010513067245483,0.38,-2.09,1.13,2.4
20.011207818984985,0.27,-1.76,1.41,2.27
20.01190209388733,0.23,-1.36,1.42,1.97
20.012589931488037,0.28,-0.91,1.22,1.54
20.013821840286255,0.2,-0.49,0.94,1.07
20.014492988586426,0.23,0.05,0.52,0.57
20.017256021499634,0.33,0.63,0.06,0.71
20.01791501045227,0.47,1.15,-0.11,1.24
20.018579959869385,0.64,1.68,-0.02,1.79
20.019230127334595,0.73,2.16,0.27,2.29
20.019871950149536,0.72,2.48,0.6,2.65
20.02051281929016,0.6,2.61,0.73,2.77
20.021080017089844,0.62,2.61,0.72,2.77
20.021722078323364,0.52,2.46,0.42,2.54
20.022361040115356,0.47,2.35,0.0,2.39
20.02301287651062,0.44,2.23,-0.32,2.29
20.02683401107788,0.45,2.36,-0.1,2.4
20.13454294204712,0.27,2.96,0.92,3.11
20.135266065597534,-0.1,3.51,1.92,4.0
20.135990858078003,-0.36,3.87,2.78,4.77
20.136718034744263,-0.69,4.43,3.33,5.58
20.137428998947144,-0.93,4.63,3.36,5.79
20.13814091682434,-1.28,3.98,2.56,4.9
20.138835906982422,-1.3,3.08,0.71,3.41
20.139492988586426,-0.86,2.61,-1.51,3.13
20.140154123306274,-0.31,2.46,-2.92,3.83
20.140805959701538,0.03,2.13,-3.36,3.97
20.143386125564575,-0.1,1.39,-3.29,3.57
20.25243878364563,-0.38,0.45,-2.64,2.7
20.253108978271484,-0.76,-0.1,-1.69,1.85
20.253812074661255,-1.0,-0.28,-1.28,1.64
20.25452494621277,-1.1,-0.44,-1.04,1.57
20.255236864089966,-1.27,-0.59,-0.66,1.54
20.255918979644775,-1.34,-0.66,-0.38,1.54
20.256643056869507,-1.33,-0.68,-0.49,1.57
20.2573459148407,-1.18,-0.58,-0.74,1.5
20.258057832717896,-0.98,-0.45,-1.07,1.51
20.26100492477417,-0.62,-0.5,-1.47,1.67
20.261722803115845,-0.2,-0.49,-2.11,2.17
20.26243495941162,0.23,-0.56,-2.52,2.59
20.371442079544067,0.54,-0.76,-2.54,2.7
20.37223982810974,0.97,-1.08,-2.24,2.66
20.37306499481201,1.2,-1.31,-1.82,2.54
20.3738009929657,1.33,-1.67,-1.36,2.53
20.374452829360962,1.34,-2.08,-1.04,2.68
20.375098943710327,1.14,-2.54,-0.88,2.91
20.375765085220337,0.86,-2.93,-0.72,3.13
20.378533124923706,0.6,-3.09,-0.68,3.22
20.37912106513977,0.34,-3.13,-0.68,3.22
20.37977695465088,0.16,-3.22,-0.69,3.29
20.38042712211609,-0.01,-3.18,-0.54,3.22
20.38107180595398,-0.14,-3.05,-0.09,3.05
20.49049687385559,-0.28,-2.88,0.36,2.91
20.491169929504395,-0.36,-2.65,0.6,2.74
20.491833925247192,-0.39,-2.32,0.74,2.46
20.492487907409668,-0.4,-1.86,0.78,2.05
20.493083000183105,-0.4,-1.44,0.72,1.65
20.49574303627014,-0.36,-1.07,0.51,1.23
20.496412992477417,-0.31,-0.59,0.25,0.71
20.597800970077515,-0.27,0.0,0.15,0.3
20.59844398498535,-0.28,0.47,0.15,0.56
20.59913992881775,-0.31,0.91,0.13,0.97
20.599802017211914,-0.35,1.37,0.08,1.41
20.60042405128479,-0.35,1.76,0.02,1.79
20.601083040237427,-0.41,2.07,-0.14,2.11
20.601754903793335,-0.58,2.26,-0.18,2.34
20.60240912437439,-0.59,2.41,-0.29,2.49
20.6050808429718,-0.53,2.15,-0.28,2.23
20.605740785598755,-0.46,2.01,0.07,2.06
20.606395959854126,-0.29,2.43,0.77,2.56
20.60704779624939,-0.23,2.94,1.67,3.38
20.607715845108032,0.0,3.08,2.29,3.83
20.60836696624756,0.22,3.38,2.53,4.22
20.60901188850403,0.4,3.82,2.46,4.56
20.609654903411865,0.49,4.01,2.09,4.54
20.722543954849243,0.65,3.84,1.57,4.19
20.723231077194214,0.64,3.56,0.93,3.73
20.725950956344604,0.71,2.8,-0.04,2.88
20.72664499282837,0.89,1.9,-1.02,2.33
20.727324962615967,1.2,1.23,-1.67,2.39
20.72798490524292,1.57,0.74,-1.86,2.54
20.72863793373108,1.91,0.33,-1.62,2.52
20.72929883003235,2.21,-0.01,-1.11,2.47
20.729949951171875,2.67,-0.37,-0.76,2.8
20.832791090011597,2.92,-0.71,-0.81,3.11
20.833988904953003,3.22,-0.95,-1.09,3.52
20.834666967391968,3.38,-0.74,-1.37,3.72
20.837317943572998,3.38,-0.38,-1.5,3.71
20.837981939315796,3.09,-0.04,-1.53,3.44
20.838648080825806,2.75,0.17,-1.82,3.3
20.839277982711792,2.11,0.33,-2.52,3.3
20.83992886543274,1.52,0.38,-2.96,3.34
20.840576887130737,0.8,-0.06,-3.22,3.31
20.841226816177368,0.03,-0.95,-3.19,3.32
20.84187912940979,-0.53,-1.81,-2.58,3.19
20.84252905845642,-0.92,-2.29,-1.57,2.92
20.843190908432007,-0.91,-2.59,-0.69,2.83
20.845773935317993,-0.51,-2.72,-0.17,2.77
20.951303005218506,-0.06,-2.75,0.18,2.75
20.951973915100098,0.41,-2.76,0.27,2.8
20.952631950378418,0.86,-2.68,0.13,2.81
20.953263998031616,1.26,-2.51,-0.19,2.81
20.95392394065857,1.54,-2.07,-0.47,2.62
20.95457911491394,1.7,-1.51,-0.36,2.3
20.955230951309204,1.73,-0.96,0.01,1.97
20.955891847610474,1.66,-0.69,0.39,1.83
20.956542015075684,1.58,-0.5,0.54,1.74
20.959306955337524,1.41,-0.11,0.37,1.46
20.95995593070984,1.32,0.34,-0.11,1.36
20.960606813430786,1.31,0.54,-0.87,1.66
21.06850504875183,1.27,0.75,-1.68,2.23
21.06917405128479,1.3,1.01,-2.18,2.73
21.06983494758606,1.32,1.16,-2.28,2.87
21.070483922958374,1.28,1.1,-2.16,2.74
21.07113480567932,1.27,1.03,-1.77,2.4
21.071783781051636,1.21,0.91,-1.25,1.96
21.072430849075317,1.19,0.77,-0.89,1.67
21.075159788131714,1.16,0.66,-0.56,1.44
21.075814962387085,1.24,0.52,-0.24,1.36
21.076457977294922,1.29,0.41,0.06,1.35
21.07710289955139,1.27,0.51,0.43,1.43
21.07835602760315,1.29,1.1,1.15,2.04
21.191802978515625,1.29,2.03,2.17,3.23
21.192478895187378,1.11,2.91,3.38,4.59
21.193135023117065,0.64,3.29,3.97,5.19
21.193799018859863,-0.07,2.95,3.17,4.33
21.194459915161133,-0.59,2.59,1.02,2.84
21.197165966033936,-0.66,2.52,-1.9,3.22
21.31001591682434,-0.29,2.15,-4.24,4.76
21.31089997291565,0.05,1.37,-5.29,5.46
21.31166100502014,0.07,0.57,-5.01,5.04
21.31232500076294,-0.36,-0.07,-3.13,3.15
21.31297993659973,-0.62,-0.28,-0.74,1.0
21.313632011413574,-0.67,-0.42,0.58,0.98
21.31429409980774,-0.52,-0.53,0.71,1.02
21.31548810005188,-0.15,-0.5,0.38,0.64
21.316177129745483,0.16,-0.37,0.12,0.42
21.318862915039062,0.76,-0.01,0.12,0.76
21.31955099105835,1.4,0.38,-0.33,1.48
21.32023000717163,2.02,0.69,-0.65,2.23
21.320899963378906,2.4,1.1,-0.68,2.72
21.321589946746826,2.72,1.17,-0.8,3.06
21.322264909744263,3.01,1.0,-1.19,3.38
21.32294201850891,3.22,0.84,-1.54,3.66
21.323621034622192,2.94,0.5,-1.64,3.4
21.324300050735474,2.55,0.04,-1.42,2.91
21.32846713066101,2.06,-0.33,-1.25,2.43
21.438076972961426,1.62,-0.59,-1.26,2.13
21.438751935958862,1.22,-0.7,-1.34,1.94
21.439412832260132,0.82,-0.85,-1.31,1.76
21.44007182121277,0.51,-1.01,-1.1,1.57
21.440727949142456,0.23,-1.12,-0.8,1.39
21.44138503074646,0.01,-1.1,-0.53,1.22
21.442039012908936,-0.05,-0.9,-0.26,0.93
21.442699909210205,0.05,-0.73,-0.11,0.73
21.443352937698364,0.24,-0.7,-0.17,0.75
21.444011926651,0.55,-0.63,-0.47,0.95
21.44662308692932,0.83,-0.56,-0.83,1.3
21.560409784317017,1.01,-0.42,-1.17,1.6
21.561278104782104,1.17,-0.15,-1.24,1.71
21.562065839767456,1.13,0.13,-1.04,1.54
21.562795877456665,1.02,0.27,-0.85,1.35
21.563451051712036,0.94,0.22,-0.76,1.22
21.56410002708435,0.78,0.16,-0.77,1.1
21.56474995613098,0.65,0.1,-0.83,1.05
21.56599497795105,0.58,0.07,-0.88,1.05
21.56666588783264,0.51,0.13,-0.98,1.11
21.569298028945923,0.45,0.2,-0.98,1.09
21.56996512413025,0.39,0.04,-0.97,1.04
21.57061791419983,0.23,-0.04,-0.81,0.84
21.571204900741577,0.23,0.03,-0.37,0.43
21.57844591140747,0.45,0.18,0.03,0.48
21.68620491027832,0.83,0.26,0.39,0.95
21.686854124069214,1.41,0.21,0.44,1.49
21.68749499320984,2.04,0.2,0.14,2.05
21.68817687034607,2.61,0.33,-0.17,2.63
21.688822031021118,3.02,0.56,-0.33,3.08
21.691498041152954,3.34,0.89,-0.3,3.46
21.692153930664062,3.44,1.23,-0.19,3.65
21.692737817764282,3.36,1.51,-0.19,3.68
21.69338297843933,3.2,1.46,0.17,3.52
21.69402003288269,2.86,1.37,0.34,3.18
21.69465708732605,2.41,1.15,0.13,2.67
21.698792934417725,1.93,1.07,-0.3,2.22
21.803663969039917,1.35,0.81,-0.78,1.75
21.80435585975647,0.62,0.36,-1.1,1.31
21.805044889450073,-0.07,-0.03,-0.78,0.78
21.807869911193848,-0.41,-0.39,-0.42,0.7
21.808533906936646,-0.52,-0.97,-0.13,1.1
21.80919599533081,-0.49,-1.09,0.26,1.22
21.80985713005066,-0.26,-1.06,0.42,1.16
21.81051278114319,-0.02,-1.1,0.5,1.2
21.811169862747192,0.11,-1.04,0.38,1.11
21.811821937561035,0.35,-0.78,0.11,0.86
21.812472105026245,0.62,-0.4,0.07,0.74
21.920406103134155,0.73,-0.1,0.14,0.74
21.92107892036438,0.81,0.13,0.23,0.85
21.923814058303833,0.8,0.4,0.24,0.92
21.924466848373413,0.61,0.44,0.32,0.81
21.92511010169983,0.4,0.34,0.58,0.78
21.92577600479126,0.12,0.17,1.01,1.03
21.92642378807068,-0.1,-0.03,1.41,1.41
21.927083015441895,-0.23,-0.23,1.71,1.74
21.927752017974854,-0.31,-0.45,1.95,2.02
21.928411960601807,-0.34,-0.71,1.96,2.11
21.929004907608032,-0.34,-0.89,1.71,1.95
21.92965292930603,-0.38,-0.88,1.3,1.61
22.03934407234192,-0.43,-0.77,1.13,1.43
22.039952993392944,-0.43,-0.67,1.22,1.45
22.04061794281006,-0.44,-0.57,1.33,1.51
22.04127812385559,-0.41,-0.45,1.34,1.47
22.04193091392517,-0.4,-0.42,1.3,1.42
22.042579889297485,-0.3,-0.41,1.33,1.42
22.043174982070923,-0.3,-0.45,1.38,1.48
22.043828010559082,-0.23,-0.58,1.46,1.58
22.04448390007019,-0.24,-0.69,1.57,1.73
22.04507613182068,-0.27,-0.69,1.64,1.79
22.047586917877197,-0.35,-0.68,1.65,1.81
22.04861807823181,-0.49,-0.72,1.65,1.86
22.160461902618408,-0.53,-0.69,1.78,1.98
22.161149978637695,-0.51,-0.64,2.01,2.17
22.161816835403442,-0.42,-0.59,2.2,2.31
22.16247797012329,-0.28,-0.45,2.36,2.41
22.163141012191772,-0.12,-0.35,2.53,2.55
22.163795948028564,0.04,-0.18,2.54,2.54
22.164458990097046,0.19,0.07,2.34,2.34
22.165165901184082,0.24,0.35,2.07,2.11
22.168612957000732,0.24,0.67,1.75,1.88
22.169341802597046,0.21,0.99,1.43,1.75
22.170010805130005,0.16,1.36,1.1,1.75
22.17067313194275,-0.01,1.63,0.92,1.87
22.178812980651855,-0.23,1.95,0.88,2.15
22.286102056503296,-0.55,2.26,0.92,2.5
22.286755800247192,-0.9,2.4,1.09,2.78
22.287405967712402,-1.26,2.37,1.16,2.92
22.288077116012573,-1.56,2.2,1.1,2.91
22.28873085975647,-1.65,2.02,0.99,2.78
22.29133105278015,-1.47,1.78,0.71,2.41
22.29198694229126,-1.15,1.57,0.3,1.96
22.292634963989258,-0.8,1.44,-0.09,1.64
22.293291807174683,-0.43,1.17,-0.56,1.36
22.293928861618042,-0.12,0.78,-1.11,1.36
22.294580936431885,0.13,0.46,-1.58,1.65
22.29879593849182,0.21,0.15,-1.72,1.73
22.40363597869873,0.03,-0.36,-1.37,1.41
22.404309034347534,-0.32,-0.87,-0.74,1.18
22.404972791671753,-0.71,-1.36,-0.04,1.53
22.407667875289917,-1.16,-1.9,0.69,2.33
22.408354997634888,-1.49,-2.26,1.21,2.96
22.409013986587524,-1.73,-2.36,1.35,3.22
22.409670114517212,-1.83,-2.24,1.33,3.18
22.410324811935425,-1.86,-2.06,1.23,3.03
22.410979986190796,-1.76,-1.69,1.14,2.69
22.411629915237427,-1.61,-1.16,1.02,2.23
22.412287950515747,-1.48,-0.82,0.86,1.89
22.521245002746582,-1.25,-0.5,0.63,1.48
22.521919012069702,-1.02,-0.23,0.33,1.09
22.524583101272583,-0.77,-0.09,0.08,0.77
22.525245904922485,-0.54,-0.17,-0.2,0.6
22.52587580680847,-0.33,-0.41,-0.3,0.6
22.526526927947998,-0.13,-0.69,-0.21,0.73
22.52718710899353,-0.05,-1.08,0.05,1.08
22.527841806411743,0.03,-1.45,0.45,1.51
22.52852201461792,0.01,-1.88,0.83,2.05
22.529173135757446,-0.08,-2.28,1.1,2.53
22.52981996536255,-0.24,-2.51,1.37,2.86
22.530476808547974,-0.45,-2.74,1.65,3.22
22.64577603340149,-0.62,-2.79,1.88,3.42
22.646416902542114,-0.71,-2.79,1.85,3.42
22.64713406562805,-0.78,-2.66,1.65,3.22
22.647876977920532,-0.79,-2.45,1.33,2.89
22.648608922958374,-0.72,-2.14,1.1,2.51
22.649319887161255,-0.62,-1.73,1.07,2.12
22.650027990341187,-0.52,-1.38,1.06,1.81
22.650741815567017,-0.38,-1.05,1.11,1.57
22.76353096961975,-0.21,-0.76,1.02,1.28
22.764266967773438,-0.25,-0.59,1.08,1.25
22.76717782020569,-0.12,-0.14,0.92,0.93
22.87963080406189,-0.16,0.12,0.94,0.96
22.880456924438477,-0.29,0.48,1.01,1.15
22.881244897842407,-0.37,0.96,1.18,1.56
22.882027864456177,-0.68,1.47,1.48,2.19
22.882758855819702,-1.03,2.01,2.05,3.05
22.883415937423706,-1.25,2.47,2.58,3.78
22.884071111679077,-1.14,2.95,2.79,4.21
22.88525700569153,-0.92,3.27,2.55,4.24
22.88594079017639,-0.55,3.44,2.23,4.13
22.888745069503784,-0.08,3.88,2.3,4.51
22.88949990272522,0.14,4.47,2.84,5.29
22.89020299911499,0.33,4.71,3.09,5.64
22.890901803970337,0.54,4.52,3.49,5.73
22.891599893569946,0.62,4.55,3.55,5.8
22.89230513572693,0.66,4.52,3.2,5.57
22.892966985702515,0.65,4.44,2.3,5.04
22.89360785484314,0.51,4.14,1.06,4.3
22.894269943237305,0.2,3.73,-0.05,3.73
22.894927978515625,-0.06,2.69,-1.44,3.05
22.89738893508911,0.01,1.41,-2.74,3.08
22.898096799850464,0.2,0.35,-3.26,3.28
22.898808002471924,0.38,-0.65,-2.84,2.93
22.89952301979065,0.49,-1.36,-1.37,1.99
22.900234937667847,0.79,-1.77,-0.3,1.96
22.90093684196472,1.04,-2.09,0.13,2.33
23.013839960098267,1.32,-2.45,0.07,2.78
23.014675855636597,1.51,-2.71,-0.29,3.11
23.01546883583069,1.67,-2.64,-0.87,3.24
23.016254901885986,1.87,-2.3,-1.26,3.22
23.13081693649292,1.82,-2.01,-1.53,3.11
23.13154697418213,1.62,-1.78,-1.5,2.83
23.13226294517517,1.19,-1.72,-1.32,2.47
23.13301682472229,0.56,-1.8,-1.06,2.16
23.13373303413391,0.14,-1.91,-0.63,2.01
23.134382963180542,-0.17,-1.91,-0.23,1.93
23.135098934173584,-0.2,-2.04,-0.08,2.05
23.136321783065796,-0.16,-2.22,-0.2,2.23
23.137053966522217,-0.09,-2.3,-0.46,2.34
23.13778281211853,0.01,-2.38,-0.62,2.45
23.14073896408081,0.14,-2.4,-0.48,2.45
23.141464948654175,0.29,-2.35,-0.16,2.37
23.142176866531372,0.31,-2.31,0.07,2.33
23.14287495613098,0.46,-2.27,0.33,2.33
23.1435809135437,0.48,-2.31,0.54,2.42
23.14429497718811,0.47,-2.29,0.82,2.47
23.1449978351593,0.34,-2.19,1.07,2.46
23.145709991455078,0.29,-1.93,1.34,2.36
23.14641308784485,0.35,-1.72,1.69,2.43
23.1470890045166,0.18,-1.3,2.05,2.43
23.149851083755493,0.31,-0.94,2.23,2.43
23.150563955307007,0.51,-0.83,1.99,2.21
23.26499581336975,0.13,-0.33,2.06,2.09
23.265716791152954,0.13,0.28,1.67,1.69
23.26650094985962,0.55,0.44,1.0,1.22
23.26727795600891,0.65,0.5,0.74,1.1
23.267975091934204,0.47,1.18,0.21,1.28
23.269160985946655,0.68,1.66,0.04,1.79
23.269840955734253,0.63,2.08,0.49,2.22
23.270488023757935,0.39,2.28,1.31,2.65
23.273242950439453,0.1,2.39,1.77,2.97
23.27394700050354,-0.1,2.71,1.74,3.22
23.27466893196106,-0.12,2.97,1.65,3.39
23.27538299560547,0.02,3.05,1.88,3.58
23.278992891311646,-0.12,3.23,2.41,4.03
23.388279914855957,-0.5,3.19,2.66,4.18
23.38894486427307,-0.8,3.56,2.81,4.6
23.389604806900024,-1.21,4.01,2.91,5.1
23.390262842178345,-1.61,4.08,2.9,5.25
23.390913009643555,-1.85,3.77,2.09,4.69
23.393583059310913,-1.82,3.42,0.36,3.89
23.394243001937866,-1.6,3.32,-1.62,4.02
23.39490008354187,-1.34,2.95,-3.07,4.46
23.395564794540405,-1.29,2.07,-3.68,4.41
23.396224975585938,-1.37,0.7,-3.36,3.69
23.396883010864258,-1.68,-0.12,-2.31,2.85
23.398977041244507,-1.85,-0.71,-1.33,2.38
23.512403964996338,-1.79,-1.28,-0.93,2.38
23.513148069381714,-1.69,-1.6,-0.81,2.46
23.513872861862183,-1.63,-1.91,-0.65,2.59
23.51673197746277,-1.57,-2.2,-0.59,2.76
23.51739811897278,-1.36,-2.3,-0.81,2.79
23.518054962158203,-1.12,-2.19,-1.06,2.67
23.51872491836548,-0.8,-2.14,-1.32,2.63
23.63097310066223,-0.44,-2.22,-1.69,2.82
23.63178300857544,0.04,-2.19,-2.0,2.96
23.632441997528076,0.4,-2.14,-1.99,2.94
23.633059978485107,0.63,-2.14,-1.66,2.78
23.633718013763428,0.87,-2.3,-1.24,2.75
23.634363889694214,0.97,-2.9,-0.92,3.19
23.637671947479248,0.79,-3.28,-0.5,3.41
23.63841199874878,0.56,-3.55,-0.1,3.59
23.63913083076477,0.1,-3.66,-0.06,3.66
23.63986611366272,-0.05,-3.88,-0.1,3.88
23.640594005584717,-0.21,-3.79,0.07,3.79
23.64130711555481,-0.36,-3.42,0.05,3.43
23.642017126083374,-0.41,-2.95,0.29,2.99
23.64269185066223,-0.44,-2.6,0.62,2.7
23.643368005752563,-0.43,-2.19,0.93,2.41
23.64404606819153,-0.53,-1.79,1.19,2.21
23.646629095077515,-0.64,-1.56,1.23,2.08
23.649059057235718,-0.72,-1.27,1.15,1.85
23.75529408454895,-0.76,-0.8,0.86,1.39
23.755958795547485,-0.63,-0.11,0.26,0.69
23.756616830825806,-0.41,0.69,-0.14,0.81
23.75727391242981,-0.29,1.34,-0.12,1.37
23.757930994033813,-0.32,1.73,0.17,1.76
23.75861692428589,-0.42,1.92,0.48,2.02
23.759278059005737,-0.63,2.26,1.04,2.56
23.759926080703735,-0.74,2.64,1.58,3.16
23.76252007484436,-0.73,2.93,1.82,3.52
23.763176918029785,-0.7,2.9,1.74,3.45
23.76382279396057,-0.63,2.63,1.38,3.03
23.769141912460327,-0.44,2.56,1.13,2.83
23.872380018234253,-0.18,3.18,1.46,3.5
23.873048067092896,0.01,3.86,2.57,4.63
23.87370491027832,0.24,4.49,4.08,6.07
23.874356985092163,0.45,5.43,5.07,7.44
23.874997854232788,0.52,6.06,4.59,7.61
23.87563991546631,0.56,5.84,2.56,6.4
23.878318071365356,0.62,4.88,0.12,4.92
23.878977060317993,1.09,3.83,-2.14,4.52
23.879628896713257,1.64,2.92,-3.75,5.02
23.880276918411255,1.86,1.77,-3.76,4.55
23.88092303276062,1.78,0.55,-2.42,3.05
23.98990797996521,1.58,-0.46,-1.16,2.01
23.990582942962646,1.51,-1.17,-0.62,2.0
23.991245985031128,1.52,-1.54,-0.48,2.21
23.991907835006714,1.47,-1.79,-0.42,2.35
23.99256682395935,1.3,-2.03,-0.49,2.45
23.995253801345825,1.12,-2.07,-0.77,2.47
23.99591612815857,0.77,-1.91,-1.28,2.42
23.99656891822815,0.35,-1.57,-1.68,2.32
23.997222900390625,-0.14,-1.28,-1.99,2.37
23.997878789901733,-0.6,-1.19,-2.07,2.46
23.99848699569702,-1.01,-1.19,-2.02,2.55
23.999221086502075,-1.2,-1.29,-1.77,2.49
24.11417293548584,-1.21,-1.58,-1.62,2.56
24.114847898483276,-1.04,-1.99,-1.79,2.87
24.115512132644653,-0.7,-2.36,-1.88,3.09
24.118310928344727,-0.36,-2.77,-1.78,3.31
24.119035959243774,-0.05,-3.09,-1.46,3.41
24.119768857955933,0.24,-3.33,-1.13,3.52
24.231302976608276,0.51,-3.4,-0.83,3.53
24.232011079788208,0.58,-3.53,-0.4,3.59
24.232666015625,0.42,-3.91,0.2,3.93
24.23328185081482,0.42,-4.03,0.58,4.09
24.233937978744507,0.43,-3.87,0.88,3.99
24.234587907791138,0.29,-3.54,1.14,3.73
24.23523211479187,0.3,-3.12,1.33,3.4
24.238796949386597,0.3,-2.59,1.53,3.02
24.23960590362549,0.25,-1.83,1.59,2.43
24.240404844284058,0.35,-1.06,1.62,1.96
24.24119782447815,0.41,-0.38,1.36,1.47
24.241885900497437,0.5,0.14,0.87,1.01
24.24252700805664,0.51,0.68,0.14,0.86
24.24316906929016,0.52,1.14,-0.3,1.28
24.243818998336792,0.45,1.62,-0.41,1.73
24.24446392059326,0.29,2.14,-0.06,2.16
24.245107889175415,0.17,2.65,0.69,2.74
24.247682809829712,-0.01,2.82,1.45,3.17
24.249260902404785,-0.19,2.66,1.65,3.13
24.3561429977417,-0.22,2.44,1.28,2.76
24.356801986694336,-0.1,2.14,0.49,2.19
24.357456922531128,0.1,2.17,-0.02,2.17
24.358103036880493,0.14,2.85,0.66,2.92
24.358784914016724,-0.27,3.58,2.09,4.15
24.359437942504883,-0.84,4.12,3.55,5.5
24.36008906364441,-1.26,4.68,4.31,6.48
24.36073899269104,-1.33,4.83,4.22,6.55
24.363375902175903,-1.31,4.3,3.31,5.58
24.364035844802856,-1.22,3.51,1.44,3.98
24.364694833755493,-1.15,3.13,-1.14,3.52
24.369250059127808,-1.05,2.99,-3.14,4.46
24.47236704826355,-1.04,2.32,-3.84,4.6
24.473029851913452,-1.18,0.83,-3.33,3.62
24.47368597984314,-1.44,-0.47,-2.22,2.68
24.474344968795776,-1.49,-1.0,-1.26,2.19
24.475006818771362,-1.4,-1.33,-0.66,2.04
24.47566294670105,-1.25,-1.59,-0.4,2.06
24.478302001953125,-1.12,-1.72,-0.51,2.11
24.47899603843689,-0.9,-1.46,-0.93,1.95
24.47964596748352,-0.69,-1.16,-1.34,1.9
24.480302095413208,-0.52,-0.9,-1.39,1.73
24.480958938598633,-0.29,-0.83,-1.37,1.62
24.598614931106567,0.03,-0.9,-1.65,1.87
24.59928798675537,0.45,-0.94,-1.99,2.24
24.599947929382324,0.68,-1.12,-2.08,2.45
24.6006281375885,0.85,-1.37,-2.01,2.57
24.601342916488647,0.65,-1.32,-1.38,2.01
24.715341806411743,1.02,-2.01,-1.26,2.58
24.716132879257202,0.89,-2.91,-0.84,3.15
24.71686100959778,0.79,-3.2,-0.26,3.3
24.717577934265137,0.45,-3.25,0.26,3.29
24.718302011489868,0.22,-3.22,0.44,3.25
24.719023942947388,0.01,-3.15,0.38,3.17
24.71973991394043,-0.03,-3.11,0.09,3.11
24.720402002334595,-0.03,-3.08,-0.07,3.08
24.72162699699402,-0.02,-2.86,-0.03,2.86
24.722270965576172,-0.02,-2.61,0.23,2.62
24.725039958953857,-0.11,-2.41,0.48,2.45
24.725752115249634,-0.24,-2.13,0.77,2.27
24.72647500038147,-0.35,-1.79,1.04,2.09
24.72719407081604,-0.53,-1.44,1.12,1.89
24.7279109954834,-0.59,-1.15,1.08,1.68
24.728621006011963,-0.66,-0.64,0.83,1.23
24.729331016540527,-0.56,-0.06,0.39,0.68
24.730040788650513,-0.54,0.62,0.01,0.82
24.730748891830444,-0.61,1.36,-0.04,1.49
24.731416940689087,-0.8,1.81,0.0,1.97
24.839226007461548,-0.85,2.12,0.01,2.28
24.83988094329834,-0.87,2.41,0.06,2.56
24.840533018112183,-0.69,2.52,0.09,2.61
24.841129064559937,-0.48,2.52,0.46,2.6
24.841779947280884,-0.15,2.51,1.08,2.73
24.842425107955933,0.31,2.75,1.82,3.31
24.84306311607361,0.34,3.06,2.6,4.02
24.843706846237183,0.24,3.28,3.29,4.65
24.844288110733032,0.24,3.86,3.69,5.34
24.84492802619934,0.19,4.59,3.45,5.74
24.847471952438354,0.19,5.1,2.28,5.58
24.849424123764038,0.2,5.13,0.48,5.15
24.95722198486328,0.41,4.7,-1.25,4.88
24.95788884162903,0.53,3.87,-2.45,4.61
24.958575010299683,0.67,2.77,-2.68,3.91
24.959237813949585,0.98,1.29,-3.17,3.55
24.95989680290222,1.01,-0.09,-1.78,2.04
24.96055006980896,0.92,-0.75,-0.54,1.3
24.96120285987854,1.02,-1.35,-0.14,1.69
24.96185803413391,1.11,-1.62,-0.31,1.98
24.96460199356079,1.15,-1.76,-0.57,2.17
24.965258836746216,1.04,-1.77,-0.75,2.18
24.965905904769897,0.86,-1.57,-1.06,2.08
24.969334840774536,0.59,-1.21,-1.33,1.89
25.08137583732605,0.16,-0.9,-1.3,1.58
25.082058906555176,-0.3,-0.66,-1.21,1.41
25.08272099494934,-0.65,-0.6,-1.16,1.45
25.08337378501892,-0.93,-0.72,-1.12,1.62
25.08402705192566,-1.04,-1.04,-0.99,1.77
25.084682941436768,-1.03,-1.49,-0.8,1.98
25.08745503425598,-0.87,-1.9,-0.71,2.2
25.088171005249023,-0.78,-2.35,-0.74,2.58
25.20046591758728,-0.64,-2.71,-0.8,2.89
25.201273918151855,-0.4,-2.92,-0.74,3.03
25.20197606086731,-0.3,-3.03,-0.53,3.09
25.2026309967041,-0.16,-3.07,-0.29,3.08
25.20322895050049,-0.09,-3.07,-0.22,3.07
25.203884840011597,-0.03,-3.16,-0.27,3.17
25.204519987106323,0.0,-3.17,-0.12,3.17
25.205716848373413,-0.05,-3.13,0.34,3.14
25.20861506462097,-0.14,-2.99,0.9,3.12
25.209340810775757,-0.17,-2.66,1.4,3.01
25.210067987442017,-0.12,-2.14,1.68,2.72
25.21077609062195,0.01,-1.51,1.88,2.41
25.21150493621826,0.03,-0.94,1.86,2.08
25.212215900421143,0.08,-0.44,1.49,1.55
25.212918996810913,0.26,0.03,0.83,0.87
25.213618993759155,0.49,0.56,0.19,0.76
25.219437837600708,0.61,1.07,-0.11,1.23
25.323740005493164,0.63,1.48,0.14,1.61
25.32640290260315,0.51,1.84,0.55,1.98
25.32704997062683,0.36,2.14,0.84,2.32
25.32769513130188,0.21,2.26,0.98,2.47
25.32834792137146,0.07,2.38,1.01,2.58
25.329028844833374,-0.01,2.47,0.82,2.6
25.32967495918274,0.05,2.36,0.29,2.37
25.33032202720642,0.24,2.52,0.11,2.53
25.33096194267273,0.16,3.27,1.04,3.43
25.331604957580566,-0.36,3.95,2.54,4.7
25.332247972488403,-0.9,4.37,3.61,5.73
25.44152808189392,-1.23,4.68,3.81,6.15
25.442179918289185,-1.35,4.72,3.05,5.77
25.442829847335815,-1.46,4.43,1.68,4.95
25.443480968475342,-1.52,3.92,0.07,4.2
25.444134950637817,-1.33,3.26,-1.57,3.85
25.444782972335815,-1.28,2.4,-2.88,3.96
25.44544291496277,-1.41,1.5,-3.19,3.79
25.446089029312134,-1.72,0.44,-2.32,2.92
25.446738958358765,-1.92,-0.47,-1.05,2.23
25.447391986846924,-1.96,-0.91,-0.35,2.18
25.450116872787476,-1.81,-1.09,-0.38,2.14
25.45078206062317,-1.68,-1.15,-0.73,2.16
25.566646814346313,-1.48,-1.19,-1.21,2.25
25.567449808120728,-1.37,-1.29,-1.96,2.71
25.568247079849243,-1.17,-1.4,-2.57,3.15
25.568980932235718,-0.86,-1.13,-2.77,3.11
25.56963086128235,-0.6,-0.93,-2.61,2.83
25.57028079032898,-0.31,-0.98,-2.38,2.59
25.570934057235718,0.02,-1.13,-2.07,2.35
25.571587800979614,0.21,-1.2,-1.59,2.0
25.574899911880493,0.46,-1.3,-1.12,1.77
25.57559084892273,0.6,-1.53,-0.79,1.82
25.576292991638184,0.63,-1.83,-0.67,2.04
25.576986074447632,0.65,-2.13,-0.51,2.28
25.57959485054016,0.51,-2.52,-0.46,2.61
25.69530200958252,0.4,-2.87,-0.55,2.94
25.6959969997406,0.2,-3.08,-0.54,3.13
25.69668197631836,0.09,-3.09,-0.24,3.1
25.697369813919067,-0.04,-3.01,0.09,3.01
25.698047876358032,-0.08,-2.94,0.34,2.96
25.7008798122406,-0.1,-2.85,0.58,2.91
25.701564073562622,-0.27,-2.64,0.72,2.74
25.7022488117218,-0.31,-2.43,0.59,2.51
25.702858924865723,-0.31,-2.16,0.51,2.24
25.703534841537476,-0.4,-1.67,0.62,1.82
25.704205989837646,-0.42,-1.25,0.83,1.55
25.7049081325531,-0.54,-1.11,0.98,1.57
25.817831993103027,-0.64,-0.98,0.9,1.47
25.818645000457764,-0.85,-0.45,0.6,1.13
25.819462060928345,-0.59,-0.06,0.0,0.59
25.822087049484253,-0.59,0.26,-0.21,0.67
25.93546199798584,-0.68,0.72,0.09,0.99
25.93634295463562,-0.73,1.23,0.39,1.48
25.937133073806763,-0.7,1.74,0.35,1.9
25.93791890144348,-0.67,2.26,0.42,2.39
25.93862509727478,-0.67,2.61,0.5,2.74
25.939424991607666,-0.57,2.55,0.45,2.65
25.940622091293335,-0.4,2.65,0.44,2.71
25.941282987594604,-0.16,3.16,0.88,3.28
25.94193696975708,-0.01,3.75,1.63,4.08
25.944658041000366,0.2,3.98,2.26,4.58
25.945363998413086,0.45,4.4,2.79,5.22
25.9460608959198,0.6,4.97,2.83,5.75
25.946764945983887,0.71,5.17,2.28,5.69
25.947407960891724,0.69,5.17,1.49,5.42
25.948110818862915,0.55,4.49,0.43,4.54
25.94883894920349,0.65,3.2,-0.96,3.4
25.949549913406372,0.92,2.19,-2.0,3.1
25.950258016586304,1.2,1.42,-2.17,2.85
25.950960874557495,1.27,0.53,-1.45,1.99
25.953593969345093,1.27,-0.39,-0.33,1.36
25.95431685447693,1.15,-1.11,0.64,1.72
26.069817781448364,1.38,-1.41,0.89,2.16
26.070488929748535,1.49,-1.63,0.48,2.25
26.071147918701172,1.61,-1.85,-0.04,2.45
26.0717990398407,1.72,-1.91,-0.39,2.59
26.072452783584595,1.38,-1.89,-0.56,2.4
26.07363486289978,1.13,-1.57,-0.86,2.11
26.074321031570435,0.74,-1.41,-1.08,1.92
26.075079917907715,0.52,-1.3,-1.21,1.85
26.07824397087097,0.23,-1.4,-1.14,1.82
26.079046964645386,-0.11,-1.47,-1.05,1.8
26.07979702949524,-0.24,-1.81,-0.82,2.0
26.080445051193237,-0.5,-2.0,-0.27,2.07
26.08108878135681,-0.75,-2.15,-0.13,2.28
26.200798988342285,-0.92,-2.18,-0.33,2.38
26.201535940170288,-0.93,-2.09,-0.52,2.34
26.202175855636597,-0.83,-2.03,-0.84,2.34
26.202772855758667,-0.59,-2.03,-0.62,2.2
26.203430891036987,-0.45,-2.17,-0.47,2.26
26.206284999847412,-0.3,-2.07,-0.8,2.23
26.318279027938843,-0.13,-1.81,-0.7,1.94
26.31906294822693,-0.1,-1.58,-0.12,1.58
26.31979203224182,-0.12,-1.55,0.77,1.73
26.320477962493896,-0.18,-1.26,1.67,2.09
26.32115387916565,-0.08,-0.94,1.92,2.13
26.32183289527893,0.21,-0.68,2.19,2.3
26.32251286506653,0.39,-0.48,2.39,2.46
26.323188066482544,0.5,-0.14,2.23,2.28
26.324232816696167,0.55,0.4,1.66,1.79
26.326947927474976,0.47,0.81,0.99,1.36
26.327597856521606,0.26,0.88,0.48,1.03
26.328261137008667,0.1,0.84,-0.16,0.86
26.32892107963562,0.08,0.82,-0.29,0.87
26.32959485054016,0.11,0.84,-0.17,0.86
26.330291986465454,0.36,1.14,0.09,1.19
26.33099102973938,0.45,1.48,0.55,1.64
26.33169198036194,0.41,1.35,1.45,2.02
26.33238697052002,0.16,1.2,1.43,1.87
26.333082914352417,0.11,1.09,0.35,1.15
26.339709043502808,0.11,0.96,-0.61,1.14
26.444226026535034,-0.4,1.3,-0.8,1.57
26.444894075393677,-0.49,1.59,-1.28,2.09
26.445553064346313,-0.25,1.91,-1.72,2.58
26.446202993392944,-0.03,2.46,-1.03,2.66
26.446850061416626,-0.18,2.9,0.23,2.91
26.447516918182373,-0.12,3.05,1.05,3.22
26.448163986206055,-0.13,2.46,1.26,2.76
26.448817014694214,-0.15,1.17,0.61,1.32
26.449471950531006,-0.08,0.19,-0.74,0.76
26.45213794708252,0.12,-0.25,-1.33,1.35
26.452799081802368,-0.09,0.02,-1.8,1.8
26.56853985786438,-0.29,0.39,-1.67,1.73
26.56937289237976,-0.54,0.4,-1.75,1.87
26.57016396522522,-0.65,0.08,-1.4,1.54
26.570881128311157,-1.05,-0.36,-0.38,1.17
26.571537017822266,-1.38,-0.85,0.51,1.69
26.572196006774902,-1.33,-1.23,0.65,1.92
26.572852849960327,-1.18,-1.24,0.32,1.74
26.57350492477417,-0.96,-1.09,-0.11,1.45
26.576903104782104,-0.72,-0.98,-0.56,1.33
26.577644109725952,-0.68,-0.71,-0.89,1.32
26.578372955322266,-0.66,-0.38,-1.17,1.39
26.57910180091858,-0.81,-0.34,-1.0,1.33
26.579831838607788,-0.95,-0.68,-0.5,1.27
26.58996605873108,-1.08,-1.13,-0.44,1.62
26.69333291053772,-1.1,-1.51,-1.0,2.11
26.694031953811646,-0.98,-1.29,-1.75,2.38
26.69473385810852,-0.59,-0.72,-2.53,2.69
26.695389986038208,-0.32,-0.34,-2.91,2.94
26.698051929473877,-0.18,-0.07,-2.75,2.75
26.698709964752197,-0.14,0.0,-2.13,2.13
26.699386835098267,-0.22,-0.41,-0.99,1.09
26.70003890991211,-0.18,-0.79,-0.18,0.83
26.700700998306274,0.15,-1.01,-0.22,1.04
26.701350927352905,0.09,-0.94,-0.98,1.36
26.70199990272522,0.12,-0.43,-1.31,1.38
26.81146788597107,0.16,-0.04,-1.41,1.41
26.812145948410034,-0.03,-0.15,-1.38,1.38
26.81280779838562,-0.07,-0.25,-1.06,1.09
26.815469980239868,0.03,-0.35,-0.83,0.9
26.816134929656982,0.02,-0.51,-0.96,1.08
26.816797971725464,0.01,-0.49,-1.11,1.21
26.817455053329468,0.08,-0.37,-1.18,1.23
26.81808590888977,0.01,-0.07,-1.23,1.23
26.818737983703613,-0.04,0.22,-1.08,1.1
26.819414854049683,0.03,0.36,-1.03,1.09
26.820059061050415,0.04,0.54,-0.85,1.0
26.820709943771362,0.07,0.52,-0.72,0.89
26.928303956985474,0.06,0.53,-0.64,0.83
26.931001901626587,-0.07,0.63,-0.54,0.83
26.931610822677612,-0.04,0.49,-0.54,0.73
26.932268857955933,-0.26,0.62,-0.7,0.97
26.93289303779602,-0.1,0.79,-0.57,0.97
26.933543920516968,0.17,0.87,-1.15,1.45
26.9342200756073,0.24,1.23,-1.73,2.13
26.934862852096558,0.05,1.74,-1.79,2.49
26.935508966445923,0.0,1.88,-0.9,2.08
26.93615984916687,-0.06,1.18,-0.08,1.18
26.93681001663208,-0.14,0.54,0.74,0.92
26.939908981323242,-0.17,0.49,1.53,1.61
27.051582098007202,-0.18,0.61,1.69,1.8
27.052272081375122,-0.35,0.68,1.06,1.3
27.0529568195343,-0.51,0.88,0.21,1.03
27.053635835647583,-0.53,1.01,-0.63,1.3
27.054320096969604,-0.4,0.96,-1.14,1.54
27.05504584312439,-0.18,0.8,-1.48,1.69
27.055757999420166,0.07,0.63,-1.77,1.88
27.05647587776184,0.28,0.47,-1.64,1.72
27.057174921035767,0.5,0.19,-1.0,1.13
27.060699939727783,0.52,-0.14,-0.27,0.6
27.06143093109131,0.7,-0.25,-0.08,0.74
27.06215786933899,0.73,-0.16,-0.33,0.81
27.070042848587036,0.75,0.14,-0.58,0.95
27.177343130111694,0.77,0.4,-0.85,1.21
27.178005933761597,0.71,0.66,-1.11,1.47
27.178683042526245,0.62,0.85,-1.55,1.87
27.17935585975647,0.51,0.98,-1.94,2.23
27.180007934570312,0.41,0.94,-2.11,2.34
27.180661916732788,0.38,0.69,-2.23,2.36
27.18327784538269,0.23,0.39,-2.23,2.27
27.18393588066101,0.16,0.13,-2.14,2.14
27.184584856033325,0.07,-0.12,-2.1,2.1
27.18524193763733,0.03,-0.33,-1.92,1.94
27.185894012451172,-0.02,-0.48,-1.79,1.85
27.190025091171265,-0.08,-0.6,-1.81,1.9
27.294403791427612,-0.09,-0.79,-1.59,1.77
27.295105934143066,-0.17,-1.07,-1.3,1.69
27.29577398300171,-0.24,-0.61,-0.14,0.67
27.296435117721558,-1.13,-0.43,-0.03,1.2
27.299198865890503,-0.45,-0.73,-1.68,1.88
27.299871921539307,-1.14,-0.62,-1.09,1.69
27.300533056259155,-0.76,-0.69,-1.93,2.18
27.301191091537476,-0.65,-0.46,-2.66,2.77
27.301849126815796,-0.4,-0.38,-3.34,3.38
27.30250096321106,-0.04,-0.63,-3.56,3.61
27.30314803123474,0.18,-0.76,-3.38,3.46
27.4117910861969,0.21,-0.09,-3.6,3.6
27.41248106956482,-0.12,1.12,-4.0,4.15
27.413166999816895,-0.22,1.6,-2.89,3.31
27.415934801101685,-0.22,1.39,-1.59,2.12
27.416595935821533,0.17,0.78,-0.61,1.0
27.417257070541382,0.13,-0.22,0.02,0.25
27.417912006378174,-0.28,-0.44,0.75,0.91
27.4185688495636,-0.3,0.26,0.71,0.81
27.419240951538086,-0.47,0.15,0.04,0.49
27.419898986816406,0.13,-0.89,0.73,1.15
27.420552015304565,-0.38,-0.63,0.82,1.1
27.421204805374146,0.11,-1.1,0.92,1.43
27.528819799423218,0.11,-0.68,1.43,1.58
27.53175401687622,-0.28,-0.09,1.48,1.5
27.532485008239746,-0.75,0.52,1.02,1.36
27.53318500518799,0.19,0.89,0.02,0.91
27.533838033676147,0.04,0.99,-0.48,1.1
27.53452181816101,-0.06,0.56,-0.47,0.73
27.53518509864807,-0.45,-0.21,0.01,0.49
27.535838842391968,-0.95,-0.39,0.53,1.15
27.53649091720581,-0.79,0.25,0.07,0.83
27.537147998809814,-0.74,1.22,-0.83,1.65
27.537800073623657,-0.61,1.65,-1.41,2.25
27.5403311252594,-0.52,1.31,-1.46,2.02
27.648046016693115,-0.22,0.76,-1.01,1.28
27.6486918926239,0.23,0.81,-0.97,1.28
27.649372816085815,0.73,0.74,-1.29,1.65
27.65002179145813,0.69,0.72,-1.51,1.8
27.650675058364868,0.16,0.53,-1.23,1.34
27.651325941085815,-0.14,0.42,-0.58,0.72
27.65200686454773,0.04,0.56,-0.43,0.7
27.652654886245728,0.24,0.39,-0.28,0.53
27.653300046920776,0.34,0.93,-0.41,1.07
27.65594506263733,1.74,2.44,0.0,2.99
27.656594038009644,0.81,1.32,-0.18,1.55
27.76516604423523,-1.22,0.82,-2.13,2.58
27.76590085029602,-0.55,1.13,-2.64,2.92
27.76660180091858,-0.49,0.05,-2.61,2.65
27.767258882522583,-0.7,-0.07,-2.27,2.37
27.76785397529602,-0.7,0.14,-2.38,2.48
27.768510103225708,0.07,0.18,-1.94,1.94
27.769159078598022,1.08,0.03,-0.24,1.1
27.76983380317688,0.97,-0.38,1.23,1.61
27.772545099258423,-0.04,-0.71,1.74,1.87
27.773201942443848,-1.05,-0.15,1.45,1.79
27.773858785629272,-1.24,-0.03,0.9,1.53
27.774513959884644,-0.61,-0.15,0.79,1.0
27.8822238445282,0.05,0.19,0.61,0.64
27.882910013198853,0.16,0.2,0.22,0.33
27.883612871170044,-0.19,0.14,0.05,0.24
27.884266138076782,-0.59,0.27,0.01,0.64
27.884912967681885,-1.0,0.34,-0.08,1.05
27.88557195663452,-1.1,0.47,-0.25,1.22
27.888264894485474,-0.87,0.58,-0.37,1.1
27.888942003250122,-0.78,0.45,-0.18,0.91
27.88959813117981,-0.72,0.06,0.29,0.77
27.89025378227234,-0.33,-0.39,0.47,0.69
27.890907049179077,0.18,-0.41,0.29,0.53
27.891562938690186,0.25,-0.11,-0.24,0.36
28.00500178337097,0.12,0.13,-0.9,0.91
28.005814790725708,0.18,0.16,-1.32,1.34
28.006611108779907,0.14,0.17,-1.47,1.48
28.00741195678711,0.17,0.18,-1.45,1.47
28.010941982269287,0.12,-0.17,-1.39,1.4
28.01168179512024,-0.19,-0.31,-1.84,1.87
28.0124089717865,-0.04,-0.14,-0.98,0.99
28.0131938457489,0.13,0.36,0.37,0.53
28.01398205757141,-0.15,0.41,0.79,0.9
28.01478099822998,-0.58,0.26,0.83,1.04
28.015559911727905,-0.21,0.2,0.35,0.45
28.01638102531433,0.11,-0.01,-0.14,0.17
28.020352125167847,0.19,-0.45,-0.55,0.73
28.13420295715332,0.12,-0.14,-1.06,1.07
28.13692307472229,0.35,-0.1,-1.33,1.37
28.13758397102356,0.33,-0.24,-1.4,1.45
28.138235807418823,0.34,0.17,-1.42,1.47
28.138904809951782,-0.24,0.04,-0.93,0.96
28.139575004577637,-0.46,-0.05,0.15,0.48
28.140230894088745,-0.39,-0.23,1.42,1.49
28.140889883041382,-0.72,-0.18,0.97,1.22
28.141541004180908,-0.83,-0.03,-0.07,0.83
28.14220404624939,-0.63,0.01,-0.67,0.91
28.249842882156372,-0.49,-0.11,-1.16,1.26
28.25272488594055,-0.29,-0.21,-1.24,1.29
28.25341796875,-0.22,-0.13,-1.15,1.17
28.25407910346985,-0.25,0.03,-0.86,0.89
28.25467610359192,-0.42,0.03,-0.5,0.65
28.255329847335815,-0.65,-0.02,-0.13,0.66
28.255983114242554,-0.6,0.07,0.25,0.65
28.256623029708862,-0.4,0.18,0.53,0.68
28.257275819778442,-0.28,0.05,0.58,0.64
28.257925987243652,-0.24,-0.04,0.65,0.69
28.2585871219635,-0.33,0.06,0.8,0.86
28.368952989578247,-0.14,0.31,1.04,1.09
28.369637966156006,0.05,0.34,1.18,1.22
28.370296955108643,-0.05,0.18,1.23,1.24
28.370945930480957,0.04,0.19,1.15,1.16
28.37158989906311,0.23,0.16,0.98,1.01
28.372228860855103,0.34,0.0,0.7,0.77
28.37287998199463,0.48,0.02,0.44,0.65
28.373528003692627,0.62,0.25,0.41,0.78
28.37416911125183,0.45,0.26,0.45,0.68
28.374820947647095,0.42,0.4,0.57,0.81
28.48472499847412,0.33,0.35,0.55,0.73
28.485399961471558,0.16,0.13,0.38,0.43
28.486057996749878,0.06,0.09,0.18,0.21
28.486715078353882,-0.05,0.05,0.02,0.07
28.48737096786499,-0.17,-0.1,-0.1,0.22
28.4880268573761,-0.12,-0.15,-0.18,0.26
28.488682985305786,-0.08,-0.2,-0.23,0.31
28.48932909965515,-0.05,-0.16,-0.19,0.25
28.490025997161865,-0.11,-0.02,-0.11,0.15
28.490675926208496,-0.28,0.05,-0.1,0.3
28.601022958755493,-0.5,0.0,-0.15,0.52
28.602381944656372,-0.55,0.02,-0.29,0.62
28.60311198234558,-0.43,0.08,-0.38,0.57
28.603835821151733,-0.31,0.07,-0.36,0.48
28.60456895828247,-0.17,-0.01,-0.33,0.37
28.605225801467896,0.02,0.04,-0.34,0.34
28.605870008468628,0.19,0.15,-0.31,0.39
28.606514930725098,0.27,0.13,-0.2,0.36
28.607157945632935,0.11,0.11,-0.1,0.18
28.607682943344116,-0.3,0.11,-0.1,0.33
28.717663049697876,-0.57,0.17,-0.16,0.61
