time,ax,ay,az,atotal
0.027540922164916992,0.18,0.09,0.52,0.55
0.028815031051635742,-0.06,-0.08,0.89,0.89
0.030039072036743164,-0.09,-0.1,0.99,0.99
0.03690195083618164,-0.05,-0.13,0.81,0.82
0.0444490909576416,0.0,-0.17,0.5,0.52
0.05423712730407715,0.04,-0.15,0.14,0.2
0.0650789737701416,0.07,-0.13,-0.15,0.21
0.07440495491027832,0.07,-0.09,-0.29,0.31
0.0844869613647461,0.02,-0.04,-0.33,0.33
0.0943610668182373,-0.02,-0.04,-0.24,0.24
0.1048891544342041,0.07,-0.04,-0.08,0.11
0.12025284767150879,0.12,-0.08,0.09,0.17
0.12466788291931152,0.09,-0.1,0.22,0.25
0.1346118450164795,0.06,-0.09,0.27,0.29
0.14452505111694336,0.0,-0.12,0.27,0.29
0.15533900260925293,-0.04,-0.13,0.16,0.21
0.1658649444580078,-0.08,-0.13,-0.01,0.15
0.1752760410308838,-0.02,-0.07,-0.08,0.1
0.18490815162658691,0.07,-0.07,-0.01,0.09
0.196242094039917,0.09,-0.09,0.12,0.17
0.2082669734954834,0.06,-0.06,0.2,0.21
0.22223687171936035,0.04,-0.03,0.21,0.21
0.2255551815032959,0.05,-0.04,0.17,0.18
0.2345278263092041,0.04,-0.11,0.1,0.15
0.24530386924743652,0.05,-0.19,0.09,0.21
0.2550489902496338,0.05,-0.21,0.12,0.24
0.26603102684020996,0.03,-0.18,0.19,0.26
0.27602601051330566,0.01,-0.11,0.24,0.26
0.2852630615234375,0.04,-0.07,0.24,0.25
0.29520702362060547,0.1,-0.1,0.18,0.22
0.3095390796661377,0.04,-0.1,0.13,0.16
0.32156896591186523,0.01,-0.09,0.06,0.1
0.32477593421936035,0.02,-0.07,0.05,0.08
0.33496594429016113,0.06,-0.06,0.09,0.12
0.3453080654144287,0.09,-0.07,0.16,0.19
0.3553740978240967,0.13,-0.1,0.24,0.29
0.36704397201538086,0.12,-0.12,0.34,0.38
0.37566685676574707,0.11,-0.1,0.38,0.4
0.3859410285949707,0.08,-0.07,0.33,0.34
0.3967578411102295,0.09,-0.08,0.22,0.25
0.410689115524292,0.06,-0.1,0.09,0.14
0.4150700569152832,0.05,-0.11,0.01,0.12
0.4254181385040283,0.06,-0.13,0.0,0.14
0.43526291847229004,0.08,-0.16,0.05,0.18
0.4453010559082031,0.06,-0.17,0.09,0.2
0.4551670551300049,0.06,-0.18,0.12,0.22
0.46628403663635254,0.09,-0.19,0.17,0.27
0.4751110076904297,0.12,-0.19,0.25,0.33
0.48575401306152344,0.12,-0.16,0.33,0.38
0.49613499641418457,0.09,-0.15,0.35,0.39
0.5103449821472168,0.06,-0.16,0.34,0.38
0.5152480602264404,0.07,-0.12,0.32,0.34
0.524799108505249,0.11,-0.09,0.28,0.31
0.5353050231933594,0.12,-0.06,0.2,0.24
0.5452821254730225,0.11,-0.07,0.11,0.17
0.555351972579956,0.1,-0.13,0.06,0.17
0.5675220489501953,0.11,-0.17,0.14,0.24
0.5758299827575684,0.12,-0.18,0.24,0.32
0.5855000019073486,0.12,-0.19,0.33,0.39
0.5955450534820557,0.15,-0.19,0.37,0.44
0.6101028919219971,0.17,-0.21,0.3,0.4
0.615156888961792,0.15,-0.24,0.23,0.36
0.6249420642852783,0.17,-0.25,0.17,0.34
0.6350729465484619,0.17,-0.26,0.1,0.32
0.6450059413909912,0.17,-0.26,0.09,0.32
0.6549508571624756,0.17,-0.27,0.09,0.33
0.667788028717041,0.16,-0.3,0.14,0.36
0.6754391193389893,0.18,-0.3,0.2,0.4
0.6864120960235596,0.17,-0.32,0.23,0.42
0.6958980560302734,0.15,-0.34,0.29,0.47
0.7101690769195557,0.12,-0.36,0.36,0.52
0.7152500152587891,0.15,-0.41,0.43,0.61
0.7249050140380859,0.18,-0.43,0.47,0.66
0.7350890636444092,0.2,-0.41,0.45,0.64
0.7451989650726318,0.19,-0.41,0.42,0.61
0.7554290294647217,0.21,-0.39,0.39,0.59
0.7653281688690186,0.23,-0.38,0.4,0.59
0.7763910293579102,0.25,-0.38,0.44,0.63
0.7861769199371338,0.24,-0.38,0.48,0.65
0.7959909439086914,0.27,-0.39,0.49,0.68
0.8104269504547119,0.35,-0.44,0.47,0.73
0.8153140544891357,0.32,-0.48,0.45,0.73
0.8250679969787598,0.26,-0.48,0.43,0.69
0.8353478908538818,0.22,-0.51,0.43,0.7
0.8452060222625732,0.17,-0.55,0.43,0.71
0.8553788661956787,0.1,-0.63,0.47,0.79
0.8661580085754395,0.06,-0.73,0.48,0.87
0.8758690357208252,0.05,-0.76,0.41,0.86
0.886552095413208,0.0,-0.77,0.31,0.83
0.8962328433990479,-0.04,-0.82,0.2,0.84
0.9100019931793213,-0.07,-0.9,0.13,0.91
0.9155600070953369,-0.15,-1.03,0.06,1.04
0.924983024597168,-0.22,-1.12,-0.03,1.14
0.9354729652404785,-0.25,-1.21,-0.07,1.23
0.9455769062042236,-0.2,-1.17,0.0,1.18
0.955394983291626,-0.21,-1.03,0.25,1.08
0.9654948711395264,-0.27,-0.88,0.63,1.11
0.9755339622497559,-0.36,-0.74,1.03,1.31
0.9875960350036621,-0.48,-0.6,1.37,1.57
0.9957599639892578,-0.48,-0.44,1.52,1.65
1.00882887840271,-0.48,-0.33,1.48,1.59
1.0152690410614014,-0.43,-0.33,1.25,1.36
1.0250699520111084,-0.36,-0.39,0.92,1.06
1.0352318286895752,-0.3,-0.44,0.63,0.82
1.0455479621887207,-0.24,-0.5,0.46,0.72
1.0552260875701904,-0.24,-0.56,0.48,0.77
1.065505027770996,-0.26,-0.59,0.67,0.92
1.0755889415740967,-0.27,-0.56,0.95,1.13
1.0876128673553467,-0.29,-0.46,1.2,1.31
1.0960471630096436,-0.35,-0.33,1.33,1.41
1.1098389625549316,-0.41,-0.22,1.37,1.44
1.1152379512786865,-0.41,-0.17,1.35,1.42
1.1250200271606445,-0.38,-0.14,1.28,1.34
1.1360218524932861,-0.28,-0.22,1.19,1.24
1.145496129989624,-0.16,-0.32,1.17,1.22
1.1554670333862305,-0.13,-0.47,1.19,1.28
1.1652648448944092,-0.13,-0.62,1.22,1.37
1.1755568981170654,-0.12,-0.72,1.24,1.43
1.1874630451202393,-0.14,-0.79,1.2,1.44
1.1958179473876953,-0.17,-0.84,1.1,1.39
1.208786964416504,-0.19,-0.88,0.92,1.28
1.2154638767242432,-0.25,-0.95,0.74,1.22
1.2251429557800293,-0.29,-1.0,0.55,1.17
1.2361900806427002,-0.37,-1.07,0.42,1.2
1.24556303024292,-0.46,-1.14,0.38,1.28
1.2556159496307373,-0.45,-1.18,0.4,1.32
1.2655141353607178,-0.5,-1.23,0.5,1.41
1.2766010761260986,-0.6,-1.21,0.67,1.5
1.2878589630126953,-0.61,-1.09,0.86,1.51
1.2956159114837646,-0.61,-0.89,1.15,1.57
1.3102200031280518,-0.6,-0.73,1.4,1.68
1.3155410289764404,-0.61,-0.63,1.54,1.77
1.3251688480377197,-0.65,-0.54,1.62,1.82
1.3358099460601807,-0.63,-0.44,1.62,1.79
1.345693826675415,-0.54,-0.34,1.5,1.63
1.3556740283966064,-0.49,-0.21,1.43,1.52
1.3652799129486084,-0.51,-0.09,1.43,1.52
1.3764269351959229,-0.51,0.0,1.54,1.62
1.387718915939331,-0.56,0.11,1.69,1.78
1.3959970474243164,-0.57,0.21,1.85,1.94
1.4105970859527588,-0.55,0.33,1.99,2.09
1.4155910015106201,-0.53,0.43,2.06,2.17
1.425426959991455,-0.52,0.53,2.04,2.17
1.4364111423492432,-0.47,0.66,1.92,2.08
1.4455721378326416,-0.4,0.79,1.8,2.0
1.4556691646575928,-0.3,0.96,1.75,2.01
1.4656100273132324,-0.16,1.18,1.92,2.25
1.4757230281829834,-0.11,1.35,2.27,2.64
1.4865739345550537,-0.13,1.37,2.58,2.92
1.4956309795379639,-0.23,1.32,2.66,2.97
1.5091640949249268,-0.22,1.36,2.43,2.79
1.5155718326568604,-0.1,1.48,1.95,2.45
1.5252578258514404,0.05,1.46,1.29,1.94
1.5365641117095947,0.08,1.33,0.58,1.45
1.545670986175537,0.1,1.18,0.03,1.18
1.5556640625,0.09,1.12,-0.39,1.18
1.565735101699829,0.13,0.81,-0.78,1.13
1.5756728649139404,0.22,0.48,-0.82,0.97
1.5886690616607666,-0.07,0.18,-0.71,0.73
1.5965321063995361,-0.3,-0.17,-0.75,0.82
1.6108319759368896,-0.32,-0.48,-0.99,1.14
1.6155898571014404,-0.35,-0.71,-1.33,1.54
1.626465082168579,-0.36,-0.88,-1.72,1.96
1.636652946472168,-0.26,-1.0,-2.02,2.26
1.6457619667053223,0.01,-1.1,-2.11,2.37
1.6556870937347412,0.45,-1.13,-1.91,2.26
1.665693998336792,0.75,-1.36,-1.51,2.16
1.6766719818115234,0.98,-1.53,-0.95,2.05
1.6881849765777588,1.03,-1.64,-0.45,1.98
1.695585012435913,0.96,-1.74,-0.07,1.98
1.709280014038086,0.91,-1.63,0.18,1.87
1.71561598777771,0.81,-1.28,0.29,1.54
1.7259061336517334,0.61,-0.73,0.24,0.98
1.7364280223846436,0.75,-0.06,0.13,0.76
1.7457220554351807,0.99,0.51,0.04,1.11
1.755586862564087,1.0,0.82,-0.01,1.29
1.765704870223999,0.96,0.9,-0.1,1.31
1.7757508754730225,0.85,0.82,-0.23,1.2
1.787748098373413,0.64,0.58,-0.45,0.97
1.7958061695098877,0.39,0.23,-0.68,0.81
1.8096048831939697,0.21,-0.07,-0.78,0.81
1.8157429695129395,-0.08,-0.32,-0.62,0.7
1.8263208866119385,-0.27,-0.58,-0.26,0.69
1.8359520435333252,-0.37,-0.83,0.1,0.91
1.845872163772583,-0.42,-1.04,0.28,1.15
1.855776071548462,-0.32,-1.19,0.37,1.28
1.8657939434051514,-0.17,-1.26,0.45,1.34
1.8757908344268799,-0.01,-1.34,0.46,1.41
1.888697862625122,0.1,-1.38,0.35,1.42
1.8964920043945312,0.14,-1.42,0.1,1.43
1.9105079174041748,0.17,-1.47,-0.2,1.49
1.9158029556274414,0.23,-1.5,-0.36,1.55
1.9263288974761963,0.32,-1.5,-0.31,1.56
1.9366860389709473,0.43,-1.52,-0.12,1.58
1.9458980560302734,0.46,-1.55,0.19,1.62
1.9556071758270264,0.46,-1.52,0.47,1.65
1.9656078815460205,0.46,-1.41,0.68,1.63
1.9769339561462402,0.45,-1.21,0.8,1.51
1.9877820014953613,0.45,-0.97,0.85,1.36
1.9970159530639648,0.46,-0.7,0.87,1.2
2.0108389854431152,0.43,-0.38,0.95,1.1
2.0157079696655273,0.45,-0.02,1.13,1.21
2.0272719860076904,0.43,0.28,1.25,1.35
2.0355398654937744,0.43,0.48,1.43,1.56
2.045928955078125,0.45,0.69,1.65,1.84
2.055799961090088,0.47,0.85,1.85,2.08
2.0656840801239014,0.42,0.93,1.93,2.18
2.076864004135132,0.49,1.02,1.83,2.15
2.087670087814331,0.56,1.02,1.63,2.0
2.096436023712158,0.69,1.03,1.47,1.92
2.1106860637664795,0.79,1.05,1.37,1.89
2.11584210395813,0.78,1.16,1.47,2.02
2.1276960372924805,0.82,1.39,1.91,2.5
2.1357438564300537,0.8,1.6,2.59,3.14
2.145979166030884,0.54,1.61,3.2,3.62
2.1558220386505127,0.08,1.63,3.33,3.7
2.1666438579559326,-0.14,1.76,2.98,3.46
2.1767661571502686,-0.18,2.01,2.24,3.01
2.1884491443634033,-0.28,2.04,1.22,2.39
2.197152853012085,-0.24,1.74,0.22,1.77
2.211169958114624,-0.1,1.23,-0.48,1.32
2.215785026550293,-0.22,0.65,-0.87,1.1
2.228085994720459,-0.4,0.12,-1.14,1.21
2.2358479499816895,-0.43,-0.26,-1.4,1.48
2.245958089828491,-0.24,-0.51,-1.7,1.79
2.2559590339660645,-0.05,-0.66,-2.12,2.22
2.2667510509490967,0.11,-0.86,-2.54,2.68
2.276608943939209,0.18,-1.08,-2.89,3.09
2.2888569831848145,0.19,-1.31,-3.13,3.39
2.2973179817199707,0.17,-1.52,-3.16,3.51
2.3105340003967285,0.06,-1.73,-2.92,3.39
2.3159101009368896,-0.13,-1.91,-2.24,2.94
2.328372001647949,-0.6,-1.83,-1.48,2.42
2.335888147354126,-1.07,-1.64,-0.84,2.13
2.346006155014038,-1.18,-1.14,-0.21,1.65
2.3558571338653564,-0.97,-0.5,0.48,1.19
2.36676287651062,-0.87,-0.01,1.06,1.37
2.376728057861328,-0.79,0.49,1.34,1.63
2.3864729404449463,-0.66,0.91,1.19,1.63
2.396451950073242,-0.34,0.87,0.59,1.1
2.4102871417999268,0.14,0.47,0.0,0.49
2.415908098220825,0.41,0.12,-0.38,0.57
2.4279210567474365,0.47,-0.34,-0.65,0.87
2.4358479976654053,0.51,-0.8,-0.85,1.27
2.445935010910034,0.62,-1.25,-0.89,1.65
2.4560039043426514,0.64,-1.63,-0.75,1.9
2.465862989425659,0.44,-1.81,-0.49,1.92
2.475909948348999,0.21,-1.76,-0.22,1.78
2.486859083175659,0.08,-1.55,-0.01,1.55
2.4960129261016846,-0.08,-1.26,0.11,1.26
2.5093891620635986,-0.26,-0.98,0.12,1.02
2.5159618854522705,-0.27,-0.81,0.11,0.86
2.5280020236968994,-0.11,-0.78,0.12,0.79
2.5352609157562256,-0.06,-0.83,0.12,0.84
2.5460541248321533,-0.13,-0.89,0.19,0.91
2.5563061237335205,-0.17,-0.94,0.29,0.99
2.5660810470581055,-0.23,-1.01,0.36,1.09
2.5766351222991943,-0.28,-1.01,0.41,1.12
2.5871551036834717,-0.33,-0.93,0.44,1.08
2.5967559814453125,-0.4,-0.79,0.51,1.02
2.610461950302124,-0.47,-0.61,0.75,1.07
2.616168975830078,-0.53,-0.37,1.13,1.3
2.6283490657806396,-0.54,-0.09,1.61,1.7
2.6359779834747314,-0.52,0.17,2.03,2.1
2.646077871322632,-0.47,0.48,2.26,2.35
2.656545877456665,-0.36,0.87,2.23,2.42
2.6660540103912354,-0.33,1.19,2.01,2.35
2.677031993865967,-0.38,1.35,1.67,2.18
2.6863949298858643,-0.54,1.37,1.31,1.97
2.6965081691741943,-0.73,1.36,0.93,1.8
2.7098701000213623,-0.76,1.45,0.66,1.76
2.716028928756714,-0.64,1.73,0.65,1.95
2.729037046432495,-0.49,2.16,1.15,2.49
2.73600697517395,-0.41,2.39,2.17,3.25
2.746122121810913,-0.38,2.37,3.37,4.13
2.756563901901245,-0.15,2.24,4.04,4.62
2.7660958766937256,0.18,2.2,3.46,4.1
2.7757699489593506,0.62,2.2,2.23,3.19
2.786803960800171,0.76,2.4,0.96,2.69
2.7969300746917725,0.74,2.26,-0.01,2.37
2.8100550174713135,0.71,1.59,-0.6,1.84
2.8161020278930664,0.51,0.54,-1.21,1.41
2.829058885574341,0.52,-0.13,-2.06,2.12
2.835983991622925,0.58,-0.55,-2.98,3.08
2.8462419509887695,0.46,-0.88,-3.73,3.85
2.8567800521850586,0.28,-1.31,-4.14,4.35
2.8661489486694336,0.24,-1.77,-4.08,4.45
2.8761188983917236,0.38,-2.14,-3.5,4.11
2.8860950469970703,0.41,-2.36,-2.59,3.52
2.89648699760437,0.5,-2.36,-1.64,2.91
2.909752130508423,0.76,-2.04,-0.77,2.3
2.916188955307007,0.77,-1.47,-0.09,1.66
2.9298641681671143,0.64,-0.85,0.44,1.15
2.936086893081665,0.56,-0.24,0.79,0.99
2.946192979812622,0.58,0.39,0.86,1.1
2.95697283744812,0.54,0.93,0.54,1.2
2.9662930965423584,0.56,1.39,-0.05,1.49
2.9762051105499268,0.36,1.36,-0.65,1.54
2.986984968185425,-0.3,0.66,-1.03,1.25
2.997015953063965,-0.69,-0.08,-1.1,1.3
3.0101189613342285,-0.69,-0.66,-0.9,1.31
3.0162110328674316,-0.65,-1.08,-0.56,1.37
3.0296080112457275,-0.6,-1.32,-0.2,1.46
3.0361721515655518,-0.57,-1.39,0.08,1.5
3.046229124069214,-0.56,-1.31,0.16,1.43
3.057194948196411,-0.51,-1.13,0.07,1.24
3.0662291049957275,-0.43,-0.95,-0.16,1.05
3.0767719745635986,-0.32,-0.84,-0.45,1.0
3.0863630771636963,-0.2,-0.84,-0.75,1.14
3.0969531536102295,-0.06,-0.93,-0.94,1.32
3.111715078353882,0.11,-1.09,-1.02,1.49
3.116412878036499,0.26,-1.29,-0.98,1.64
3.1300580501556396,0.35,-1.47,-0.77,1.69
3.1363089084625244,0.36,-1.6,-0.45,1.7
3.1463029384613037,0.31,-1.58,-0.06,1.61
3.1571810245513916,0.23,-1.43,0.36,1.49
3.1663401126861572,0.24,-1.1,0.82,1.39
3.1761910915374756,0.34,-0.67,1.28,1.48
3.187296152114868,0.47,-0.21,1.71,1.78
3.1968419551849365,0.51,0.22,2.01,2.08
3.21036696434021,0.42,0.54,2.18,2.28
3.2162411212921143,0.32,0.77,2.13,2.28
3.2304799556732178,0.41,1.02,1.86,2.16
3.2355878353118896,0.49,1.26,1.48,2.0
3.2463061809539795,0.56,1.39,1.14,1.88
3.257188081741333,0.66,1.47,0.99,1.89
3.2663300037384033,0.71,1.63,1.2,2.14
3.276263952255249,0.78,2.17,2.02,3.06
3.2874948978424072,0.82,2.85,3.37,4.48
3.2971980571746826,0.53,3.02,4.68,5.59
3.3111300468444824,0.05,2.94,5.36,6.11
3.3163750171661377,-0.41,3.0,4.76,5.64
3.3312180042266846,-0.64,3.05,3.06,4.36
3.3362720012664795,-0.41,3.2,1.13,3.41
3.3463900089263916,-0.37,2.9,-0.49,2.96
3.3571619987487793,-0.74,1.88,-1.47,2.49
3.36724591255188,-1.13,0.79,-1.95,2.38
3.3771469593048096,-1.11,-0.09,-2.14,2.41
3.3866450786590576,-0.9,-0.71,-2.3,2.56
3.3970019817352295,-0.61,-1.2,-2.46,2.8
3.4115288257598877,-0.38,-1.55,-2.67,3.11
3.416429042816162,-0.24,-1.83,-2.9,3.43
3.4306399822235107,-0.17,-1.86,-3.05,3.57
3.4357268810272217,-0.01,-1.87,-2.9,3.45
3.446233034133911,-0.01,-1.81,-2.5,3.08
3.456947088241577,-0.34,-1.81,-2.07,2.77
3.4664289951324463,-0.73,-1.68,-1.63,2.45
3.4764280319213867,-1.09,-1.33,-1.27,2.13
3.4875519275665283,-1.3,-0.74,-0.88,1.73
3.4973440170288086,-1.08,-0.19,-0.31,1.13
3.511003017425537,-0.78,0.3,0.22,0.86
3.5164449214935303,-0.67,0.83,0.31,1.11
3.5308358669281006,-0.44,0.92,0.11,1.02
3.5362679958343506,-0.02,0.75,-0.13,0.76
3.54644513130188,0.25,0.46,-0.34,0.62
3.5572760105133057,0.28,0.06,-0.52,0.59
3.567413091659546,0.24,-0.47,-0.76,0.92
3.576824903488159,0.22,-0.95,-0.95,1.36
3.5872180461883545,0.19,-1.3,-1.02,1.66
3.5976641178131104,0.16,-1.59,-0.99,1.87
3.611711025238037,-0.1,-1.71,-0.8,1.89
3.616502046585083,-0.12,-1.55,-0.35,1.59
3.631507158279419,-0.28,-1.45,0.02,1.47
3.6363160610198975,-0.38,-1.31,0.3,1.39
3.646433115005493,-0.34,-1.18,0.45,1.3
3.656046152114868,-0.29,-1.12,0.45,1.24
3.666522979736328,-0.24,-1.13,0.35,1.2
3.676306962966919,-0.26,-1.16,0.14,1.19
3.686269998550415,-0.24,-1.23,-0.05,1.25
3.697492837905884,-0.2,-1.29,-0.12,1.31
3.7151339054107666,-0.21,-1.22,-0.05,1.23
3.716718912124634,-0.26,-1.0,0.2,1.05
3.7259161472320557,-0.3,-0.67,0.63,0.96
3.7364230155944824,-0.29,-0.27,1.24,1.3
3.746448040008545,-0.3,0.14,1.92,1.94
3.7564029693603516,-0.34,0.55,2.4,2.48
3.767315149307251,-0.33,0.92,2.46,2.64
3.777001142501831,-0.29,1.24,2.14,2.49
3.7872650623321533,-0.28,1.43,1.59,2.15
3.7971010208129883,-0.42,1.5,1.06,1.88
3.8170700073242188,-0.63,1.54,0.69,1.8
3.8185231685638428,-0.77,1.54,0.61,1.82
3.826287031173706,-0.74,1.89,0.89,2.21
3.8364930152893066,-0.56,2.71,1.67,3.23
3.8465511798858643,-0.39,3.24,3.0,4.43
3.856410026550293,-0.31,3.31,4.37,5.49
3.866266965866089,-0.02,3.31,4.96,5.96
3.8773930072784424,0.54,3.32,4.15,5.34
3.8869340419769287,0.96,3.12,2.46,4.08
3.8970320224761963,1.05,2.98,0.83,3.26
3.9168999195098877,0.99,2.59,-0.35,2.79
3.9185140132904053,0.73,1.74,-1.19,2.23
3.925812005996704,0.67,0.83,-1.9,2.17
3.935910940170288,0.64,0.21,-2.65,2.73
3.946558952331543,0.5,-0.28,-3.43,3.47
3.956476926803589,0.31,-0.74,-4.06,4.13
3.9665820598602295,0.18,-1.33,-4.37,4.57
3.977618932723999,0.16,-1.93,-4.18,4.6
3.986750841140747,0.15,-2.37,-3.6,4.31
3.997330904006958,0.04,-2.59,-2.82,3.82
4.016413927078247,0.16,-2.55,-2.01,3.25
4.018009901046753,0.38,-2.11,-1.24,2.47
4.0257408618927,0.45,-1.43,-0.55,1.59
4.036371946334839,0.42,-0.7,0.06,0.81
4.046442031860352,0.37,-0.05,0.46,0.59
4.056320905685425,0.28,0.57,0.55,0.84
4.0665881633758545,0.2,1.18,0.28,1.22
4.076447010040283,0.16,1.52,-0.25,1.54
4.087223052978516,-0.13,1.37,-0.74,1.56
4.097529172897339,-0.51,0.69,-1.06,1.36
4.115195989608765,-0.55,-0.05,-1.19,1.31
4.11673903465271,-0.45,-0.62,-1.15,1.38
4.125782012939453,-0.35,-1.04,-0.92,1.43
4.136535882949829,-0.32,-1.34,-0.59,1.49
4.146314859390259,-0.32,-1.54,-0.3,1.6
4.156416177749634,-0.38,-1.57,-0.14,1.62
4.166501998901367,-0.41,-1.53,-0.15,1.59
4.177443027496338,-0.43,-1.4,-0.26,1.48
4.187286138534546,-0.53,-1.21,-0.44,1.39
4.197183847427368,-0.6,-1.07,-0.57,1.35
4.216433048248291,-0.61,-0.93,-0.75,1.34
4.218403100967407,-0.6,-0.78,-0.95,1.36
4.226438045501709,-0.56,-0.76,-1.07,1.42
4.236479997634888,-0.42,-0.87,-1.06,1.43
4.2467429637908936,-0.29,-1.0,-0.86,1.35
4.25646710395813,-0.21,-1.04,-0.43,1.14
4.267441034317017,-0.18,-0.92,0.17,0.95
4.2781150341033936,-0.15,-0.68,0.85,1.09
4.286870956420898,-0.12,-0.36,1.46,1.5
4.2970290184021,-0.14,0.06,1.91,1.91
4.316596031188965,-0.04,0.49,2.28,2.33
4.318220853805542,0.2,0.86,2.42,2.57
4.326915979385376,0.26,1.2,2.21,2.52
4.336609125137329,0.36,1.49,1.74,2.31
4.346487998962402,0.57,1.69,1.12,2.1
4.356496095657349,0.62,1.71,0.59,1.91
4.366536855697632,0.78,1.68,0.3,1.87
4.376922845840454,1.1,1.8,0.37,2.14
4.387439966201782,1.42,2.34,1.09,2.94
4.398622989654541,1.28,2.79,2.48,3.94
4.4175519943237305,0.66,2.72,3.83,4.74
4.419161081314087,0.12,2.47,4.47,5.1
4.427270174026489,-0.29,2.52,4.02,4.75
4.437957048416138,-0.67,2.64,2.71,3.84
4.4479711055755615,-0.86,2.76,1.31,3.17
4.457849025726318,-0.87,2.38,0.24,2.54
4.468807935714722,-1.08,1.55,-0.32,1.91
4.478408098220825,-1.25,0.68,-0.69,1.58
4.488286018371582,-1.27,0.04,-1.19,1.74
4.4984681606292725,-1.06,-0.39,-1.85,2.16
4.517659902572632,-0.78,-0.7,-2.52,2.72
4.519284963607788,-0.71,-0.88,-3.11,3.3
4.527313947677612,-0.57,-1.1,-3.64,3.84
4.538028955459595,-0.33,-1.42,-3.86,4.12
4.54798698425293,-0.31,-1.69,-3.77,4.14
4.557904005050659,-0.4,-1.9,-3.57,4.06
4.568847894668579,-0.68,-1.95,-3.22,3.82
4.578920125961304,-0.87,-1.69,-2.64,3.25
4.588428020477295,-0.83,-1.16,-1.82,2.31
4.59859299659729,-0.61,-0.6,-0.82,1.18
4.618775129318237,-0.55,-0.08,0.16,0.57
4.620380163192749,-0.59,0.52,0.79,1.11
4.6272971630096436,-0.52,0.85,0.91,1.34
4.637945890426636,-0.19,0.97,0.86,1.31
4.648098945617676,0.03,0.91,0.65,1.11
4.657857179641724,0.06,0.6,0.13,0.61
4.668310880661011,0.07,0.06,-0.38,0.39
4.67792010307312,0.17,-0.45,-0.69,0.84
4.688049077987671,0.28,-0.89,-0.79,1.22
4.69848895072937,0.26,-1.2,-0.74,1.43
4.717228174209595,0.08,-1.34,-0.59,1.46
4.718692064285278,-0.11,-1.34,-0.34,1.38
4.727323055267334,-0.1,-1.2,-0.06,1.2
4.738135099411011,-0.08,-0.96,0.12,0.97
4.748088121414185,-0.11,-0.77,0.17,0.79
4.757970094680786,-0.05,-0.7,0.12,0.71
4.768018960952759,0.02,-0.71,-0.02,0.71
4.779041051864624,0.08,-0.74,-0.22,0.77
4.788414001464844,0.13,-0.87,-0.42,0.97
4.798696041107178,0.19,-1.0,-0.53,1.14
4.817302942276001,0.15,-1.05,-0.6,1.21
4.818943023681641,0.03,-1.06,-0.66,1.24
4.827425003051758,-0.09,-0.94,-0.65,1.14
4.838093042373657,-0.16,-0.65,-0.49,0.82
4.848005056381226,-0.15,-0.29,-0.03,0.32
4.858085870742798,-0.19,0.04,0.66,0.68
4.86809515953064,-0.26,0.43,1.31,1.4
4.879238843917847,-0.32,0.85,1.75,1.97
4.88817286491394,-0.4,1.23,1.95,2.33
4.898553133010864,-0.54,1.48,1.9,2.46
4.917514085769653,-0.62,1.61,1.68,2.4
4.918992042541504,-0.68,1.61,1.36,2.21
4.927451848983765,-0.68,1.65,1.04,2.06
4.93809700012207,-0.56,1.83,0.82,2.08
4.948153972625732,-0.17,2.21,1.0,2.43
4.957967042922974,0.03,2.6,1.77,3.14
4.9688780307769775,0.11,2.65,2.89,3.92
4.979794025421143,0.16,2.58,3.85,4.63
4.98843789100647,0.43,2.7,3.96,4.81
4.99888014793396,0.79,2.85,2.91,4.14
5.018548011779785,0.83,2.77,1.37,3.19
5.02015495300293,0.76,2.41,0.18,2.53
5.027740955352783,0.72,1.7,-0.35,1.87
5.037714958190918,0.73,0.94,-0.51,1.29
5.047984838485718,0.7,0.37,-0.74,1.08
5.058042049407959,0.59,0.0,-1.32,1.44
5.068082094192505,0.5,-0.22,-2.21,2.27
5.080209970474243,0.43,-0.46,-3.22,3.28
5.088836908340454,0.4,-0.79,-4.12,4.21
5.098505973815918,0.4,-1.23,-4.67,4.84
5.119778871536255,0.33,-1.75,-4.66,4.98
5.121634006500244,0.38,-2.26,-3.94,4.55
5.128396034240723,0.29,-2.58,-2.88,3.87
5.138099908828735,0.2,-2.75,-1.8,3.29
5.148251056671143,0.17,-2.68,-0.79,2.79
5.158094167709351,0.23,-2.19,0.1,2.2
5.169150114059448,0.43,-1.2,0.86,1.53
5.179962873458862,0.51,-0.07,1.29,1.38
5.189081907272339,0.64,0.97,1.39,1.81
5.198925018310547,0.78,1.9,1.29,2.42
5.217751979827881,0.84,2.85,0.74,3.06
5.219334840774536,0.74,3.51,-0.11,3.58
5.22796893119812,0.7,3.53,-0.69,3.66
5.238327980041504,0.39,2.2,-1.04,2.46
5.248234033584595,-0.03,0.68,-1.27,1.44
5.2579710483551025,-0.07,-0.32,-1.27,1.31
5.268301963806152,0.0,-1.02,-1.09,1.49
5.28056001663208,0.06,-1.43,-0.73,1.6
5.288594961166382,0.06,-1.59,-0.32,1.62
5.298937082290649,-0.09,-1.54,-0.01,1.54
5.319267988204956,-0.2,-1.33,0.09,1.34
5.321362018585205,-0.21,-1.11,-0.03,1.13
5.3287599086761475,-0.16,-0.97,-0.32,1.03
5.338325023651123,-0.04,-0.9,-0.72,1.15
5.348221063613892,0.11,-0.96,-1.05,1.42
5.35840106010437,0.32,-1.03,-1.22,1.62
5.36907696723938,0.38,-1.07,-1.28,1.71
5.3802430629730225,0.43,-1.16,-1.31,1.8
5.388981103897095,0.58,-1.21,-1.21,1.8
5.39900803565979,0.67,-1.22,-0.92,1.66
5.418937921524048,0.71,-1.12,-0.55,1.43
5.420643091201782,0.74,-0.85,-0.1,1.13
5.429293870925903,0.72,-0.56,0.37,0.98
5.438344955444336,0.74,-0.23,0.83,1.13
5.448188066482544,0.78,0.12,1.19,1.42
5.458018064498901,0.78,0.47,1.37,1.64
5.46917986869812,0.82,0.82,1.34,1.77
5.4812171459198,0.82,1.15,1.13,1.8
5.488983869552612,0.75,1.39,0.81,1.77
5.499691963195801,0.66,1.5,0.54,1.72
5.518193960189819,0.61,1.5,0.38,1.66
5.520095109939575,0.66,1.55,0.42,1.73
5.529315948486328,0.93,1.77,0.81,2.15
5.538378953933716,1.27,2.19,1.76,3.08
5.548261880874634,1.25,2.53,3.14,4.22
5.558248043060303,0.86,2.46,4.25,4.98
5.568711996078491,0.54,2.39,4.54,5.15
5.580872058868408,0.5,2.59,3.76,4.59
5.588842153549194,0.57,2.76,2.29,3.63
5.598891019821167,0.67,2.6,0.72,2.77
5.619118928909302,0.55,2.08,-0.42,2.19
5.620879888534546,0.35,1.34,-0.92,1.66
5.629354000091553,0.11,0.6,-1.2,1.34
5.6383750438690186,0.05,0.07,-1.52,1.52
5.648260831832886,0.15,-0.08,-1.87,1.87
5.658349990844727,0.34,-0.06,-2.33,2.35
5.669161081314087,0.47,-0.15,-2.82,2.86
5.680544137954712,0.61,-0.35,-3.27,3.34
5.688861131668091,0.76,-0.55,-3.59,3.71
5.698871850967407,0.85,-0.64,-3.71,3.85
5.719151973724365,0.8,-0.68,-3.51,3.66
5.7207300662994385,0.69,-0.66,-3.02,3.16
5.728641033172607,0.44,-0.5,-2.31,2.4
5.73844313621521,0.04,-0.17,-1.64,1.64
5.748315095901489,-0.22,0.18,-1.11,1.14
5.758023977279663,-0.22,0.68,-0.69,0.99
5.769192934036255,-0.07,1.18,-0.26,1.21
5.780375003814697,-0.02,1.55,0.12,1.55
5.788773059844971,-0.03,1.88,0.36,1.91
5.799056053161621,-0.11,2.12,0.47,2.17
5.818792104721069,-0.1,2.18,0.36,2.21
5.820390939712524,0.12,1.89,-0.07,1.89
5.828590154647827,0.42,1.47,-0.57,1.63
5.838423013687134,0.6,1.06,-0.95,1.54
5.848304033279419,0.76,0.74,-1.22,1.61
5.858311891555786,0.92,0.48,-1.31,1.67
5.86824107170105,0.99,0.29,-1.32,1.67
5.880429983139038,1.03,0.21,-1.28,1.65
5.888404130935669,1.03,0.23,-1.23,1.62
5.898324966430664,1.02,0.28,-1.23,1.62
5.91796088218689,1.02,0.37,-1.24,1.64
5.919615030288696,1.03,0.44,-1.27,1.69
5.927777051925659,1.04,0.43,-1.29,1.71
5.938461065292358,1.03,0.34,-1.32,1.7
5.948559999465942,0.98,0.2,-1.37,1.69
5.958258867263794,0.9,0.1,-1.4,1.66
5.968397855758667,0.84,0.04,-1.43,1.65
5.9810850620269775,0.74,-0.01,-1.41,1.59
5.988509893417358,0.62,-0.01,-1.32,1.45
5.9989001750946045,0.49,0.03,-1.15,1.25
6.018006086349487,0.41,0.12,-0.93,1.02
6.0196168422698975,0.32,0.28,-0.66,0.78
6.027889013290405,0.34,0.5,-0.41,0.73
6.0385448932647705,0.42,0.75,-0.2,0.88
6.048382997512817,0.46,1.04,-0.02,1.13
6.058534860610962,0.43,1.31,0.04,1.37
6.068379163742065,0.37,1.44,0.06,1.48
6.079858064651489,0.4,1.58,-0.03,1.63
6.0891149044036865,0.44,1.67,-0.21,1.73
6.098810911178589,0.45,1.64,-0.41,1.74
6.111569166183472,0.35,1.35,-0.66,1.54
6.119126081466675,0.31,1.03,-0.83,1.35
6.1276280879974365,0.35,0.84,-0.83,1.23
6.137987852096558,0.37,0.7,-0.72,1.07
6.148342847824097,0.47,0.58,-0.52,0.9
6.158478021621704,0.6,0.48,-0.32,0.83
6.168514013290405,0.77,0.42,-0.21,0.9
6.180915117263794,0.97,0.36,-0.31,1.08
6.188807964324951,1.12,0.32,-0.63,1.32
6.199152946472168,1.38,0.37,-1.1,1.8
6.211526155471802,1.56,0.39,-1.66,2.31
6.21960186958313,1.6,0.36,-2.1,2.66
6.22768497467041,1.6,0.28,-2.25,2.77
6.238487958908081,1.47,0.24,-2.14,2.6
6.2484190464019775,1.37,0.22,-1.82,2.28
6.258407831192017,1.22,0.25,-1.36,1.84
6.269546985626221,1.13,0.33,-0.89,1.47
6.2787110805511475,1.1,0.58,-0.56,1.36
6.289459943771362,1.05,0.83,-0.38,1.39
6.2992119789123535,1.14,0.93,-0.37,1.51
6.318727016448975,1.25,0.92,-0.48,1.62
6.320353984832764,1.39,0.83,-0.73,1.77
6.328121900558472,1.52,0.66,-0.99,1.93
6.338564157485962,1.55,0.51,-1.15,1.99
6.348564863204956,1.49,0.37,-1.14,1.91
6.358540058135986,1.3,0.29,-0.92,1.61
6.369390964508057,1.09,0.24,-0.54,1.23
6.380733966827393,0.93,0.23,-0.1,0.96
6.388901948928833,0.84,0.27,0.23,0.91
6.398933172225952,0.8,0.35,0.34,0.93
6.412041902542114,0.81,0.44,0.2,0.94
6.42000412940979,0.86,0.48,-0.15,0.99
6.427814960479736,0.9,0.48,-0.53,1.14
6.438588857650757,1.01,0.41,-0.78,1.34
6.448549032211304,1.08,0.31,-0.86,1.41
6.458583116531372,1.12,0.25,-0.8,1.39
6.468606948852539,1.08,0.2,-0.61,1.25
6.4814698696136475,0.99,0.18,-0.41,1.08
6.489238023757935,0.84,0.17,-0.24,0.88
6.4996068477630615,0.71,0.2,-0.15,0.75
6.512004137039185,0.56,0.23,-0.13,0.61
6.520236968994141,0.45,0.25,-0.16,0.53
6.5284059047698975,0.38,0.25,-0.19,0.49
6.5386199951171875,0.31,0.24,-0.2,0.44
6.548367023468018,0.28,0.21,-0.2,0.4
6.5587029457092285,0.16,0.15,-0.13,0.25
6.568792104721069,0.05,0.04,-0.01,0.06
6.581433057785034,0.03,-0.06,0.16,0.17
6.588780164718628,0.03,-0.13,0.38,0.4
6.599889039993286,0.06,-0.2,0.57,0.6
6.611925840377808,0.04,-0.29,0.69,0.74
6.6207499504089355,0.07,-0.36,0.8,0.88
6.628360033035278,0.09,-0.45,0.85,0.96
6.638828992843628,0.15,-0.49,0.87,1.0
6.6487181186676025,0.18,-0.52,0.94,1.08
6.658740997314453,0.22,-0.5,1.06,1.19
6.668727159500122,0.25,-0.49,1.23,1.34
6.68215012550354,0.17,-0.48,1.39,1.48
6.68933892250061,0.12,-0.49,1.53,1.61
6.699968099594116,0.1,-0.44,1.6,1.66
6.712069988250732,0.05,-0.33,1.56,1.59
6.720643043518066,-0.08,-0.26,1.44,1.46
6.728607892990112,-0.2,-0.27,1.28,1.32
6.738832950592041,-0.27,-0.34,1.16,1.23
6.7489330768585205,-0.33,-0.49,1.06,1.21
6.758795976638794,-0.46,-0.68,1.0,1.29
6.7693541049957275,-0.55,-0.88,0.96,1.41
6.779742002487183,-0.61,-1.02,0.91,1.49
6.789517164230347,-0.68,-1.15,0.89,1.6
6.800153970718384,-0.7,-1.34,0.87,1.74
6.812211990356445,-0.67,-1.45,0.84,1.8
6.820711851119995,-0.64,-1.51,0.78,1.81
6.828134059906006,-0.6,-1.5,0.71,1.76
6.83857798576355,-0.49,-1.49,0.71,1.72
6.84916615486145,-0.39,-1.5,0.77,1.73
6.858751058578491,-0.33,-1.41,0.86,1.68
6.86856484413147,-0.39,-1.29,0.81,1.57
6.8801209926605225,-0.39,-1.2,0.71,1.44
6.889103174209595,-0.4,-1.09,0.68,1.34
6.900017976760864,-0.29,-0.94,0.68,1.19
6.911283016204834,-0.11,-0.8,0.7,1.06
6.92090916633606,-0.02,-0.67,0.81,1.05
6.9286558628082275,0.06,-0.56,0.96,1.11
6.93883204460144,0.14,-0.48,1.14,1.24
6.949203968048096,0.14,-0.44,1.27,1.35
6.958788156509399,0.15,-0.38,1.35,1.41
6.969628095626831,0.14,-0.31,1.39,1.43
6.979351043701172,0.13,-0.26,1.43,1.45
6.989475965499878,0.16,-0.19,1.42,1.44
7.000767946243286,0.21,-0.22,1.41,1.44
7.012387037277222,0.25,-0.22,1.37,1.4
7.0220630168914795,0.31,-0.19,1.33,1.37
7.028558015823364,0.35,-0.17,1.32,1.37
7.038845062255859,0.38,-0.12,1.29,1.35
7.049378156661987,0.39,-0.07,1.29,1.34
7.058739900588989,0.44,0.01,1.35,1.41
7.0686540603637695,0.5,0.11,1.51,1.59
7.079560041427612,0.44,0.19,1.86,1.92
7.089393854141235,0.28,0.28,2.35,2.38
7.101022005081177,0.11,0.46,2.84,2.87
7.112393140792847,-0.08,0.67,3.2,3.27
7.122031927108765,-0.28,0.88,3.28,3.4
7.129585027694702,-0.44,1.19,3.06,3.31
7.138995885848999,-0.47,1.4,2.63,3.01
7.149657964706421,-0.37,1.43,1.99,2.47
7.1589109897613525,-0.17,1.37,1.18,1.81
7.1688148975372314,-0.02,1.18,0.4,1.24
7.179792165756226,0.04,0.89,-0.24,0.92
7.189354181289673,0.28,0.54,-0.68,0.91
7.201481103897095,0.52,0.22,-0.95,1.1
7.212306022644043,0.74,0.01,-1.12,1.34
7.221483945846558,0.98,-0.09,-1.23,1.57
7.22829794883728,1.2,-0.13,-1.24,1.73
7.2387800216674805,1.28,-0.27,-1.18,1.76
7.2497429847717285,1.13,-0.43,-1.16,1.67
7.258967161178589,0.93,-0.69,-1.19,1.66
7.268916845321655,0.66,-0.96,-1.17,1.65
7.278727054595947,0.33,-1.19,-1.13,1.67
7.289826154708862,0.02,-1.41,-1.07,1.77
7.3010008335113525,-0.32,-1.6,-0.91,1.86
7.312556982040405,-0.77,-1.69,-0.63,1.96
7.321973085403442,-1.2,-1.72,-0.27,2.11
7.3283350467681885,-1.5,-1.69,0.24,2.27
7.339010000228882,-1.67,-1.52,0.87,2.41
7.349889039993286,-1.71,-1.18,1.39,2.49
7.358919858932495,-1.64,-0.71,1.71,2.47
7.368926048278809,-1.39,-0.26,1.81,2.29
7.3802080154418945,-0.94,0.04,1.79,2.02
7.389538049697876,-0.54,0.33,1.61,1.72
7.401106119155884,-0.57,0.5,0.92,1.19
7.412237882614136,-0.34,0.46,0.08,0.57
7.422598123550415,-0.01,0.23,-0.66,0.69
7.42834210395813,0.14,-0.23,-1.13,1.16
7.43895411491394,0.3,-0.65,-1.32,1.5
7.449890851974487,0.32,-1.13,-1.25,1.71
7.458978891372681,0.01,-1.55,-1.03,1.86
7.469465970993042,-0.29,-1.72,-0.73,1.89
7.479590177536011,-0.5,-1.65,-0.61,1.82
7.490383863449097,-0.48,-1.61,-0.47,1.74
7.502063989639282,-0.79,-1.58,-0.32,1.79
7.513168096542358,-1.01,-1.63,-0.18,1.92
7.522845029830933,-1.08,-1.61,-0.01,1.93
7.528367042541504,-1.11,-1.54,0.27,1.91
7.53883695602417,-1.03,-1.45,0.55,1.86
7.549761056900024,-0.96,-1.35,0.78,1.83
7.558887958526611,-0.93,-1.25,0.94,1.81
7.569021940231323,-0.91,-1.19,0.99,1.79
7.579803943634033,-0.88,-1.13,1.01,1.75
7.5893871784210205,-0.87,-1.02,1.01,1.67
7.601630926132202,-0.84,-0.91,1.02,1.6
7.612735033035278,-0.74,-0.8,1.11,1.55
7.6232240200042725,-0.73,-0.63,1.22,1.55
7.628875017166138,-0.82,-0.42,1.37,1.65
7.6390111446380615,-0.87,-0.18,1.64,1.86
7.650067090988159,-0.89,0.13,1.98,2.17
7.659013032913208,-0.98,0.49,2.21,2.46
7.6696999073028564,-1.0,0.89,2.15,2.53
7.679656028747559,-0.91,1.24,1.92,2.46
7.689890146255493,-0.98,1.6,1.56,2.44
7.701876878738403,-1.08,1.77,1.15,2.37
7.712813138961792,-1.13,1.82,0.81,2.29
7.723484992980957,-1.1,1.85,0.59,2.23
7.7289509773254395,-0.9,2.02,0.82,2.35
7.738765001296997,-0.9,2.27,1.66,2.95
7.749835014343262,-0.91,2.34,2.87,3.81
7.759948968887329,-0.54,2.27,3.99,4.62
7.76932692527771,-0.05,2.35,4.3,4.9
7.779709100723267,0.28,2.6,3.51,4.37
7.790258169174194,0.49,3.01,1.97,3.63
7.801893949508667,0.65,3.07,0.37,3.15
7.813169956207275,0.63,2.75,-0.62,2.88
7.823706865310669,0.17,1.91,-1.24,2.28
7.828952074050903,0.33,0.88,-1.78,2.01
7.839154005050659,0.38,0.13,-2.26,2.29
7.849973917007446,0.11,-0.43,-2.79,2.82
7.859924077987671,-0.19,-0.86,-3.38,3.49
7.869624853134155,-0.44,-1.33,-3.8,4.05
7.879042863845825,-0.37,-1.83,-3.8,4.23
7.889731168746948,-0.16,-2.25,-3.44,4.11
7.901138067245483,-0.01,-2.46,-2.83,3.74
7.9132139682769775,0.28,-2.54,-2.07,3.28
7.9232518672943115,0.6,-2.43,-1.21,2.78
7.928518056869507,0.79,-2.02,-0.32,2.19
7.9390928745269775,0.73,-1.46,0.49,1.7
7.949015855789185,0.67,-1.01,1.15,1.67
7.959105014801025,0.59,-0.48,1.57,1.74
7.969006061553955,0.46,0.16,1.58,1.65
7.97972297668457,0.32,0.8,1.16,1.44
7.989967107772827,0.2,1.28,0.48,1.38
8.002079010009766,-0.08,1.34,-0.17,1.35
8.012389898300171,-0.54,1.01,-0.64,1.31
8.023893117904663,-0.72,0.54,-0.94,1.3
8.027322053909302,-0.69,0.08,-1.13,1.32
8.037781953811646,-0.77,-0.27,-1.31,1.54
8.047767877578735,-0.84,-0.54,-1.39,1.71
8.05783486366272,-0.67,-0.74,-1.27,1.61
8.070567846298218,-0.41,-0.87,-1.01,1.39
8.078596830368042,-0.22,-0.98,-0.78,1.27
8.088855028152466,-0.08,-1.08,-0.59,1.23
8.09863805770874,-0.05,-1.13,-0.5,1.23
8.11151385307312,-0.06,-1.19,-0.48,1.28
8.124281167984009,-0.01,-1.31,-0.46,1.38
8.12771201133728,-0.02,-1.47,-0.46,1.54
8.137773036956787,-0.1,-1.64,-0.49,1.71
8.147723913192749,-0.13,-1.75,-0.53,1.83
8.15842604637146,-0.1,-1.8,-0.54,1.88
8.169871091842651,-0.05,-1.77,-0.35,1.8
8.178266048431396,0.01,-1.63,-0.07,1.63
8.188411951065063,0.04,-1.39,0.24,1.41
8.19891095161438,0.16,-1.15,0.59,1.3
8.212156057357788,0.23,-0.97,0.97,1.39
8.224107027053833,0.26,-0.77,1.31,1.54
8.227995157241821,0.39,-0.54,1.62,1.75
8.237781047821045,0.5,-0.33,1.87,1.96
8.248296022415161,0.58,-0.05,1.98,2.06
8.25875210762024,0.55,0.26,1.99,2.08
8.270292043685913,0.59,0.68,1.85,2.05
8.278136968612671,0.61,1.05,1.6,2.0
8.288892984390259,0.65,1.26,1.31,1.93
8.299357175827026,0.63,1.33,1.09,1.83
8.311352968215942,0.56,1.22,1.02,1.68
8.324190855026245,0.55,1.09,1.18,1.69
8.328068017959595,0.59,1.08,1.5,1.94
8.337718963623047,0.72,1.35,2.02,2.53
8.347624063491821,0.74,1.87,2.92,3.54
8.357931852340698,0.58,2.26,3.78,4.44
8.368603944778442,0.1,2.41,4.06,4.72
8.377758979797363,-0.33,2.7,3.79,4.66
8.387915849685669,-0.72,2.94,3.14,4.36
8.403566122055054,-0.92,2.22,0.98,2.59
8.41383695602417,-0.8,1.59,-0.04,1.78
8.424145936965942,-0.81,0.92,-0.79,1.45
8.430041074752808,-0.8,0.27,-1.34,1.58
8.439936876296997,-0.8,-0.27,-1.83,2.01
8.451415061950684,-0.76,-0.62,-2.22,2.42
8.46071195602417,-0.7,-0.85,-2.69,2.9
8.470532178878784,-0.43,-1.13,-3.12,3.34
8.481529951095581,-0.13,-1.44,-3.33,3.63
8.49144697189331,0.16,-1.68,-3.25,3.66
8.50337815284729,0.28,-1.84,-2.91,3.45
8.514533042907715,0.22,-2.02,-2.48,3.2
8.525259971618652,0.09,-2.11,-1.9,2.84
8.530638933181763,-0.12,-2.14,-1.26,2.48
8.54072117805481,-0.38,-2.0,-0.59,2.11
8.550616979598999,-0.65,-1.72,0.12,1.84
8.560662031173706,-1.1,-1.45,0.74,1.96
8.571707010269165,-1.52,-1.04,1.11,2.15
8.580944061279297,-1.38,-0.32,1.23,1.87
8.591316938400269,-0.83,0.33,1.16,1.46
8.603526830673218,-0.63,0.72,0.69,1.17
8.614935159683228,-0.48,1.13,-0.12,1.23
8.62567400932312,-0.25,1.15,-0.8,1.42
8.630697011947632,0.19,0.92,-1.03,1.39
8.640709161758423,0.47,0.39,-0.95,1.12
8.65067195892334,0.45,-0.31,-0.89,1.04
8.660773992538452,0.33,-1.01,-0.99,1.45
8.670718908309937,0.1,-1.52,-0.86,1.74
8.681503057479858,0.03,-1.75,-0.61,1.85
8.691457986831665,0.06,-1.83,-0.36,1.86
8.703034162521362,0.07,-1.81,-0.12,1.81
8.713971853256226,0.01,-1.68,0.14,1.68
8.726302862167358,-0.04,-1.59,0.24,1.6
8.730130910873413,-0.03,-1.49,0.3,1.52
8.740805864334106,0.03,-1.43,0.34,1.47
8.750693082809448,0.1,-1.36,0.37,1.41
8.760887861251831,0.2,-1.27,0.43,1.35
8.77181100845337,0.03,-1.11,0.44,1.19
8.780812978744507,-0.08,-0.94,0.31,0.99
8.791550874710083,-0.06,-0.75,0.12,0.76
8.800977945327759,-0.09,-0.59,0.04,0.59
8.814007043838501,-0.25,-0.38,0.27,0.52
8.826590061187744,-0.41,-0.1,0.82,0.92
8.830220937728882,-0.64,0.18,1.56,1.69
8.840806007385254,-0.89,0.43,2.24,2.44
8.850672960281372,-0.97,0.71,2.61,2.87
8.860785961151123,-0.87,1.02,2.66,2.97
8.870704889297485,-0.72,1.33,2.37,2.81
8.880795955657959,-0.64,1.64,1.88,2.57
8.890794038772583,-0.61,1.8,1.35,2.33
8.903275966644287,-0.59,1.76,0.96,2.08
8.91327691078186,-0.6,1.72,0.87,2.01
8.925852060317993,-0.57,2.0,1.25,2.42
8.93021297454834,-0.34,2.43,2.17,3.27
8.940635919570923,-0.7,2.98,3.2,4.42
8.950658082962036,-0.75,3.04,3.99,5.07
8.960811853408813,-0.24,3.1,4.18,5.2
8.970844984054565,0.35,3.17,3.33,4.61
8.98082184791565,0.66,3.0,1.74,3.53
8.991888046264648,0.61,2.67,0.22,2.74
9.001580953598022,0.19,1.81,-0.76,1.97
9.013767957687378,-0.02,0.85,-1.28,1.53
9.02697491645813,0.06,0.11,-1.76,1.76
9.030236005783081,0.0,-0.4,-2.43,2.46
9.040849924087524,-0.06,-0.84,-3.19,3.29
9.050806045532227,0.0,-1.31,-3.8,4.01
9.060888051986694,0.13,-1.78,-4.15,4.51
9.070985078811646,0.24,-2.19,-4.24,4.77
9.08090615272522,0.38,-2.4,-3.93,4.62
9.091606855392456,0.61,-2.43,-3.03,3.93
9.101624011993408,0.77,-2.36,-1.89,3.12
9.114063024520874,0.82,-2.14,-0.88,2.45
9.126728057861328,0.81,-1.63,-0.06,1.82
9.130362033843994,0.62,-1.09,0.63,1.4
9.14087200164795,0.39,-0.5,1.17,1.33
9.15078616142273,0.16,0.25,1.44,1.47
9.160969018936157,0.07,1.15,1.32,1.75
9.171302080154419,0.03,1.78,0.81,1.95
9.18087887763977,-0.33,2.11,-0.04,2.13
9.191794157028198,-0.95,1.7,-0.64,2.04
9.20131802558899,-1.22,0.65,-0.67,1.53
9.214355945587158,-1.12,-0.27,-0.54,1.27
9.22699499130249,-1.06,-0.93,-0.45,1.48
9.230436086654663,-0.94,-1.4,-0.31,1.71
9.240926027297974,-0.86,-1.62,-0.14,1.83
9.250809907913208,-0.8,-1.72,-0.07,1.89
9.260902166366577,-0.73,-1.81,-0.12,1.95
9.271568059921265,-0.65,-1.76,-0.36,1.91
9.28087592124939,-0.57,-1.69,-0.69,1.91
9.291692018508911,-0.54,-1.61,-0.96,1.95
9.301637887954712,-0.48,-1.57,-1.11,1.98
9.313760042190552,-0.38,-1.61,-1.09,1.98
9.326862096786499,-0.23,-1.6,-0.91,1.85
9.330572843551636,-0.08,-1.54,-0.55,1.63
9.340950012207031,0.02,-1.43,-0.07,1.43
9.350879907608032,0.13,-1.34,0.47,1.42
9.36104702949524,0.29,-1.18,0.98,1.56
9.371657133102417,0.46,-0.99,1.47,1.83
9.380954027175903,0.67,-0.69,1.91,2.13
9.391825914382935,0.81,-0.3,2.31,2.46
9.401253938674927,0.79,0.17,2.56,2.68
9.41405701637268,0.74,0.54,2.41,2.57
9.426944971084595,0.67,0.79,1.96,2.21
9.430369138717651,0.67,0.92,1.45,1.84
9.440903902053833,0.66,0.89,1.09,1.55
9.450881004333496,0.61,0.77,0.93,1.35
9.460986852645874,0.79,0.73,1.06,1.51
9.47323203086853,1.03,1.02,1.45,2.05
9.481281995773315,1.19,1.9,2.32,3.22
9.4917471408844,1.52,2.84,3.68,4.89
9.502308130264282,1.27,3.19,4.75,5.86
9.515147924423218,0.55,3.36,4.73,5.82
9.527899980545044,-0.2,3.48,3.63,5.03
9.531025171279907,-0.8,3.5,2.17,4.19
9.541056871414185,-1.17,3.42,0.58,3.66
9.550940036773682,-1.2,3.17,-0.99,3.53
9.561938047409058,-1.25,2.36,-2.05,3.36
9.572952032089233,-1.14,1.21,-2.52,3.01
9.581063985824585,-1.07,0.38,-2.7,2.92
9.591701984405518,-1.14,-0.29,-2.79,3.02
9.602113962173462,-0.8,-0.88,-2.96,3.18
9.615442037582397,-0.37,-1.27,-3.21,3.47
9.628016948699951,0.15,-1.53,-3.23,3.57
9.630586862564087,0.4,-1.47,-2.98,3.34
9.641096830368042,0.39,-1.44,-2.55,2.95
9.651078939437866,0.31,-1.49,-2.0,2.51
9.661036014556885,0.08,-1.62,-1.39,2.13
9.673941850662231,-0.25,-1.58,-0.8,1.78
9.681566953659058,-0.67,-1.34,-0.39,1.54
9.691619157791138,-0.92,-0.89,0.0,1.28
9.701585054397583,-0.81,-0.35,0.31,0.93
9.715049982070923,-0.4,0.06,0.54,0.67
9.727908849716187,0.13,0.31,0.44,0.55
9.731128931045532,0.39,0.42,-0.16,0.59
9.741050004959106,0.56,0.24,-0.98,1.15
9.75101113319397,0.7,-0.18,-1.47,1.63
9.761912107467651,0.45,-0.76,-1.64,1.86
9.773515939712524,0.06,-1.25,-1.55,1.99
9.781530141830444,-0.31,-1.64,-1.4,2.17
9.791611909866333,-0.48,-1.92,-1.06,2.24
9.801809072494507,-0.51,-1.99,-0.47,2.1
9.815031051635742,-0.58,-1.92,0.1,2.0
9.828007936477661,-0.62,-1.73,0.5,1.9
9.831151008605957,-0.58,-1.5,0.65,1.73
9.84120798110962,-0.49,-1.24,0.58,1.45
9.851145029067993,-0.28,-1.02,0.35,1.11
9.862275838851929,-0.1,-0.83,0.23,0.86
9.87273097038269,0.02,-0.77,0.22,0.8
9.881834030151367,0.1,-0.79,0.28,0.84
9.891680002212524,0.07,-0.72,0.41,0.83
9.901525020599365,-0.01,-0.51,0.47,0.69
9.916054010391235,-0.03,-0.28,0.57,0.63
9.927947998046875,-0.12,-0.1,0.78,0.79
9.931153059005737,-0.27,0.08,1.07,1.1
9.941154956817627,-0.41,0.25,1.37,1.45
9.951072931289673,-0.63,0.41,1.55,1.72
9.962095975875854,-0.77,0.66,1.54,1.84
9.97314190864563,-0.87,0.96,1.41,1.91
9.981528043746948,-1.03,1.21,1.18,1.97
9.991719007492065,-1.2,1.38,0.96,2.06
10.001598119735718,-1.27,1.48,0.86,2.13
10.015933990478516,-1.13,1.6,0.92,2.16
10.02793002128601,-0.75,2.0,1.3,2.5
10.031244039535522,-0.45,2.59,2.17,3.4
10.041134119033813,-0.14,2.91,3.43,4.5
10.051108121871948,0.3,2.87,4.65,5.47
10.061151027679443,0.72,2.94,5.05,5.88
10.073001146316528,1.19,3.11,4.32,5.45
10.081087827682495,1.4,3.26,2.75,4.48
10.091531991958618,1.28,3.34,0.95,3.7
10.101219892501831,0.67,2.64,-0.56,2.78
10.115432024002075,0.4,1.5,-1.58,2.21
10.127361059188843,0.34,0.64,-2.36,2.46
10.130601167678833,0.12,-0.01,-3.1,3.1
10.140868902206421,-0.07,-0.51,-3.68,3.71
10.151137113571167,-0.23,-0.96,-4.09,4.2
10.161198854446411,-0.39,-1.51,-4.24,4.51
10.172162055969238,-0.47,-2.05,-4.04,4.55
10.181272983551025,-0.44,-2.4,-3.4,4.18
10.191839933395386,-0.31,-2.58,-2.46,3.57
10.201997995376587,-0.07,-2.63,-1.42,2.98
10.216243028640747,0.15,-2.25,-0.53,2.31
10.227949857711792,0.42,-1.57,0.12,1.62
10.231364965438843,0.52,-0.95,0.67,1.27
10.24117398262024,0.26,-0.35,0.87,0.97
10.25119400024414,0.22,0.23,0.67,0.74
10.261067152023315,0.27,0.79,0.17,0.85
10.273307085037231,0.24,1.22,-0.49,1.33
10.281790971755981,0.1,1.18,-1.04,1.57
10.29197096824646,-0.35,0.45,-1.34,1.45
10.30175495147705,-0.7,-0.43,-1.55,1.75
10.316345930099487,-0.67,-1.21,-1.61,2.12
10.327898979187012,-0.6,-1.78,-1.36,2.31
10.330602884292603,-0.52,-2.13,-0.94,2.38
10.34125304222107,-0.36,-2.29,-0.42,2.35
10.351125001907349,-0.34,-2.29,0.19,2.32
10.361305952072144,-0.36,-2.04,0.74,2.19
10.373562097549438,-0.44,-1.63,1.05,1.98
10.381502866744995,-0.54,-1.17,1.0,1.63
10.39212703704834,-0.53,-0.79,0.67,1.16
10.401333093643188,-0.53,-0.53,0.2,0.77
10.416053056716919,-0.46,-0.46,-0.37,0.74
10.421090841293335,-0.29,-0.54,-0.86,1.05
10.430713891983032,-0.15,-0.63,-1.14,1.31
10.441275835037231,0.02,-0.69,-1.09,1.29
10.45107102394104,0.17,-0.69,-0.71,1.0
10.461285829544067,0.24,-0.54,-0.04,0.59
10.47125792503357,0.19,-0.29,0.84,0.9
10.482209920883179,0.15,0.05,1.7,1.7
10.491763830184937,0.09,0.38,2.35,2.38
10.501375913619995,0.09,0.65,2.67,2.74
10.516244173049927,0.15,0.9,2.56,2.71
10.521307945251465,0.09,1.26,2.1,2.45
10.530786037445068,0.18,1.47,1.5,2.1
10.541189908981323,0.33,1.46,0.96,1.77
10.551296949386597,0.43,1.42,0.79,1.68
10.561323881149292,0.65,1.66,1.19,2.14
10.573580980300903,0.86,2.12,2.28,3.22
10.581844091415405,0.68,2.47,3.73,4.52
10.591964960098267,0.07,2.63,4.84,5.5
10.601675987243652,-0.46,2.79,4.87,5.63
10.614902973175049,-0.7,3.11,3.89,5.02
10.621201038360596,-0.85,3.3,2.47,4.2
10.630897998809814,-0.71,2.99,0.98,3.22
10.640673875808716,-1.0,2.04,-0.31,2.29
10.651517152786255,-1.47,1.08,-1.18,2.17
10.661110162734985,-1.47,0.3,-1.8,2.34
10.671376943588257,-1.28,-0.36,-2.23,2.59
10.682394027709961,-1.04,-0.86,-2.61,2.93
10.692132949829102,-0.6,-1.34,-2.97,3.31
10.701988935470581,-0.28,-1.73,-3.22,3.66
10.716139078140259,-0.1,-1.99,-3.28,3.83
10.721275091171265,0.1,-2.08,-3.02,3.66
10.730910062789917,0.18,-1.99,-2.4,3.12
10.740607976913452,-0.03,-1.7,-1.53,2.28
10.751518964767456,-0.39,-1.37,-0.67,1.57
10.761535882949829,-0.72,-1.02,0.06,1.24
10.771311044692993,-1.12,-0.65,0.5,1.38
10.781432867050171,-1.21,-0.17,0.69,1.4
10.792682886123657,-0.96,0.32,0.62,1.18
10.801789045333862,-0.52,0.71,0.35,0.94
10.815490007400513,-0.03,0.85,-0.16,0.86
10.821339845657349,0.28,0.59,-0.79,1.02
10.83089804649353,0.43,0.09,-1.35,1.41
10.840705156326294,0.45,-0.46,-1.66,1.78
10.851467847824097,0.25,-0.8,-1.7,1.89
10.861438989639282,0.02,-1.19,-1.74,2.1
10.871376037597656,0.06,-1.71,-1.64,2.37
10.881479978561401,0.02,-2.02,-1.28,2.39
10.892851114273071,-0.14,-2.11,-0.85,2.27
10.90177607536316,-0.36,-2.08,-0.41,2.15
10.915248155593872,-0.54,-1.96,-0.02,2.03
10.92133903503418,-0.64,-1.77,0.33,1.91
10.930830955505371,-0.64,-1.58,0.58,1.8
10.941565036773682,-0.57,-1.41,0.7,1.67
10.951493978500366,-0.46,-1.26,0.68,1.5
10.96126914024353,-0.32,-1.12,0.53,1.27
10.971428155899048,-0.17,-0.98,0.36,1.05
10.982468843460083,-0.13,-0.7,0.28,0.76
10.993875980377197,-0.28,-0.37,0.27,0.53
11.002164125442505,-0.35,-0.08,0.49,0.6
11.014325857162476,-0.39,0.16,1.03,1.11
11.021003007888794,-0.41,0.39,1.6,1.69
11.030741930007935,-0.33,0.64,1.96,2.08
11.040923833847046,-0.33,0.91,1.9,2.13
11.050482034683228,-0.46,1.14,1.56,1.98
11.060620069503784,-0.82,1.3,1.1,1.89
11.072455167770386,-1.15,1.41,0.8,1.98
11.082618951797485,-1.42,1.42,0.7,2.12
11.094918966293335,-1.52,1.5,0.74,2.26
11.101960897445679,-1.31,1.75,0.88,2.35
11.111636877059937,-0.94,2.36,1.45,2.92
11.120224952697754,-0.65,3.09,2.45,3.99
11.13044285774231,-0.35,3.41,3.46,4.87
11.144017934799194,0.14,3.41,3.83,5.12
11.151705980300903,0.79,3.31,2.8,4.4
11.161761999130249,1.38,3.14,1.14,3.61
11.172078847885132,1.33,3.1,-0.15,3.37
11.182428121566772,0.93,2.57,-0.92,2.88
11.193094968795776,0.37,1.45,-1.46,2.09
11.20176911354065,0.47,0.78,-2.03,2.22
11.21389102935791,0.7,0.24,-2.57,2.67
11.221914052963257,0.75,-0.33,-2.93,3.04
11.230452060699463,0.74,-1.0,-3.04,3.28
11.243597984313965,0.76,-1.51,-2.96,3.4
11.252384901046753,0.86,-1.73,-2.56,3.2
11.261924982070923,1.03,-1.53,-1.94,2.67
11.272876024246216,0.96,-0.85,-1.31,1.83
11.282829999923706,0.65,-0.17,-0.74,0.99
11.294092893600464,0.23,0.59,-0.26,0.68
11.302913904190063,-0.2,1.18,0.0,1.19
11.315791845321655,-0.47,1.48,-0.06,1.55
11.321627855300903,-0.69,1.34,-0.3,1.53
11.331609964370728,-0.84,0.84,-0.63,1.34
11.342572927474976,-0.89,0.25,-0.91,1.29
11.351575136184692,-0.82,-0.33,-1.11,1.41
11.361478090286255,-0.64,-0.87,-1.22,1.62
11.37135100364685,-0.38,-1.39,-1.22,1.88
11.382251977920532,-0.05,-1.83,-1.1,2.13
11.393864870071411,0.18,-2.17,-0.94,2.37
11.401793003082275,0.24,-2.33,-0.8,2.47
11.415333032608032,0.21,-2.39,-0.71,2.5
11.421558141708374,0.06,-2.35,-0.68,2.44
11.431139945983887,-0.12,-2.21,-0.7,2.32
11.441867113113403,-0.26,-2.09,-0.74,2.23
11.451760053634644,-0.46,-1.87,-0.83,2.09
11.461726903915405,-0.61,-1.74,-0.95,2.07
11.471577882766724,-0.69,-1.61,-1.04,2.03
11.481616973876953,-0.7,-1.45,-1.02,1.9
11.492588996887207,-0.66,-1.3,-0.84,1.68
11.502555131912231,-0.47,-1.15,-0.55,1.35
11.514734029769897,-0.29,-0.98,-0.25,1.05
11.521578073501587,-0.14,-0.92,0.11,0.93
11.531131029129028,-0.02,-0.66,0.51,0.83
11.541940927505493,0.14,-0.32,0.94,1.0
11.551866054534912,0.2,0.1,1.43,1.44
11.561601877212524,0.17,0.58,1.84,1.93
11.57155704498291,0.14,1.1,2.09,2.36
11.582447052001953,0.21,1.59,2.08,2.62
11.594069004058838,0.33,1.96,1.85,2.71
11.601838827133179,0.48,2.12,1.57,2.68
11.615835905075073,0.54,1.99,1.34,2.45
11.621517896652222,0.53,1.74,1.27,2.21
11.631847143173218,0.58,1.53,1.4,2.15
11.64198088645935,0.75,1.47,1.63,2.31
11.651641130447388,1.07,1.86,2.01,2.94
11.66159200668335,1.27,2.67,2.77,4.05
11.671790838241577,1.04,3.14,3.68,4.94
11.68231201171875,0.39,3.03,4.2,5.19
11.693528890609741,-0.29,3.14,4.13,5.19
11.702340841293335,-0.89,2.98,3.05,4.35
11.716418027877808,-1.2,2.69,1.43,3.27
11.721734046936035,-1.07,2.18,-0.13,2.43
11.731992959976196,-0.96,1.63,-1.17,2.22
11.742026090621948,-0.89,0.9,-1.58,2.02
11.75178599357605,-0.86,0.1,-1.64,1.85
11.761626958847046,-0.88,-0.58,-1.67,1.97
11.77170705795288,-0.76,-0.95,-1.88,2.23
11.781668901443481,-0.59,-1.13,-2.25,2.58
11.79383111000061,-0.42,-1.21,-2.69,2.97
11.802281141281128,-0.18,-1.34,-2.91,3.2
11.815612077713013,-0.13,-1.38,-2.81,3.13
11.821588039398193,-0.19,-1.46,-2.55,2.94
11.832507848739624,-0.23,-1.56,-2.1,2.62
11.842702150344849,-0.37,-1.66,-1.54,2.29
11.851588010787964,-0.7,-1.66,-0.98,2.05
11.861812829971313,-1.11,-1.43,-0.51,1.88
11.871644020080566,-1.09,-0.81,-0.02,1.35
11.882798910140991,-0.66,-0.06,0.54,0.85
11.894145011901855,-0.28,0.64,0.8,1.06
11.901755094528198,-0.2,1.21,0.46,1.3
11.914958953857422,-0.02,1.27,-0.25,1.29
11.921656847000122,0.41,0.97,-0.73,1.28
11.933181047439575,0.47,0.39,-0.91,1.09
11.942713975906372,0.3,-0.32,-1.0,1.09
11.951856851577759,0.16,-0.96,-1.12,1.48
11.961804151535034,0.06,-1.49,-1.17,1.89
11.97165298461914,-0.11,-1.88,-1.14,2.2
11.982910871505737,-0.22,-2.11,-1.04,2.36
11.994130849838257,-0.25,-2.17,-0.83,2.33
12.00268816947937,-0.28,-2.06,-0.6,2.16
12.012801885604858,-0.28,-2.06,-0.6,2.16
12.01914095878601,-0.36,-1.86,-0.46,1.94
12.032999038696289,-0.34,-1.65,-0.36,1.72
12.038931131362915,-0.14,-1.49,-0.2,1.5
12.049018144607544,0.19,-1.33,0.03,1.34
12.059981107711792,0.3,-1.16,0.25,1.22
12.069217920303345,0.26,-1.05,0.3,1.12
12.078840970993042,0.25,-0.94,0.23,0.99
12.08976697921753,0.26,-0.77,0.1,0.81
12.099792003631592,0.28,-0.52,-0.07,0.59
12.118460893630981,0.23,-0.19,-0.11,0.31
12.12018895149231,0.11,0.11,0.21,0.26
12.128460168838501,-0.09,0.34,0.85,0.91
12.138611078262329,-0.27,0.63,1.54,1.68
12.149152994155884,-0.33,0.98,2.03,2.27
12.160035848617554,-0.26,1.3,2.13,2.5
12.169075012207031,-0.19,1.45,1.89,2.38
12.17958402633667,-0.35,1.36,1.4,1.98
12.189894914627075,-0.43,1.03,0.91,1.44
12.199689149856567,-0.53,0.78,0.81,1.24
12.218544960021973,-0.68,0.66,0.96,1.34
12.22011113166809,-0.55,0.94,1.15,1.58
12.229164838790894,-0.06,1.89,1.77,2.59
12.239086866378784,0.15,2.6,3.04,4.0
12.248986959457397,0.15,2.8,4.44,5.25
12.26101803779602,0.35,2.99,5.17,5.98
12.269305944442749,0.56,3.28,4.52,5.61
12.279796838760376,0.66,3.63,2.76,4.6
12.289332151412964,0.62,3.85,0.79,3.97
12.300243139266968,0.23,3.41,-0.68,3.48
12.319936990737915,0.01,2.19,-1.49,2.64
12.321719884872437,0.17,1.02,-2.01,2.26
12.32922101020813,0.11,0.19,-2.61,2.61
12.339039087295532,-0.03,-0.35,-3.34,3.35
12.34910798072815,-0.08,-0.88,-4.02,4.11
12.361449003219604,-0.02,-1.38,-4.5,4.7
12.369385957717896,0.07,-1.8,-4.61,4.94
12.380006074905396,0.19,-2.04,-4.19,4.66
12.390688180923462,0.23,-2.15,-3.29,3.93
12.40042495727539,0.36,-2.1,-2.06,2.96
12.415182828903198,0.44,-1.63,-0.78,1.85
12.419234037399292,0.25,-0.86,0.28,0.93
12.433748960494995,0.08,0.03,1.1,1.1
12.439194917678833,-0.1,0.89,1.53,1.77
12.449121952056885,-0.1,1.64,1.46,2.19
12.460124969482422,0.15,2.33,0.94,2.51
12.470242977142334,0.13,2.44,0.18,2.45
12.479655981063843,-0.37,1.61,-0.54,1.73
12.489521980285645,-0.8,0.42,-1.17,1.47
12.499881982803345,-0.76,-0.53,-1.46,1.72
12.518987894058228,-0.72,-1.23,-1.45,2.03
12.520585060119629,-0.62,-1.69,-1.27,2.2
12.528731107711792,-0.46,-1.92,-0.92,2.17
12.539264917373657,-0.4,-2.0,-0.5,2.1
12.549443006515503,-0.46,-1.87,-0.17,1.93
12.560293912887573,-0.57,-1.55,0.02,1.65
12.569166898727417,-0.61,-1.12,0.02,1.27
12.579220056533813,-0.69,-0.67,-0.2,0.98
12.590102910995483,-0.78,-0.38,-0.5,1.0
12.600035905838013,-0.74,-0.27,-0.72,1.06
12.618539094924927,-0.64,-0.37,-0.9,1.16
12.620208978652954,-0.47,-0.6,-0.99,1.24
12.628598928451538,-0.26,-0.83,-1.01,1.33
12.639250040054321,-0.13,-0.98,-0.99,1.39
12.649287939071655,-0.02,-1.03,-0.91,1.37
12.659191846847534,0.06,-1.05,-0.76,1.29
12.669150114059448,0.14,-1.05,-0.46,1.15
12.67926287651062,0.24,-0.97,-0.05,1.0
12.689308881759644,0.38,-0.76,0.43,0.95
12.700448989868164,0.5,-0.52,0.91,1.16
12.719491958618164,0.5,-0.24,1.28,1.39
12.721050024032593,0.46,0.11,1.44,1.51
12.728720903396606,0.47,0.51,1.42,1.58
12.739310026168823,0.43,0.91,1.28,1.62
12.74941897392273,0.42,1.14,1.14,1.66
12.759310960769653,0.48,1.37,1.12,1.83
12.770164966583252,0.55,1.67,1.14,2.09
12.780187845230103,0.94,2.27,1.46,2.85
12.789737939834595,1.22,3.22,2.59,4.3
12.799989938735962,1.0,3.51,4.15,5.52
12.821076154708862,0.52,3.41,5.27,6.29
12.822625875473022,-0.01,3.66,5.0,6.19
12.828703165054321,-0.52,3.95,3.21,5.11
12.83941102027893,-0.66,4.08,1.12,4.28
12.849347829818726,-0.7,3.57,-0.6,3.68
12.859264135360718,-1.05,2.51,-1.65,3.18
12.870097875595093,-1.2,1.4,-2.0,2.72
12.880131959915161,-1.24,0.43,-2.1,2.47
12.889636039733887,-1.18,-0.16,-2.27,2.56
12.900264978408813,-0.98,-0.51,-2.61,2.83
12.920230150222778,-0.64,-0.82,-3.04,3.21
12.921795129776001,-0.32,-1.16,-3.39,3.59
12.928736925125122,-0.14,-1.54,-3.6,3.91
12.938905000686646,0.0,-1.98,-3.43,3.96
12.949548959732056,-0.03,-2.2,-2.84,3.59
12.959469079971313,-0.33,-2.22,-2.16,3.11
12.969496965408325,-0.6,-2.0,-1.41,2.51
12.979362964630127,-0.94,-1.59,-0.57,1.93
12.99057412147522,-1.1,-1.0,0.25,1.5
13.000164031982422,-1.16,-0.28,0.96,1.53
13.020754098892212,-1.21,0.5,1.22,1.78
13.022336959838867,-1.05,1.21,1.03,1.9
13.028666019439697,-0.67,1.78,0.63,2.0
13.039510011672974,-0.42,2.05,0.01,2.09
13.049588918685913,-0.11,1.77,-0.63,1.88
13.059387922286987,0.03,1.17,-0.95,1.5
13.069492101669312,-0.01,0.53,-1.06,1.18
13.07947301864624,0.0,0.04,-1.09,1.09
13.090621948242188,0.04,-0.27,-1.01,1.04
13.10002589225769,0.04,-0.46,-0.78,0.9
13.119030952453613,-0.05,-0.6,-0.48,0.77
13.120651960372925,-0.12,-0.7,-0.17,0.73
13.12888503074646,-0.13,-0.76,0.0,0.77
13.139474153518677,-0.17,-0.77,-0.02,0.78
13.149532079696655,-0.18,-0.76,-0.21,0.8
13.159598112106323,-0.11,-0.73,-0.52,0.9
13.170419931411743,-0.03,-0.74,-0.79,1.08
13.180637121200562,-0.03,-0.76,-0.96,1.22
13.190227031707764,-0.12,-0.82,-1.16,1.42
13.200127840042114,-0.13,-0.9,-1.34,1.61
13.219743013381958,-0.17,-0.89,-1.4,1.66
13.221369981765747,-0.25,-0.8,-1.31,1.55
13.229161024093628,-0.3,-0.66,-1.01,1.24
13.239622831344604,-0.37,-0.49,-0.47,0.77
13.249499082565308,-0.39,-0.33,0.17,0.53
13.259424924850464,-0.38,-0.16,0.72,0.82
13.269615888595581,-0.32,0.0,0.97,1.02
13.28087306022644,-0.3,0.13,0.99,1.04
13.289682149887085,-0.31,0.28,0.92,1.01
13.300366163253784,-0.2,0.44,0.95,1.06
13.318477869033813,-0.14,0.46,1.12,1.21
13.320059061050415,-0.17,0.45,1.36,1.44
13.329355955123901,-0.13,0.48,1.51,1.58
13.339570045471191,-0.14,0.66,1.36,1.51
13.349411964416504,-0.16,0.88,1.08,1.4
13.359529972076416,-0.02,1.27,1.13,1.7
13.369452953338623,0.12,1.86,1.69,2.51
13.381395101547241,0.21,2.34,2.63,3.52
13.39004111289978,0.3,2.35,3.27,4.03
13.400066137313843,0.6,2.13,3.03,3.75
13.420328855514526,0.81,2.12,1.68,2.82
13.421932935714722,0.71,2.14,-0.03,2.25
13.429497957229614,0.56,1.97,-1.12,2.33
13.4396231174469,0.41,1.63,-1.43,2.2
13.449481964111328,0.36,1.1,-1.31,1.74
13.459526062011719,0.55,0.6,-0.95,1.25
13.470736980438232,0.67,0.25,-0.84,1.1
13.481731176376343,0.65,0.08,-1.18,1.34
13.490203142166138,0.64,0.01,-1.79,1.9
13.500066041946411,0.62,-0.05,-2.55,2.62
13.51990795135498,0.59,-0.13,-3.26,3.31
13.521557092666626,0.75,-0.21,-3.49,3.57
13.529711961746216,0.85,-0.14,-3.18,3.29
13.539783000946045,0.88,0.0,-2.7,2.83
13.549512147903442,1.17,0.31,-2.05,2.38
13.55956482887268,1.37,0.7,-1.26,1.98
13.57052493095398,1.57,1.16,-0.51,2.01
13.581707000732422,1.77,1.61,0.05,2.39
13.590309858322144,1.9,1.97,0.33,2.75
13.600261926651001,1.98,2.21,0.28,2.98
13.620993852615356,1.96,2.26,-0.05,2.99
13.622974157333374,1.97,2.18,-0.72,3.02
13.630476951599121,1.8,1.93,-1.47,3.02
13.639632940292358,1.46,1.57,-2.02,2.94
13.649594068527222,1.17,1.15,-2.25,2.78
13.6594979763031,0.85,0.79,-2.2,2.48
13.670393943786621,0.63,0.55,-1.92,2.09
13.682153940200806,0.45,0.36,-1.54,1.64
13.690297842025757,0.41,0.27,-1.25,1.34
13.700981855392456,0.54,0.34,-1.02,1.2
13.720566987991333,0.71,0.49,-0.94,1.27
13.722341060638428,0.83,0.6,-1.1,1.5
13.729880094528198,0.94,0.65,-1.41,1.81
13.739704847335815,1.1,0.62,-1.64,2.06
13.749583959579468,1.08,0.72,-1.72,2.15
13.759623050689697,1.11,0.75,-1.74,2.19
13.770294904708862,1.11,0.73,-1.66,2.12
13.782077074050903,1.05,0.67,-1.57,2.0
13.790205955505371,0.99,0.59,-1.42,1.82
13.800364017486572,0.95,0.56,-1.28,1.68
13.819782972335815,0.93,0.55,-1.19,1.6
13.821377038955688,0.91,0.58,-1.13,1.56
13.829882860183716,0.86,0.62,-1.14,1.55
13.839530944824219,0.86,0.67,-1.15,1.58
13.849572896957397,0.87,0.76,-1.17,1.64
13.859465837478638,0.87,0.86,-1.2,1.71
13.871055841445923,0.86,0.9,-1.14,1.68
13.882200002670288,0.84,0.89,-0.9,1.51
13.890244960784912,0.79,0.88,-0.59,1.32
13.900372982025146,0.65,0.92,-0.37,1.18
13.919995069503784,0.51,0.96,-0.22,1.1
13.921547174453735,0.5,0.9,-0.16,1.04
13.930004835128784,0.46,0.85,-0.17,0.98
13.939818143844604,0.43,0.83,-0.12,0.94
13.949594020843506,0.43,0.78,-0.04,0.89
13.959504842758179,0.43,0.74,0.01,0.85
13.969660997390747,0.46,0.71,0.06,0.84
13.981835126876831,0.46,0.71,0.09,0.85
13.98991084098816,0.53,0.77,0.15,0.94
14.000411033630371,0.61,0.94,0.36,1.17
14.019418954849243,0.6,1.15,0.75,1.49
14.020961046218872,0.55,1.28,1.21,1.84
14.029963970184326,0.39,1.27,1.49,1.99
14.039733171463013,0.23,1.2,1.3,1.78
14.049804925918579,0.12,1.11,0.59,1.26
14.060614824295044,0.07,0.9,-0.4,0.98
14.07036805152893,0.01,0.55,-1.34,1.44
14.081906080245972,-0.09,0.22,-2.03,2.04
14.090235948562622,-0.14,-0.13,-2.41,2.41
14.100669145584106,-0.05,-0.41,-2.46,2.49
14.120298147201538,-0.03,-0.61,-2.26,2.34
14.121865034103394,0.1,-0.76,-1.85,2.0
14.13022494316101,0.26,-0.78,-1.39,1.61
14.13950514793396,0.34,-0.62,-1.06,1.27
14.149281024932861,0.42,-0.35,-0.94,1.08
14.159712076187134,0.48,-0.11,-1.0,1.11
14.169830083847046,0.51,0.13,-1.18,1.29
14.181657075881958,0.51,0.35,-1.33,1.46
14.190263986587524,0.53,0.46,-1.31,1.48
14.200445890426636,0.49,0.51,-1.12,1.32
14.212311029434204,0.38,0.54,-0.81,1.04
14.220000982284546,0.25,0.57,-0.45,0.76
14.229028940200806,0.14,0.57,-0.09,0.59
14.239938020706177,0.04,0.6,0.18,0.62
14.249705076217651,-0.03,0.65,0.38,0.75
14.259750127792358,-0.08,0.76,0.49,0.9
14.269840002059937,-0.06,0.88,0.58,1.05
14.280979871749878,0.02,1.01,0.6,1.17
14.29062294960022,0.1,1.14,0.51,1.25
14.300109148025513,0.21,1.2,0.35,1.26
14.319184064865112,0.37,1.2,0.2,1.27
14.320841073989868,0.55,1.13,0.06,1.25
14.329265832901001,0.7,1.0,-0.07,1.22
14.339879989624023,0.78,0.92,-0.19,1.22
14.349511861801147,0.78,0.79,-0.55,1.23
14.35990595817566,0.81,0.64,-0.96,1.4
14.369894027709961,0.75,0.48,-1.25,1.53
14.382833003997803,0.68,0.38,-1.43,1.62
14.390517950057983,0.51,0.34,-1.41,1.53
14.400393962860107,0.3,0.34,-1.18,1.26
14.41966700553894,0.15,0.35,-0.82,0.9
14.421322107315063,0.02,0.36,-0.43,0.56
14.429218053817749,-0.1,0.38,-0.14,0.41
14.439894914627075,-0.19,0.41,0.06,0.45
14.449767827987671,-0.15,0.4,0.18,0.46
14.459768056869507,-0.03,0.36,0.22,0.42
14.469674825668335,0.01,0.36,0.13,0.38
14.483022928237915,0.05,0.34,-0.07,0.35
14.490378141403198,0.07,0.27,-0.17,0.32
14.500679969787598,0.05,0.24,-0.2,0.31
14.513278007507324,-0.03,0.26,-0.18,0.31
14.521437883377075,-0.07,0.31,-0.18,0.36
14.529361009597778,-0.15,0.34,-0.24,0.44
14.539950132369995,-0.28,0.35,-0.27,0.52
14.549826860427856,-0.38,0.34,-0.38,0.63
14.559883832931519,-0.47,0.29,-0.57,0.79
14.570882081985474,-0.53,0.26,-0.84,1.02
14.580080032348633,-0.58,0.22,-1.13,1.28
14.590589046478271,-0.57,0.15,-1.28,1.4
14.600515127182007,-0.52,0.1,-1.31,1.41
14.613204956054688,-0.48,0.07,-1.16,1.25
14.621055841445923,-0.51,0.08,-0.96,1.09
14.629361867904663,-0.47,0.1,-0.75,0.89
14.63998794555664,-0.42,0.19,-0.55,0.71
14.649892091751099,-0.36,0.33,-0.42,0.64
14.659763097763062,-0.36,0.42,-0.39,0.67
14.670454978942871,-0.29,0.42,-0.44,0.67
14.680157899856567,-0.2,0.4,-0.51,0.67
14.69070315361023,-0.12,0.27,-0.54,0.61
14.700809001922607,-0.09,0.12,-0.48,0.5
14.71321415901184,-0.11,0.0,-0.26,0.28
14.721130132675171,-0.16,-0.1,0.12,0.22
14.729660987854004,-0.24,-0.11,0.55,0.61
14.739351034164429,-0.28,-0.05,0.91,0.95
14.749913930892944,-0.29,0.02,1.06,1.09
14.76001501083374,-0.36,0.1,1.01,1.07
14.770005941390991,-0.37,0.15,0.75,0.84
14.782573938369751,-0.33,0.13,0.35,0.49
14.79035496711731,-0.27,0.06,-0.06,0.28
14.801013946533203,-0.18,-0.04,-0.36,0.4
14.813097953796387,-0.11,-0.16,-0.49,0.52
14.821964025497437,-0.04,-0.25,-0.46,0.52
14.829468965530396,0.0,-0.32,-0.31,0.44
14.840091943740845,0.02,-0.35,-0.05,0.35
14.84992504119873,0.0,-0.31,0.15,0.34
14.859957933425903,-0.08,-0.22,0.27,0.35
14.870069026947021,-0.19,-0.1,0.33,0.39
14.882709980010986,-0.31,-0.02,0.37,0.48
14.890606164932251,-0.42,0.08,0.4,0.58
14.901325941085815,-0.46,0.12,0.46,0.66
14.912783861160278,-0.48,0.12,0.6,0.77
14.922125101089478,-0.44,-0.02,0.74,0.86
14.929532051086426,-0.45,-0.2,0.79,0.93
14.940042972564697,-0.42,-0.39,0.78,0.96
14.95022702217102,-0.36,-0.58,0.79,1.04
14.960178136825562,-0.33,-0.79,0.76,1.14
14.970091104507446,-0.28,-1.01,0.69,1.25
14.981250047683716,-0.21,-1.24,0.65,1.41
14.990057945251465,-0.1,-1.38,0.6,1.5
15.001353979110718,0.01,-1.44,0.55,1.54
15.013089895248413,0.08,-1.44,0.47,1.51
15.022266149520874,0.15,-1.41,0.36,1.46
15.029865980148315,0.23,-1.42,0.3,1.46
15.040122032165527,0.26,-1.44,0.34,1.5
15.050348043441772,0.32,-1.42,0.56,1.55
15.060158014297485,0.35,-1.39,1.0,1.74
15.070954084396362,0.31,-1.29,1.54,2.03
15.080456018447876,0.28,-1.15,2.11,2.41
15.090873003005981,0.22,-1.02,2.51,2.71
15.101789951324463,0.13,-0.87,2.65,2.79
15.11290717124939,0.15,-0.73,2.54,2.64
15.122282981872559,0.17,-0.68,2.31,2.41
15.129487991333008,0.15,-0.7,2.06,2.18
15.140082120895386,0.11,-0.75,1.86,2.0
15.150590181350708,0.02,-0.82,1.71,1.89
15.160208940505981,-0.06,-0.91,1.6,1.84
15.16995882987976,-0.16,-1.06,1.53,1.86
15.180925130844116,-0.22,-1.27,1.44,1.93
15.190857172012329,-0.21,-1.46,1.34,1.99
15.201992988586426,-0.22,-1.64,1.19,2.03
15.213428974151611,-0.21,-1.8,1.02,2.07
15.222293138504028,-0.14,-1.89,0.8,2.05
15.22947907447815,-0.04,-2.0,0.66,2.1
15.239506959915161,0.06,-2.02,0.6,2.1
15.250695943832397,0.12,-1.98,0.68,2.09
15.26017689704895,0.16,-1.86,0.81,2.03
15.271016836166382,0.2,-1.7,0.93,1.94
15.28045105934143,0.32,-1.53,1.06,1.88
15.290786027908325,0.42,-1.38,1.18,1.86
15.3020498752594,0.49,-1.25,1.3,1.86
15.313700914382935,0.52,-1.11,1.42,1.87
15.323063135147095,0.51,-0.96,1.6,1.93
15.329548120498657,0.5,-0.8,1.75,1.98
15.339941024780273,0.5,-0.62,1.89,2.05
15.351011991500854,0.58,-0.43,1.96,2.08
15.359977006912231,0.68,-0.22,1.96,2.08
15.370219945907593,0.75,-0.02,1.83,1.97
15.381383180618286,0.8,0.14,1.57,1.76
15.390622854232788,0.82,0.32,1.21,1.49
15.402163028717041,0.85,0.49,0.82,1.27
15.413439989089966,0.87,0.6,0.54,1.18
15.42284083366394,0.86,0.65,0.41,1.15
15.429458856582642,0.86,0.66,0.43,1.16
15.440210103988647,0.89,0.71,0.61,1.29
15.451076030731201,0.94,0.86,0.9,1.55
15.460304021835327,1.03,1.16,1.32,2.03
15.469999074935913,1.02,1.51,2.01,2.71
15.48144793510437,0.74,1.7,2.86,3.4
15.490875959396362,0.42,1.81,3.61,4.06
15.502002000808716,0.08,2.09,3.79,4.32
15.513403177261353,-0.3,2.25,3.3,4.0
15.523317098617554,-0.5,2.53,2.53,3.61
15.529627084732056,-0.62,2.56,1.73,3.15
15.54031491279602,-0.59,2.31,0.86,2.53
15.551214933395386,-0.66,1.9,0.04,2.01
15.56038212776184,-0.77,1.47,-0.64,1.77
15.570063829421997,-0.64,1.05,-1.1,1.64
15.58093810081482,-0.38,0.58,-1.42,1.58
15.590837955474854,-0.1,0.1,-1.76,1.76
15.603204011917114,0.25,-0.31,-2.07,2.1
15.614351987838745,0.57,-0.78,-2.31,2.5
15.62372612953186,0.73,-1.23,-2.49,2.87
15.629626989364624,0.7,-1.6,-2.55,3.09
15.64021897315979,0.43,-1.95,-2.42,3.13
15.651247024536133,0.03,-2.23,-1.96,2.96
15.660316944122314,-0.37,-2.37,-1.26,2.7
15.670235872268677,-0.78,-2.33,-0.49,2.5
15.680154085159302,-1.22,-2.15,0.31,2.49
15.691106081008911,-1.42,-1.88,1.1,2.6
15.70232605934143,-1.27,-1.48,1.84,2.68
15.711323022842407,-1.27,-0.87,2.31,2.77
15.722345113754272,-1.29,-0.29,2.19,2.55
15.729804992675781,-1.05,0.15,1.57,1.89
15.739134073257446,-0.68,0.24,0.68,0.99
15.751970052719116,-0.2,0.12,-0.07,0.24
15.761203050613403,0.11,-0.17,-0.57,0.6
15.770982027053833,0.35,-0.56,-0.83,1.06
15.78114104270935,0.48,-0.93,-0.84,1.34
15.79072117805481,0.53,-1.3,-0.73,1.58
15.803674936294556,0.42,-1.59,-0.73,1.79
15.812062978744507,0.07,-1.71,-0.81,1.89
15.820893049240112,-0.24,-1.88,-0.96,2.12
15.829006910324097,-0.34,-2.07,-1.03,2.33
15.841202020645142,-0.53,-2.15,-0.94,2.4
15.853044986724854,-0.67,-2.2,-0.85,2.45
15.860994100570679,-0.71,-2.2,-0.65,2.4
15.871358156204224,-0.66,-2.16,-0.36,2.28
15.881816148757935,-0.64,-2.01,-0.01,2.1
15.891952991485596,-0.54,-1.8,0.35,1.91
15.90374207496643,-0.39,-1.55,0.72,1.75
15.914799928665161,-0.31,-1.26,0.99,1.63
15.924890995025635,-0.25,-0.91,1.13,1.47
15.930282831192017,-0.2,-0.56,1.22,1.35
15.940438032150269,-0.17,-0.22,1.25,1.28
15.951145887374878,-0.23,0.06,1.26,1.28
15.961390972137451,-0.27,0.24,1.3,1.34
15.970885038375854,-0.25,0.34,1.33,1.39
15.980854034423828,-0.24,0.42,1.37,1.45
15.9910249710083,-0.28,0.41,1.4,1.48
16.003291845321655,-0.32,0.46,1.41,1.51
16.01331114768982,-0.29,0.53,1.51,1.62
16.02619194984436,-0.25,0.63,1.66,1.79
16.029688119888306,-0.29,0.71,1.89,2.03
16.04031491279602,-0.32,0.78,2.16,2.31
16.051151037216187,-0.39,0.86,2.34,2.52
16.06032705307007,-0.42,0.95,2.38,2.59
16.0701801776886,-0.39,1.0,2.3,2.53
16.080209970474243,-0.24,1.18,2.23,2.53
16.091248989105225,-0.04,1.51,2.48,2.9
16.10361886024475,-0.08,1.82,3.12,3.61
16.11409306526184,0.11,2.12,3.74,4.3
16.123862981796265,0.65,2.28,3.72,4.41
16.12980008125305,0.83,2.45,2.82,3.82
16.140172958374023,0.65,2.57,1.45,3.02
16.15113091468811,0.41,2.35,0.3,2.4
16.16035795211792,0.12,1.75,-0.34,1.78
16.17034101486206,-0.02,1.11,-0.64,1.28
16.181151151657104,-0.02,0.51,-0.93,1.06
16.191004991531372,-0.06,0.01,-1.45,1.45
16.202101945877075,-0.19,-0.42,-2.15,2.19
16.21264100074768,-0.34,-0.78,-2.88,3.0
16.225183963775635,-0.44,-1.16,-3.51,3.72
16.230302095413208,-0.42,-1.52,-3.84,4.15
16.240313053131104,-0.15,-1.74,-3.51,3.92
16.250230073928833,-0.07,-1.8,-2.84,3.36
16.26049017906189,0.1,-1.78,-2.11,2.76
16.270473957061768,0.48,-1.64,-1.25,2.11
16.27989101409912,0.74,-1.35,-0.31,1.57
16.29050898551941,0.81,-0.9,0.57,1.33
16.302921056747437,0.79,-0.44,1.28,1.56
16.309316873550415,0.78,0.0,1.61,1.78
16.321431875228882,0.65,0.44,1.44,1.64
16.329113960266113,0.61,0.84,0.76,1.28
16.340999841690063,0.54,1.01,-0.17,1.15
16.35235905647278,0.2,0.7,-0.96,1.2
16.360707998275757,-0.08,0.13,-1.37,1.37
16.37096095085144,-0.32,-0.45,-1.45,1.55
16.381037950515747,-0.51,-0.97,-1.49,1.84
16.39090394973755,-0.47,-1.34,-1.29,1.91
16.402933835983276,-0.42,-1.53,-0.83,1.79
16.409842014312744,-0.33,-1.58,-0.4,1.66
16.420511960983276,-0.2,-1.53,-0.08,1.54
16.430906057357788,-0.1,-1.42,-0.01,1.42
16.44064688682556,-0.07,-1.24,-0.11,1.24
16.45063805580139,0.0,-1.12,-0.32,1.16
16.462061166763306,0.09,-1.11,-0.53,1.23
16.472084045410156,0.22,-1.19,-0.66,1.37
16.48185396194458,0.1,-1.24,-0.7,1.42
16.491660833358765,0.02,-1.37,-0.78,1.57
16.503334999084473,0.13,-1.47,-0.76,1.65
16.51077103614807,0.12,-1.55,-0.61,1.67
16.523303031921387,0.13,-1.55,-0.46,1.62
16.52902388572693,0.22,-1.37,-0.22,1.4
16.54080104827881,0.27,-1.05,0.11,1.08
16.551156997680664,0.29,-0.67,0.58,0.93
16.560808897018433,0.33,-0.3,1.12,1.2
16.570719957351685,0.38,0.08,1.67,1.71
16.58054804801941,0.4,0.47,2.11,2.19
16.591623067855835,0.43,0.83,2.36,2.53
16.60050106048584,0.51,1.14,2.34,2.65
16.61208987236023,0.57,1.32,2.09,2.53
16.62368416786194,0.68,1.4,1.77,2.35
16.63065505027771,0.74,1.43,1.48,2.18
16.6410870552063,0.73,1.39,1.32,2.05
16.650917053222656,0.72,1.36,1.31,2.02
16.66171383857727,0.69,1.54,1.47,2.23
16.67117404937744,0.75,1.96,2.01,2.9
16.680991888046265,0.62,2.36,2.99,3.85
16.69107985496521,0.19,2.44,3.8,4.51
16.70090103149414,-0.19,2.42,3.95,4.63
16.712759971618652,-0.42,2.56,3.28,4.18
16.724655866622925,-0.46,2.61,2.09,3.37
16.729142904281616,-0.13,2.38,0.81,2.51
16.740957975387573,0.08,2.05,-0.1,2.05
16.750664949417114,-0.26,1.55,-0.67,1.7
16.761425018310547,-0.58,0.84,-1.1,1.5
16.771209955215454,-0.69,0.23,-1.5,1.66
16.78066086769104,-0.79,-0.14,-2.06,2.21
16.790828943252563,-0.72,-0.45,-2.71,2.83
16.80088996887207,-0.57,-0.74,-3.24,3.37
16.812605142593384,-0.48,-1.12,-3.49,3.69
16.82335114479065,-0.36,-1.52,-3.35,3.69
16.831007957458496,-0.23,-1.83,-2.89,3.42
16.841320991516113,-0.19,-2.02,-2.11,2.92
16.851083040237427,-0.24,-2.09,-1.28,2.46
16.861215829849243,-0.34,-1.97,-0.43,2.04
16.871765851974487,-0.57,-1.77,0.54,1.93
16.8807590007782,-0.97,-1.38,1.23,2.08
16.89164090156555,-1.09,-0.63,1.42,1.89
16.904986143112183,-0.86,0.1,1.2,1.47
16.915043115615845,-0.51,0.69,0.71,1.11
16.92458701133728,-0.13,1.14,-0.03,1.14
16.929461002349854,0.3,1.15,-0.82,1.44
16.93953013420105,0.54,0.85,-1.41,1.73
16.95453715324402,0.5,0.27,-1.68,1.77
16.961539030075073,0.35,-0.46,-1.68,1.77
16.973186016082764,0.35,-1.14,-1.5,1.91
16.981621980667114,0.24,-1.66,-1.33,2.14
16.991810083389282,0.13,-2.02,-1.08,2.29
17.001821041107178,0.09,-2.17,-0.82,2.32
17.011861085891724,0.02,-2.2,-0.56,2.27
17.02727699279785,-0.02,-2.18,-0.3,2.2
17.030708074569702,-0.07,-2.08,-0.13,2.08
17.040849924087524,-0.15,-1.9,-0.08,1.9
17.05060887336731,-0.16,-1.65,-0.05,1.65
17.061699151992798,-0.1,-1.43,0.1,1.43
17.07293391227722,-0.01,-1.25,0.46,1.33
17.081178903579712,-0.16,-0.95,0.85,1.28
17.091187000274658,-0.31,-0.7,1.07,1.31
17.100839853286743,-0.31,-0.45,1.07,1.2
17.114017963409424,-0.3,-0.24,0.92,0.99
17.126949071884155,-0.26,-0.08,0.72,0.76
17.130213975906372,-0.26,0.07,0.73,0.77
17.14070701599121,-0.33,0.22,1.02,1.09
17.150702953338623,-0.36,0.43,1.45,1.55
17.160778999328613,-0.35,0.66,1.83,1.97
17.172733068466187,-0.35,0.83,1.97,2.16
17.182090044021606,-0.39,0.97,1.88,2.15
17.191761016845703,-0.46,1.07,1.64,2.01
17.20107102394104,-0.58,1.14,1.44,1.92
17.213855981826782,-0.75,1.16,1.32,1.91
17.226510047912598,-0.8,1.26,1.32,1.99
17.229591131210327,-0.52,1.6,1.74,2.42
17.23959994316101,-0.25,2.24,2.83,3.61
17.25113606452942,-0.18,2.63,4.15,4.91
17.261223077774048,0.05,2.74,4.94,5.64
17.2725989818573,0.43,2.9,4.49,5.36
17.28118586540222,0.77,2.82,2.84,4.07
17.29090189933777,0.7,2.89,0.88,3.1
17.30062198638916,0.42,2.89,-0.56,2.97
17.312675952911377,-0.07,2.3,-1.29,2.63
17.32402205467224,-0.2,1.48,-1.66,2.23
17.329779863357544,-0.11,0.75,-2.12,2.25
17.34114098548889,-0.14,0.17,-2.74,2.74
17.35096287727356,-0.19,-0.31,-3.4,3.41
17.360973119735718,-0.16,-0.74,-3.91,3.98
17.37211012840271,-0.1,-1.17,-4.1,4.26
17.380964994430542,0.14,-1.53,-3.77,4.07
17.390876054763794,0.38,-1.79,-3.07,3.57
17.400604009628296,0.57,-1.9,-2.33,3.06
17.412841081619263,0.88,-1.81,-1.49,2.5
17.428061962127686,1.09,-1.54,-0.59,1.97
17.43081498146057,1.0,-1.08,0.27,1.49
17.441131830215454,0.85,-0.61,0.91,1.38
17.45089101791382,0.6,-0.15,1.14,1.29
17.46133804321289,0.28,0.28,0.89,0.97
17.472442865371704,0.01,0.62,0.19,0.64
17.48096013069153,-0.24,0.74,-0.64,1.0
17.490813970565796,-0.54,0.5,-1.14,1.35
17.501235008239746,-0.7,-0.01,-1.09,1.29
17.513543844223022,-0.67,-0.57,-0.69,1.11
17.530104875564575,-0.64,-1.06,-0.37,1.29
17.532347917556763,-0.51,-1.37,-0.21,1.47
17.54108691215515,-0.33,-1.52,-0.1,1.55
17.55089497566223,-0.18,-1.55,-0.08,1.56
17.561743021011353,-0.1,-1.47,-0.25,1.49
17.57370901107788,-0.02,-1.38,-0.49,1.46
17.581243991851807,0.01,-1.32,-0.65,1.47
17.591310024261475,-0.05,-1.23,-0.75,1.44
17.602564096450806,-0.18,-1.16,-0.78,1.4
17.616356134414673,-0.27,-1.11,-0.74,1.36
17.627892017364502,-0.33,-1.11,-0.64,1.32
17.630908966064453,-0.3,-1.19,-0.44,1.3
17.640504121780396,-0.23,-1.21,-0.24,1.25
17.650663137435913,-0.14,-1.17,-0.05,1.17
17.660753965377808,0.01,-1.0,0.09,1.0
17.67298197746277,0.13,-0.75,0.31,0.82
17.68121886253357,0.19,-0.5,0.62,0.81
17.69119095802307,0.3,-0.23,0.99,1.05
17.70136284828186,0.42,0.08,1.45,1.51
17.713384866714478,0.6,0.35,1.85,1.97
17.727766036987305,0.76,0.61,2.08,2.29
17.73131012916565,0.84,0.84,2.1,2.41
17.739560842514038,0.91,0.98,1.9,2.32
17.75178098678589,0.92,1.05,1.59,2.11
17.76169991493225,0.91,1.08,1.38,1.97
17.773327112197876,0.86,1.17,1.39,2.01
17.781298875808716,0.97,1.4,1.54,2.29
17.791704893112183,1.23,1.89,1.91,2.95
17.801296949386597,1.24,2.63,2.74,3.99
17.814450979232788,1.04,3.1,3.78,4.99
17.82797408103943,0.52,3.16,4.36,5.4
17.830965042114258,-0.12,3.3,4.07,5.24
17.840824842453003,-0.72,3.31,2.86,4.43
17.850823163986206,-0.99,3.06,1.41,3.51
17.860986948013306,-0.88,2.43,-0.08,2.58
17.87200093269348,-0.84,1.85,-1.35,2.43
17.880947828292847,-0.99,1.2,-2.12,2.62
17.89087414741516,-0.95,0.38,-2.45,2.65
17.900924921035767,-0.87,-0.32,-2.62,2.77
17.915330171585083,-0.66,-0.79,-2.84,3.02
17.926442861557007,-0.33,-1.12,-3.03,3.24
17.93062400817871,-0.09,-1.4,-3.16,3.45
17.94022798538208,0.18,-1.64,-3.14,3.54
17.950895071029663,0.29,-1.85,-2.8,3.36
17.96094298362732,0.34,-2.02,-2.0,2.86
17.971821069717407,0.21,-2.11,-0.97,2.33
17.98095393180847,-0.12,-2.07,-0.02,2.07
17.99081015586853,-0.62,-1.93,0.69,2.14
18.0018470287323,-0.99,-1.65,1.01,2.17
18.0125789642334,-1.35,-0.91,0.99,1.9
18.027678966522217,-1.2,0.04,0.7,1.38
18.030745029449463,-0.69,0.8,0.33,1.1
18.040884017944336,-0.18,1.33,-0.25,1.36
18.051050901412964,0.29,1.39,-1.05,1.76
18.061126947402954,0.7,1.21,-1.49,2.04
18.073437929153442,0.64,0.59,-1.67,1.88
18.081498861312866,0.34,-0.22,-1.68,1.72
18.091825008392334,0.08,-0.89,-1.53,1.77
18.101541996002197,-0.12,-1.45,-1.42,2.03
18.11596417427063,-0.13,-1.78,-1.18,2.13
18.128145933151245,-0.06,-1.95,-0.82,2.11
18.13050389289856,-0.1,-2.04,-0.49,2.1
18.14100193977356,-0.2,-2.05,-0.27,2.07
18.15106701850891,-0.35,-1.96,-0.21,2.0
18.160908937454224,-0.43,-1.88,-0.21,1.93
18.17410898208618,-0.35,-1.83,-0.24,1.87
18.181638956069946,-0.11,-1.7,-0.09,1.7
18.191995859146118,-0.05,-1.61,0.06,1.61
18.201828956604004,-0.05,-1.58,0.17,1.58
18.217177152633667,-0.04,-1.57,0.29,1.59
18.220870971679688,-0.02,-1.32,0.38,1.37
18.231369972229004,-0.05,-0.87,0.44,0.97
18.241027116775513,-0.01,-0.43,0.64,0.77
18.251068830490112,-0.03,-0.04,1.09,1.09
18.26119303703308,-0.11,0.29,1.62,1.64
18.27353310585022,-0.18,0.58,2.04,2.12
18.281490087509155,-0.28,0.8,2.2,2.35
18.29192304611206,-0.36,0.95,2.01,2.25
18.301225900650024,-0.45,1.07,1.68,2.04
18.31381392478943,-0.63,1.17,1.42,1.94
18.32054901123047,-0.84,1.23,1.28,1.96
18.33057188987732,-1.0,1.29,1.23,2.04
18.340000867843628,-0.92,1.4,1.36,2.15
18.351617097854614,-0.54,1.88,1.79,2.65
18.362126111984253,-0.15,2.57,2.76,3.77
18.371479988098145,0.21,2.76,4.05,4.9
18.3818039894104,0.5,2.75,4.76,5.51
18.391891956329346,0.95,2.8,4.21,5.14
18.40160584449768,1.17,2.71,2.42,3.81
18.413100957870483,0.94,2.63,0.4,2.82
18.420397996902466,0.47,2.5,-0.87,2.68
18.430026054382324,-0.08,1.9,-1.3,2.3
18.442117929458618,-0.11,1.11,-1.36,1.75
18.45132613182068,0.1,0.37,-1.56,1.6
18.46190595626831,0.17,-0.25,-2.06,2.08
18.47108483314514,0.17,-0.73,-2.72,2.82
18.482184171676636,0.13,-1.11,-3.36,3.54
18.49306082725525,0.25,-1.44,-3.67,3.95
18.501821994781494,0.52,-1.67,-3.45,3.86
18.516975164413452,0.52,-1.7,-3.0,3.48
18.52121615409851,0.64,-1.58,-2.33,2.88
18.530879974365234,0.86,-1.24,-1.43,2.07
18.541239023208618,0.78,-0.73,-0.45,1.15
18.55127215385437,0.53,-0.06,0.45,0.69
18.561297178268433,0.26,0.62,1.13,1.31
18.571084022521973,0.08,1.14,1.33,1.75
18.58199191093445,0.05,1.45,0.86,1.68
18.592600107192993,-0.12,1.38,-0.17,1.39
18.60167098045349,-0.38,0.83,-1.1,1.42
18.616601943969727,-0.55,0.07,-1.57,1.66
18.62122893333435,-0.71,-0.62,-1.75,1.98
18.630205869674683,-0.71,-1.17,-1.66,2.15
18.641083002090454,-0.56,-1.62,-1.29,2.14
18.651227951049805,-0.38,-1.94,-0.81,2.13
18.661283016204834,-0.2,-2.17,-0.34,2.2
18.67125701904297,-0.11,-2.26,-0.08,2.26
18.681318044662476,-0.09,-2.15,0.0,2.15
18.692800998687744,-0.13,-1.99,-0.08,1.99
18.701380014419556,-0.12,-1.69,-0.25,1.71
18.71556782722473,-0.17,-1.39,-0.33,1.43
18.721171140670776,-0.15,-1.18,-0.25,1.21
18.73096489906311,-0.28,-1.04,-0.15,1.08
18.741410970687866,-0.19,-1.03,-0.11,1.05
18.751166105270386,-0.02,-1.16,0.01,1.16
18.761250972747803,0.06,-1.21,0.0,1.21
18.771043062210083,0.25,-1.16,-0.02,1.18
18.781327962875366,0.32,-0.89,0.0,0.94
18.792640924453735,0.37,-0.6,0.25,0.74
18.802073001861572,0.45,-0.28,0.7,0.87
18.814865827560425,0.49,0.05,1.28,1.37
18.820896863937378,0.49,0.43,1.8,1.91
18.830610036849976,0.49,0.82,2.05,2.26
18.841707944869995,0.58,1.16,2.08,2.45
18.851199865341187,0.59,1.36,1.84,2.36
18.861073970794678,0.54,1.45,1.53,2.17
18.871114015579224,0.53,1.39,1.3,1.97
18.881458044052124,0.56,1.26,1.2,1.82
18.893455028533936,0.73,1.17,1.25,1.86
18.90159010887146,0.99,1.29,1.4,2.14
18.914832830429077,1.27,1.81,1.86,2.88
18.921138048171997,1.26,2.46,2.77,3.91
18.930867910385132,0.95,2.59,3.75,4.65
18.941751956939697,0.49,2.53,4.07,4.81
18.951401948928833,-0.13,2.62,3.31,4.22
18.96110987663269,-0.61,2.71,1.72,3.26
18.97113800048828,-0.76,2.49,0.05,2.6
18.98120903968811,-0.78,1.95,-1.29,2.46
18.99388289451599,-0.96,1.35,-2.19,2.74
19.001384019851685,-0.96,0.6,-2.6,2.83
19.016263961791992,-1.02,0.02,-2.71,2.89
19.021278142929077,-1.09,-0.43,-2.77,3.0
19.030794858932495,-0.85,-0.71,-2.79,3.0
19.04197382926941,-0.72,-1.0,-2.68,2.94
19.051366090774536,-0.57,-1.21,-2.48,2.81
19.061378955841064,-0.41,-1.36,-2.13,2.56
19.071426153182983,-0.52,-1.41,-1.59,2.18
19.08227515220642,-0.54,-1.29,-0.7,1.56
19.093211889266968,-0.54,-0.85,0.3,1.05
19.102245092391968,-0.73,-0.23,0.9,1.18
19.115581035614014,-0.78,0.31,0.82,1.17
19.12125301361084,-0.67,0.71,0.35,1.03
19.1312038898468,-0.3,0.98,-0.2,1.04
19.142303943634033,0.0,1.11,-0.75,1.33
19.15149712562561,0.58,0.89,-1.09,1.52
19.1613130569458,0.77,0.6,-1.23,1.57
19.171288013458252,0.74,0.03,-1.32,1.51
19.181351900100708,0.72,-0.57,-1.26,1.55
19.193591833114624,0.59,-1.2,-1.17,1.77
19.201267957687378,0.53,-1.69,-1.19,2.13
19.215702056884766,0.4,-2.07,-1.11,2.38
19.221266984939575,0.24,-2.23,-0.97,2.44
19.230967044830322,0.08,-2.13,-0.81,2.28
19.24198603630066,-0.05,-1.96,-0.57,2.04
19.251440048217773,-0.14,-1.79,-0.37,1.83
19.261289834976196,-0.18,-1.62,-0.33,1.66
19.27003002166748,-0.2,-1.4,-0.32,1.44
19.282307863235474,-0.17,-1.22,-0.34,1.27
19.294102907180786,-0.06,-1.12,-0.29,1.15
19.301704168319702,0.0,-1.08,-0.06,1.08
19.31506609916687,-0.04,-1.02,0.2,1.04
19.321326971054077,-0.11,-1.01,0.37,1.08
19.33092999458313,0.0,-0.97,0.48,1.08
19.34150505065918,0.02,-0.83,0.62,1.03
19.35086989402771,0.06,-0.59,0.89,1.06
19.361101865768433,0.06,-0.3,1.36,1.39
19.37138795852661,-0.02,0.01,1.82,1.82
19.381344079971313,-0.01,0.36,2.09,2.12
19.39434790611267,0.11,0.58,2.07,2.15
19.401728868484497,0.05,0.94,1.84,2.06
19.415132999420166,-0.22,1.19,1.33,1.79
19.42131996154785,-0.36,1.22,0.76,1.48
19.431712865829468,-0.55,1.14,0.51,1.36
19.442530870437622,-0.75,0.98,0.57,1.35
19.45150113105774,-0.82,0.85,0.81,1.43
19.461441040039062,-0.72,1.11,1.29,1.84
19.471407175064087,-0.66,1.74,2.08,2.79
19.482545137405396,-0.35,2.72,3.68,4.58
19.494208097457886,0.47,3.26,5.3,6.24
19.501702070236206,0.88,3.26,5.04,6.06
19.516316175460815,1.0,3.31,3.13,4.66
19.521447896957397,0.85,3.19,0.79,3.39
19.532207012176514,0.69,2.73,-0.89,2.95
19.54228901863098,0.63,2.15,-1.72,2.82
19.551481008529663,0.81,1.61,-2.39,2.99
19.56133794784546,0.77,1.14,-2.84,3.15
19.571502923965454,0.13,0.57,-2.91,2.96
19.58235812187195,-0.65,-0.28,-3.04,3.12
19.594330072402954,-0.55,-0.83,-3.59,3.72
19.60188317298889,-0.49,-1.08,-3.67,3.85
19.616034030914307,-0.5,-1.51,-3.26,3.62
19.6214120388031,-0.29,-1.62,-2.07,2.64
19.631556034088135,-0.17,-1.59,0.32,1.63
19.64180898666382,0.44,-1.37,2.45,2.84
19.651546955108643,0.39,-0.92,1.51,1.81
19.66119408607483,0.39,-0.09,-0.08,0.4
19.6715829372406,0.85,0.64,-0.84,1.35
19.681476831436157,1.18,1.07,-1.08,1.92
19.692420959472656,0.1,1.15,-0.86,1.43
19.701519012451172,0.21,1.1,-0.51,1.23
19.715139150619507,0.0,0.6,-0.87,1.05
19.721479177474976,-0.68,0.05,-1.34,1.5
19.73131012916565,-0.74,-0.52,-1.26,1.55
19.74203085899353,-0.98,-0.96,-1.23,1.84
19.751513957977295,-1.11,-1.41,-1.22,2.16
19.761481046676636,-0.78,-1.79,-1.02,2.2
19.771602869033813,-0.42,-1.87,-0.87,2.1
19.781249046325684,0.12,-1.87,-0.4,1.91
19.79308009147644,-0.13,-1.92,-0.41,1.96
19.802109003067017,-0.26,-1.7,-0.46,1.78
19.81548500061035,-0.11,-1.44,-0.21,1.45
19.82141613960266,-0.19,-1.22,-0.26,1.26
19.83216094970703,-0.22,-0.93,-0.12,0.96
19.842286825180054,-0.06,-0.83,-0.21,0.85
19.851657152175903,0.02,-0.75,-0.4,0.85
19.8614661693573,0.23,-0.79,-0.44,0.93
19.87149405479431,0.27,-0.91,-0.27,0.98
19.881590127944946,0.13,-1.02,-0.12,1.03
19.89240288734436,0.34,-0.96,-0.02,1.01
19.901592016220093,0.35,-0.76,0.26,0.87
19.915672063827515,0.28,-0.61,0.48,0.82
19.921499013900757,0.31,-0.31,0.73,0.85
19.932530164718628,0.33,-0.03,1.03,1.08
19.9409921169281,0.31,0.34,1.27,1.35
19.951749086380005,0.33,0.7,1.29,1.5
19.96145510673523,0.38,0.93,1.15,1.52
19.971549034118652,0.45,1.11,1.05,1.59
19.981606006622314,0.43,1.19,1.11,1.68
19.99134397506714,0.43,1.25,1.19,1.77
20.00235104560852,0.45,1.27,1.15,1.77
20.014803171157837,0.51,1.31,1.22,1.86
20.021561861038208,0.52,1.58,1.71,2.38
20.032838106155396,0.41,2.2,3.28,3.97
20.041423082351685,0.37,2.8,4.09,4.97
20.05170702934265,0.08,2.63,2.44,3.58
20.061530828475952,0.1,2.43,1.95,3.11
20.071362018585205,0.05,2.43,2.03,3.16
20.081675052642822,-0.22,2.25,1.22,2.56
20.09387183189392,-0.47,1.98,0.45,2.08
20.102076053619385,-0.69,1.73,-0.03,1.86
20.11626696586609,-0.89,1.39,-0.55,1.73
20.121576070785522,-1.09,0.87,-1.23,1.85
20.133403062820435,-1.17,0.26,-1.83,2.18
20.141588926315308,-1.35,-0.17,-2.15,2.54
20.15182900428772,-1.21,-0.55,-2.38,2.72
20.16150212287903,-0.97,-0.84,-2.56,2.86
20.171682119369507,-0.78,-1.12,-2.37,2.73
20.182708024978638,-0.69,-1.29,-1.89,2.39
20.1937038898468,-0.7,-1.29,-1.2,1.89
20.202635049819946,-0.75,-0.95,-0.55,1.32
20.216052055358887,-0.93,-0.4,-0.09,1.01
20.22176194190979,-0.99,0.21,0.19,1.02
20.233411073684692,-0.84,0.7,0.17,1.1
20.241563081741333,-0.57,0.95,-0.12,1.11
20.251650094985962,-0.3,1.04,-0.51,1.19
20.261532068252563,-0.11,0.88,-0.86,1.23
20.271694898605347,0.15,0.37,-0.9,0.98
20.281575918197632,0.17,-0.06,-0.75,0.77
20.29403305053711,0.11,-0.47,-0.75,0.89
20.302248001098633,0.05,-0.89,-0.76,1.17
20.31579613685608,-0.08,-1.25,-0.89,1.53
20.321708917617798,-0.11,-1.6,-0.99,1.88
20.33380389213562,-0.09,-1.85,-1.06,2.13
20.34163212776184,-0.04,-1.99,-1.11,2.27
20.35174584388733,-0.02,-1.97,-1.07,2.24
20.36156702041626,-0.04,-1.78,-0.88,1.98
20.371605157852173,0.08,-1.58,-0.71,1.73
20.381652116775513,0.14,-1.37,-0.62,1.51
20.394479990005493,0.07,-1.16,-0.72,1.36
20.402235984802246,0.09,-1.05,-0.82,1.33
20.415948152542114,0.1,-0.98,-0.82,1.28
20.42171311378479,0.06,-0.95,-0.76,1.21
20.433563947677612,0.01,-0.89,-0.59,1.06
20.44103217124939,-0.08,-0.85,-0.43,0.95
20.455806970596313,-0.15,-0.71,-0.2,0.75
20.46165704727173,-0.26,-0.48,0.2,0.58
20.471762895584106,-0.29,-0.18,0.69,0.76
20.482693910598755,-0.35,0.06,1.07,1.12
20.49201202392578,-0.4,0.22,1.28,1.35
20.50267004966736,-0.43,0.35,1.31,1.42
20.515435934066772,-0.47,0.47,1.28,1.44
20.521901845932007,-0.5,0.6,1.34,1.55
20.534435987472534,-0.56,0.71,1.45,1.7
20.541623830795288,-0.62,0.82,1.6,1.9
20.551871061325073,-0.67,0.91,1.66,2.0
20.561866998672485,-0.72,0.95,1.52,1.93
20.57187294960022,-0.68,0.99,1.35,1.8
20.58244800567627,-0.48,1.39,1.76,2.29
20.59227705001831,-0.3,2.01,3.03,3.64
20.602252960205078,-0.14,2.44,3.77,4.49
20.615710973739624,0.14,2.5,2.9,3.83
20.621751070022583,0.51,2.7,2.15,3.48
20.633749961853027,0.69,2.98,1.84,3.56
20.64122986793518,0.56,2.86,1.14,3.12
20.651828050613403,0.34,2.39,0.32,2.43
20.661895036697388,0.34,1.92,0.01,1.94
20.67177104949951,0.32,1.38,-0.47,1.49
20.68178391456604,0.33,0.86,-1.21,1.52
20.693182945251465,0.28,0.38,-1.86,1.91
20.7028591632843,0.2,-0.15,-2.44,2.45
20.716190099716187,0.09,-0.55,-2.82,2.87
20.721869945526123,-0.07,-0.9,-3.01,3.14
20.734935998916626,-0.07,-1.27,-2.93,3.19
20.741727113723755,-0.01,-1.44,-2.44,2.83
20.751900911331177,0.06,-1.47,-1.82,2.34
20.76240301132202,0.23,-1.29,-1.19,1.77
20.7719509601593,0.31,-0.92,-0.63,1.15
20.78259587287903,0.32,-0.41,-0.13,0.53
20.791802167892456,0.32,0.19,0.21,0.42
20.802536010742188,0.4,0.75,0.4,0.93
20.816624879837036,0.49,1.17,0.37,1.32
20.821924924850464,0.47,1.46,0.07,1.53
20.83483099937439,0.32,1.45,-0.37,1.53
20.841767072677612,0.3,1.01,-0.56,1.19
20.851924180984497,0.08,0.53,-0.61,0.81
20.862594842910767,-0.18,0.08,-0.63,0.66
20.871978044509888,-0.37,-0.34,-0.68,0.84
20.88183903694153,-0.49,-0.67,-0.73,1.1
20.89150309562683,-0.49,-0.94,-0.77,1.31
20.901932954788208,-0.45,-1.12,-0.79,1.44
20.91511607170105,-0.4,-1.23,-0.79,1.51
20.921885013580322,-0.28,-1.16,-0.75,1.4
20.934980154037476,-0.18,-1.02,-0.63,1.21
20.941310167312622,-0.1,-0.91,-0.44,1.01
20.951948881149292,-0.05,-0.84,-0.38,0.92
20.962515115737915,-0.04,-0.84,-0.44,0.94
20.971971035003662,0.0,-0.88,-0.58,1.05
20.98186182975769,0.06,-0.92,-0.69,1.15
20.99288296699524,0.09,-0.95,-0.74,1.2
21.001734018325806,0.14,-0.96,-0.76,1.23
21.0197651386261,0.1,-0.97,-0.7,1.2
21.02143406867981,0.08,-0.98,-0.54,1.12
21.031437158584595,0.11,-0.88,-0.29,0.93
21.041898012161255,0.2,-0.64,-0.1,0.67
21.051957845687866,0.29,-0.37,0.09,0.47
21.06281805038452,0.4,-0.15,0.32,0.53
21.072057008743286,0.49,0.1,0.39,0.63
21.082977056503296,0.53,0.3,0.5,0.78
21.0920889377594,0.63,0.5,0.69,1.05
21.102638006210327,0.75,0.76,0.89,1.39
21.116461038589478,0.79,0.97,1.03,1.62
21.12197184562683,0.81,1.09,1.1,1.74
21.135996103286743,0.83,1.11,1.16,1.8
21.141777992248535,0.91,1.14,1.33,1.97
21.151929140090942,1.03,1.43,1.77,2.49
21.16293215751648,0.97,2.17,2.64,3.55
21.173001050949097,0.89,2.95,2.99,4.29
21.182250022888184,0.52,2.79,2.1,3.53
21.192320108413696,0.32,2.4,1.51,2.85
21.20252299308777,0.25,2.18,1.27,2.53
21.216389894485474,0.09,1.93,0.37,1.96
21.222023010253906,-0.05,1.76,-0.36,1.79
21.235558032989502,-0.14,1.68,-0.39,1.73
21.241883993148804,-0.11,1.47,-0.3,1.5
21.25196599960327,-0.09,0.87,-0.45,0.98
21.26286482810974,-0.3,0.18,-0.76,0.83
21.271971940994263,-0.29,-0.16,-1.17,1.21
21.28195309638977,-0.21,-0.31,-1.63,1.67
21.293275117874146,-0.25,-0.33,-2.01,2.05
21.302666902542114,-0.3,-0.42,-2.18,2.24
21.31649613380432,-0.33,-0.7,-2.03,2.17
21.321979999542236,-0.46,-1.0,-1.77,2.08
21.336323976516724,-0.64,-1.19,-1.42,1.96
21.341956853866577,-0.88,-1.15,-0.96,1.73
21.352007150650024,-1.01,-0.93,-0.33,1.41
21.36293601989746,-1.11,-0.5,0.27,1.24
21.371989965438843,-1.18,0.09,0.65,1.35
21.382578134536743,-1.15,0.73,0.67,1.51
21.392776012420654,-0.99,1.26,0.43,1.65
21.403007984161377,-0.82,1.63,0.18,1.83
21.41726517677307,-0.64,1.78,-0.06,1.89
21.42190194129944,-0.4,1.47,-0.25,1.54
21.43653702735901,-0.25,0.96,-0.27,1.02
21.44201111793518,-0.2,0.46,-0.3,0.58
21.45207190513611,-0.12,0.03,-0.4,0.41
21.464107036590576,-0.02,-0.33,-0.55,0.64
21.472058057785034,0.02,-0.58,-0.65,0.87
21.481999158859253,0.03,-0.73,-0.73,1.03
21.49282717704773,0.01,-0.8,-0.78,1.11
21.502871990203857,-0.06,-0.79,-0.86,1.16
21.51711392402649,-0.11,-0.74,-0.91,1.17
21.52204394340515,-0.12,-0.79,-0.94,1.23
21.536803007125854,-0.19,-0.79,-0.98,1.27
21.541982889175415,-0.21,-0.76,-1.16,1.4
21.552114009857178,-0.2,-0.79,-1.3,1.53
21.56301712989807,-0.29,-0.82,-1.34,1.59
21.57265591621399,-0.34,-0.88,-1.34,1.63
21.582806825637817,-0.34,-0.89,-1.2,1.53
21.592597007751465,-0.32,-0.83,-0.94,1.29
21.602686166763306,-0.25,-0.71,-0.55,0.93
21.62321901321411,-0.22,-0.49,-0.2,0.57
21.625067949295044,-0.24,-0.22,0.07,0.33
21.631644010543823,-0.24,0.04,0.31,0.39
21.642049074172974,-0.25,0.25,0.47,0.58
21.651957988739014,-0.25,0.4,0.58,0.74
21.664229154586792,-0.24,0.5,0.66,0.86
21.672770023345947,-0.31,0.59,0.77,1.01
21.683019876480103,-0.4,0.6,0.82,1.09
21.693340063095093,-0.48,0.55,0.87,1.13
21.70318102836609,-0.53,0.5,0.96,1.2
21.72171187400818,-0.55,0.51,1.08,1.31
21.723541021347046,-0.56,0.53,1.01,1.27
21.73176407814026,-0.56,0.58,0.87,1.18
21.741992950439453,-0.49,0.75,1.04,1.37
21.75200390815735,-0.29,1.19,1.58,1.99
21.76654601097107,-0.11,1.64,2.16,2.71
21.771973848342896,0.0,1.79,2.03,2.7
21.782582998275757,0.17,1.96,1.67,2.58
21.793540000915527,0.39,2.16,1.37,2.58
21.80215811729431,0.3,2.39,0.91,2.57
21.820348024368286,0.13,2.27,0.38,2.3
21.821887016296387,0.05,1.87,0.18,1.87
21.831310987472534,0.02,1.5,0.2,1.51
21.842116117477417,0.06,1.19,-0.03,1.19
21.852070093154907,0.17,0.8,-0.5,0.95
21.86201500892639,0.26,0.38,-1.06,1.15
21.872761011123657,0.32,0.07,-1.61,1.64
21.88323712348938,0.35,-0.12,-2.05,2.08
21.892979860305786,0.43,-0.32,-2.27,2.33
21.90262794494629,0.4,-0.48,-2.4,2.48
21.919450998306274,0.46,-0.72,-2.5,2.64
21.92170000076294,0.55,-0.94,-2.42,2.65
21.931514024734497,0.63,-1.01,-2.15,2.45
21.94214701652527,0.8,-0.86,-1.71,2.07
21.952253103256226,0.96,-0.44,-1.11,1.53
21.964882135391235,1.1,0.15,-0.55,1.23
21.97311496734619,1.17,0.77,-0.17,1.41
21.98395800590515,1.29,1.43,0.02,1.92
21.99263095855713,1.4,1.88,0.27,2.35
22.003527879714966,1.51,2.1,0.4,2.61
22.02174401283264,1.53,2.07,0.23,2.58
22.02336597442627,1.45,1.9,-0.14,2.39
22.031503915786743,1.4,1.59,-0.36,2.14
22.042057991027832,1.34,1.32,-0.45,1.93
22.052150011062622,1.24,1.04,-0.58,1.71
22.06206703186035,1.18,0.77,-0.71,1.57
22.07487416267395,0.93,0.38,-0.81,1.29
22.085445165634155,0.8,0.27,-0.8,1.16
22.09573197364807,0.69,0.21,-0.81,1.08
22.105541944503784,0.65,0.24,-0.81,1.06
22.118813037872314,0.63,0.26,-0.8,1.05
22.124676942825317,0.59,0.26,-0.89,1.09
22.138131856918335,0.62,0.27,-1.02,1.22
22.14489197731018,0.66,0.28,-1.06,1.27
22.154825925827026,0.65,0.24,-1.06,1.26
22.16541314125061,0.66,0.2,-1.09,1.28
22.17476487159729,0.67,0.2,-1.12,1.32
22.185734033584595,0.64,0.29,-1.15,1.34
22.195422887802124,0.67,0.36,-1.14,1.37
22.20547890663147,0.7,0.42,-1.11,1.37
22.218414068222046,0.77,0.48,-1.11,1.43
22.2249538898468,0.84,0.56,-1.13,1.51
22.238438844680786,0.87,0.6,-1.09,1.51
22.24488615989685,0.88,0.54,-0.99,1.43
22.254996061325073,0.98,0.48,-0.97,1.46
22.265575170516968,0.98,0.47,-1.01,1.48
22.27604603767395,0.97,0.5,-0.97,1.46
22.286031007766724,0.96,0.53,-0.75,1.32
22.29566216468811,0.92,0.52,-0.55,1.19
22.305856943130493,0.93,0.45,-0.41,1.11
22.31868004798889,0.89,0.41,-0.31,1.02
22.324856996536255,0.85,0.45,-0.29,1.0
22.338392972946167,0.79,0.53,-0.32,1.0
22.34489607810974,0.77,0.58,-0.33,1.01
22.3548481464386,0.72,0.58,-0.29,0.96
22.36558699607849,0.7,0.58,-0.15,0.92
22.37489914894104,0.69,0.61,0.09,0.92
22.38473391532898,0.67,0.68,0.23,0.98
22.396127939224243,0.64,0.79,0.47,1.12
22.4047749042511,0.62,0.99,0.86,1.45
22.418434858322144,0.58,1.12,1.1,1.67
22.42459797859192,0.48,1.12,1.08,1.62
22.439021825790405,0.41,1.05,0.83,1.39
22.444869995117188,0.36,0.93,0.43,1.08
22.454991102218628,0.31,0.84,-0.05,0.89
22.465777158737183,0.26,0.7,-0.5,0.89
22.47504687309265,0.17,0.48,-0.81,0.95
22.484694957733154,0.06,0.22,-0.93,0.95
22.495141983032227,0.04,-0.01,-0.96,0.96
22.505807161331177,0.03,-0.24,-1.0,1.02
22.51875901222229,0.05,-0.43,-1.08,1.16
22.5249240398407,0.1,-0.46,-1.15,1.24
22.53863501548767,0.15,-0.35,-1.23,1.28
22.544373035430908,0.18,-0.14,-1.33,1.34
22.55513882637024,0.2,0.09,-1.21,1.22
22.56587505340576,0.21,0.28,-1.03,1.08
22.57513689994812,0.2,0.43,-0.85,0.97
22.58619499206543,0.17,0.52,-0.66,0.85
22.595566987991333,0.16,0.53,-0.39,0.67
22.60537099838257,0.16,0.5,-0.13,0.54
22.61898899078369,0.17,0.46,0.0,0.49
22.624933004379272,0.13,0.48,-0.01,0.49
22.63885807991028,0.11,0.58,0.03,0.59
22.644413948059082,0.01,0.74,0.11,0.74
22.655012845993042,0.0,0.9,0.24,0.93
22.66572403907776,-0.02,0.98,0.31,1.02
22.67508101463318,0.0,1.0,0.29,1.04
22.68482804298401,0.02,0.97,0.22,0.99
22.695000886917114,0.07,0.98,0.11,0.98
22.70505690574646,0.12,0.96,-0.07,0.97
22.722895860671997,0.19,0.87,-0.34,0.95
22.724483013153076,0.29,0.79,-0.57,1.01
22.73452591896057,0.36,0.68,-0.82,1.12
22.745008945465088,0.42,0.6,-1.0,1.23
22.754897832870483,0.42,0.51,-1.1,1.28
22.765756845474243,0.41,0.4,-1.17,1.3
22.77521586418152,0.36,0.28,-1.13,1.21
22.784866094589233,0.26,0.21,-1.07,1.12
22.795111894607544,0.18,0.23,-0.98,1.02
22.80607295036316,0.1,0.29,-0.86,0.91
22.823647022247314,0.03,0.38,-0.78,0.86
22.82524085044861,-0.01,0.47,-0.65,0.8
22.83440089225769,-0.03,0.58,-0.54,0.79
22.844967126846313,-0.06,0.69,-0.49,0.84
22.855200052261353,-0.09,0.76,-0.46,0.89
22.865862131118774,-0.12,0.78,-0.47,0.91
22.87497901916504,-0.15,0.81,-0.47,0.94
22.884907007217407,-0.17,0.82,-0.44,0.94
22.896386861801147,-0.21,0.84,-0.52,1.01
22.90614104270935,-0.25,0.86,-0.59,1.07
22.92477798461914,-0.3,0.87,-0.52,1.05
22.92635416984558,-0.35,0.85,-0.42,1.01
22.934421062469482,-0.41,0.78,-0.44,0.98
22.94519305229187,-0.42,0.7,-0.54,0.97
22.9551739692688,-0.44,0.62,-0.6,0.96
22.9649498462677,-0.43,0.52,-0.58,0.88
22.975191831588745,-0.41,0.38,-0.59,0.81
22.98498797416687,-0.36,0.27,-0.53,0.69
22.996523141860962,-0.35,0.23,-0.42,0.59
23.005861043930054,-0.33,0.2,-0.41,0.56
23.02516484260559,-0.31,0.14,-0.46,0.57
23.026747941970825,-0.3,0.09,-0.53,0.61
23.034435033798218,-0.27,0.04,-0.61,0.66
23.045151948928833,-0.26,-0.08,-0.69,0.74
23.055044889450073,-0.26,-0.2,-0.71,0.78
23.06498694419861,-0.2,-0.28,-0.54,0.64
23.07499599456787,-0.22,-0.28,-0.29,0.45
23.08570885658264,-0.18,-0.2,0.07,0.27
23.095149993896484,-0.17,-0.04,0.41,0.44
23.10573101043701,-0.15,0.13,0.58,0.61
23.123492002487183,-0.14,0.28,0.59,0.66
23.1250741481781,-0.16,0.41,0.39,0.58
23.134588956832886,-0.19,0.47,0.11,0.51
23.145067930221558,-0.17,0.44,-0.16,0.49
23.155256986618042,-0.14,0.31,-0.43,0.54
23.165092945098877,-0.06,0.08,-0.6,0.6
23.175259828567505,0.06,-0.17,-0.61,0.63
23.18562912940979,0.23,-0.41,-0.54,0.71
23.195204973220825,0.38,-0.56,-0.4,0.78
23.206050157546997,0.41,-0.57,-0.22,0.73
23.22400999069214,0.42,-0.5,-0.03,0.65
23.225581884384155,0.39,-0.32,0.17,0.53
23.234516859054565,0.32,-0.16,0.34,0.49
23.245233058929443,0.21,-0.01,0.53,0.57
23.255348920822144,0.11,0.07,0.68,0.69
23.265115976333618,0.03,0.08,0.8,0.8
23.27618384361267,-0.04,-0.01,0.87,0.87
23.28656005859375,-0.07,-0.15,0.88,0.89
23.29529094696045,-0.04,-0.32,0.94,0.99
23.30580997467041,0.02,-0.53,1.04,1.16
23.3243510723114,0.09,-0.74,1.06,1.29
23.32594394683838,0.18,-0.91,0.99,1.35
23.334447145462036,0.24,-1.01,0.92,1.38
23.345167875289917,0.28,-1.05,0.89,1.4
23.355056047439575,0.27,-1.05,0.87,1.39
23.36486005783081,0.25,-1.0,0.87,1.34
23.375672101974487,0.24,-0.96,0.95,1.37
23.386754989624023,0.17,-0.83,1.03,1.33
23.39565396308899,0.09,-0.64,1.06,1.24
23.405871152877808,-0.02,-0.51,1.08,1.19
23.425934076309204,-0.16,-0.49,1.11,1.22
23.427659034729004,-0.27,-0.52,1.1,1.24
23.434805154800415,-0.38,-0.52,1.06,1.24
23.445430040359497,-0.47,-0.57,1.05,1.28
23.455347061157227,-0.51,-0.65,1.06,1.34
23.46496891975403,-0.51,-0.73,1.03,1.36
23.475872039794922,-0.51,-0.82,1.0,1.39
23.486500024795532,-0.5,-0.92,0.92,1.39
23.495734930038452,-0.47,-0.97,0.83,1.36
23.506108045578003,-0.45,-0.98,0.75,1.31
23.52503204345703,-0.38,-0.96,0.71,1.25
23.526653051376343,-0.35,-0.95,0.72,1.24
23.535239934921265,-0.37,-0.99,0.8,1.32
23.545449018478394,-0.38,-1.06,0.87,1.42
23.555163145065308,-0.41,-1.11,0.9,1.48
23.565140962600708,-0.45,-1.18,0.83,1.51
23.575114965438843,-0.47,-1.24,0.83,1.56
23.586939096450806,-0.48,-1.31,0.89,1.65
23.59567093849182,-0.47,-1.36,0.92,1.7
23.60590696334839,-0.46,-1.35,0.97,1.72
23.624920129776,-0.45,-1.32,0.96,1.69
23.62652611732483,-0.44,-1.26,0.86,1.58
23.63494896888733,-0.43,-1.23,0.73,1.49
23.645328998565674,-0.42,-1.24,0.68,1.47
23.655169010162354,-0.41,-1.26,0.69,1.49
23.665215015411377,-0.38,-1.28,0.73,1.52
23.67535090446472,-0.35,-1.3,0.84,1.58
23.685593843460083,-0.36,-1.29,0.94,1.63
23.696699857711792,-0.35,-1.25,1.03,1.65
23.706576108932495,-0.34,-1.14,1.13,1.64
23.724040031433105,-0.3,-1.0,1.19,1.58
23.72561287879944,-0.28,-0.85,1.26,1.54
23.735102891921997,-0.26,-0.7,1.38,1.56
23.745305061340332,-0.22,-0.54,1.47,1.58
23.755192041397095,-0.18,-0.39,1.53,1.58
23.765146017074585,-0.14,-0.27,1.54,1.56
23.774790048599243,-0.09,-0.19,1.54,1.55
23.785995960235596,-0.02,-0.14,1.49,1.49
23.795356035232544,0.08,-0.11,1.44,1.44
23.805307149887085,0.2,-0.05,1.31,1.32
23.816280126571655,0.27,-0.01,1.16,1.19
23.825042963027954,0.3,0.02,1.09,1.13
23.835511922836304,0.29,0.1,1.03,1.07
23.84490704536438,0.3,0.23,1.07,1.13
23.85471796989441,0.32,0.45,1.3,1.41
23.865216970443726,0.28,0.74,1.82,1.98
23.875339031219482,0.14,0.95,2.34,2.52
23.886181116104126,-0.08,0.92,2.44,2.6
23.896281003952026,-0.2,0.83,2.31,2.46
23.905616998672485,-0.2,0.88,2.28,2.45
23.924833059310913,-0.17,1.0,2.06,2.29
23.926265001296997,-0.17,0.98,1.54,1.83
23.935664892196655,-0.21,0.87,1.1,1.41
23.945312976837158,-0.17,0.85,0.9,1.24
23.9552481174469,-0.2,0.85,0.8,1.18
23.96526598930359,-0.26,0.79,0.59,1.01
23.9752938747406,-0.19,0.66,0.25,0.73
23.986223936080933,-0.01,0.51,-0.2,0.54
23.996410131454468,0.16,0.38,-0.63,0.75
24.005735158920288,0.32,0.19,-1.04,1.1
24.024574041366577,0.43,-0.08,-1.38,1.44
24.026185035705566,0.49,-0.43,-1.63,1.75
24.035785913467407,0.46,-0.75,-1.81,2.01
24.045478105545044,0.37,-1.06,-1.87,2.18
24.05548405647278,0.19,-1.36,-1.73,2.2
24.06531596183777,-0.04,-1.55,-1.41,2.09
24.07550883293152,-0.25,-1.75,-0.92,1.99
24.08625292778015,-0.53,-1.83,-0.49,1.96
24.096821069717407,-0.76,-1.81,-0.17,1.97
24.106109857559204,-1.12,-1.51,0.12,1.88
24.125489950180054,-1.28,-1.14,0.38,1.75
24.127076864242554,-1.34,-0.75,0.72,1.69
24.135677099227905,-1.36,-0.38,1.01,1.73
24.14554715156555,-1.27,-0.06,1.07,1.66
24.15540099143982,-1.12,0.11,0.88,1.42
24.165377855300903,-0.86,0.17,0.62,1.07
24.176131010055542,-0.59,0.17,0.16,0.63
24.187711000442505,-0.34,0.07,-0.23,0.41
24.19604516029358,-0.16,-0.19,-0.51,0.56
24.205981969833374,-0.07,-0.5,-0.73,0.88
24.225661039352417,0.07,-0.82,-0.74,1.1
24.227235078811646,0.1,-1.13,-0.62,1.29
24.235628843307495,-0.01,-1.41,-0.62,1.54
24.24549889564514,-0.12,-1.58,-0.72,1.74
24.255424976348877,-0.24,-1.69,-0.77,1.87
24.26552700996399,-0.38,-1.81,-0.74,1.99
24.27551293373108,-0.5,-1.85,-0.62,2.01
24.288535833358765,-0.55,-1.84,-0.39,1.95
24.29600501060486,-0.56,-1.77,-0.09,1.85
24.30623698234558,-0.5,-1.7,0.15,1.77
24.32451605796814,-0.44,-1.64,0.24,1.71
24.326165914535522,-0.34,-1.49,0.27,1.55
24.335952043533325,-0.36,-1.26,0.26,1.33
24.34559416770935,-0.33,-1.07,0.33,1.16
24.35553288459778,-0.34,-0.88,0.5,1.06
24.36550998687744,-0.4,-0.69,0.72,1.07
24.3764009475708,-0.48,-0.43,1.03,1.21
24.387808084487915,-0.53,-0.21,1.36,1.47
24.396034955978394,-0.56,0.01,1.67,1.76
24.405805826187134,-0.56,0.2,1.78,1.87
24.42486596107483,-0.51,0.33,1.75,1.85
24.426531076431274,-0.46,0.48,1.76,1.88
24.435805082321167,-0.41,0.67,1.82,1.98
24.445031881332397,-0.38,0.84,1.94,2.14
24.455404043197632,-0.38,0.92,2.02,2.25
24.46538496017456,-0.4,0.91,2.0,2.23
24.475611925125122,-0.44,0.85,1.92,2.14
24.487854957580566,-0.38,0.92,1.97,2.2
24.49599003791809,-0.24,1.32,2.51,2.84
24.50642991065979,-0.13,1.96,3.58,4.08
24.52578902244568,-0.15,2.3,3.89,4.52
24.52737307548523,0.04,2.11,2.95,3.62
24.5358669757843,0.4,2.05,2.15,2.99
24.54503083229065,0.52,2.16,1.65,2.76
24.55547595024109,0.27,1.97,0.83,2.15
24.565521955490112,0.03,1.64,-0.06,1.64
24.575656175613403,-0.08,1.22,-0.55,1.34
24.586421966552734,-0.13,0.82,-0.8,1.15
24.59565496444702,-0.18,0.43,-1.22,1.3
24.606634855270386,-0.22,0.02,-1.73,1.74
24.624714136123657,-0.3,-0.45,-2.15,2.21
24.626354932785034,-0.32,-0.86,-2.42,2.58
24.63592791557312,-0.43,-1.06,-2.59,2.83
24.645028829574585,-0.35,-1.27,-2.61,2.92
24.65560793876648,-0.2,-1.36,-2.26,2.64
24.665534019470215,-0.06,-1.35,-1.72,2.18
24.67567801475525,0.14,-1.23,-1.19,1.71
24.686506986618042,0.34,-1.0,-0.68,1.25
24.69657802581787,0.57,-0.65,-0.2,0.88
24.70651888847351,0.71,-0.15,0.14,0.73
24.725661993026733,0.8,0.33,0.36,0.93
24.727285146713257,0.75,0.75,0.42,1.14
24.73508095741272,0.67,1.09,0.28,1.3
24.74564814567566,0.62,1.24,0.07,1.38
24.755640983581543,0.33,1.1,-0.08,1.15
24.765534162521362,0.02,0.7,-0.17,0.72
24.776667833328247,-0.27,0.23,-0.27,0.44
24.787297010421753,-0.49,-0.14,-0.42,0.66
24.796180963516235,-0.65,-0.45,-0.52,0.94
24.806753873825073,-0.71,-0.72,-0.55,1.15
24.818819999694824,-0.69,-0.92,-0.64,1.31
24.827376127243042,-0.59,-1.09,-0.65,1.39
24.83504295349121,-0.44,-1.2,-0.56,1.39
24.84577202796936,-0.26,-1.21,-0.54,1.35
24.855642080307007,-0.22,-1.13,-0.62,1.3
24.865450143814087,-0.14,-1.1,-0.69,1.3
24.875652074813843,-0.15,-1.09,-0.72,1.31
24.88863205909729,-0.22,-1.14,-0.78,1.39
24.89648699760437,-0.25,-1.27,-0.79,1.51
24.906331062316895,-0.31,-1.39,-0.76,1.61
24.919044017791748,-0.32,-1.52,-0.75,1.72
24.92773413658142,-0.34,-1.57,-0.69,1.74
24.935149908065796,-0.29,-1.52,-0.52,1.63
24.945111989974976,-0.27,-1.41,-0.28,1.46
24.955628156661987,-0.17,-1.22,-0.04,1.23
24.965641975402832,-0.05,-1.01,0.17,1.02
24.975785970687866,0.09,-0.74,0.42,0.85
24.987881898880005,0.24,-0.47,0.71,0.88
24.996084928512573,0.36,-0.17,0.95,1.03
25.006550073623657,0.53,0.1,1.17,1.28
25.019203901290894,0.66,0.34,1.3,1.49
25.027765035629272,0.72,0.55,1.44,1.7
25.035011053085327,0.72,0.72,1.49,1.8
25.04575514793396,0.64,0.86,1.51,1.85
25.055681943893433,0.5,0.94,1.58,1.9
25.065444946289062,0.37,0.94,1.67,1.95
25.076581954956055,0.29,0.93,1.71,1.96
25.086017847061157,0.29,0.97,1.81,2.07
25.096601009368896,0.37,1.28,2.14,2.52
25.10650086402893,0.38,1.95,2.98,3.58
25.126813173294067,0.24,2.56,3.22,4.12
25.128509044647217,0.08,2.57,2.72,3.74
25.135707139968872,-0.07,2.29,2.25,3.21
25.145734071731567,-0.11,2.13,1.83,2.81
25.155675172805786,-0.08,1.76,1.09,2.07
25.165662050247192,-0.01,1.45,0.46,1.52
25.175791025161743,0.02,1.26,0.34,1.3
25.18838596343994,-0.09,1.03,0.34,1.08
25.196656942367554,-0.28,0.66,-0.07,0.72
25.20679211616516,-0.51,0.16,-0.79,0.95
25.21907687187195,-0.66,-0.26,-1.55,1.7
25.227218866348267,-0.73,-0.47,-2.22,2.38
25.235265016555786,-0.72,-0.54,-2.66,2.8
25.24583888053894,-0.71,-0.58,-2.78,2.92
25.255707025527954,-0.65,-0.8,-2.62,2.81
25.265703916549683,-0.6,-1.11,-2.27,2.59
25.27590012550354,-0.51,-1.47,-1.84,2.4
25.288614988327026,-0.54,-1.71,-1.34,2.23
25.296700954437256,-0.52,-1.7,-0.68,1.9
25.307054042816162,-0.56,-1.36,0.13,1.47
25.318676948547363,-0.68,-0.8,0.55,1.18
25.327709913253784,-0.79,-0.11,0.52,0.95
25.335245847702026,-0.67,0.57,0.28,0.92
25.345815896987915,-0.51,1.24,-0.06,1.34
25.3557550907135,-0.24,1.71,-0.4,1.77
25.36579203605652,0.0,1.68,-0.46,1.74
25.375848054885864,-0.03,1.07,-0.51,1.18
25.38869595527649,-0.01,0.35,-0.46,0.57
25.396162033081055,0.03,-0.27,-0.34,0.43
25.407217979431152,0.04,-0.82,-0.39,0.9
25.418715000152588,0.12,-1.24,-0.57,1.37
25.428133964538574,0.12,-1.51,-0.89,1.75
25.435548067092896,0.12,-1.66,-0.96,1.92
25.445889949798584,0.16,-1.71,-0.83,1.9
25.455922842025757,0.17,-1.68,-0.78,1.86
25.465851068496704,0.15,-1.53,-0.74,1.7
25.476407051086426,0.13,-1.35,-0.54,1.45
25.486557006835938,0.08,-1.22,-0.26,1.24
25.49691891670227,0.01,-1.13,-0.13,1.13
25.507496118545532,-0.1,-1.03,-0.15,1.04
25.51935315132141,-0.14,-0.98,-0.08,0.99
25.52788996696472,-0.24,-1.03,-0.11,1.06
25.535885095596313,-0.3,-1.1,-0.16,1.15
25.54591393470764,-0.32,-1.07,-0.07,1.11
25.55623197555542,-0.35,-0.98,0.12,1.04
25.565886974334717,-0.41,-0.85,0.49,1.06
25.57694697380066,-0.46,-0.65,0.91,1.2
25.586003065109253,-0.51,-0.43,1.28,1.44
25.59657597541809,-0.55,-0.17,1.47,1.57
25.607332944869995,-0.54,0.14,1.43,1.53
25.61918616294861,-0.51,0.42,1.37,1.52
25.628254175186157,-0.49,0.72,1.43,1.67
25.635413885116577,-0.51,0.95,1.47,1.82
25.645853996276855,-0.59,1.09,1.42,1.88
25.656198978424072,-0.66,1.12,1.42,1.92
25.665863037109375,-0.69,1.05,1.32,1.82
25.67687201499939,-0.64,1.08,1.24,1.76
25.683495044708252,-0.63,1.1,1.21,1.75
25.694219827651978,-0.46,1.48,1.92,2.46
25.703975915908813,-0.27,2.2,3.49,4.13
25.715950965881348,-0.25,2.68,3.75,4.61
25.727678060531616,0.02,2.44,2.47,3.47
25.732587099075317,0.5,2.21,1.49,2.71
25.743280172348022,0.56,2.35,1.09,2.65
25.75303602218628,0.31,2.3,0.61,2.39
25.763298988342285,0.18,2.11,0.35,2.14
25.773279905319214,0.16,1.67,0.09,1.68
25.783329963684082,0.24,1.07,-0.47,1.19
25.79324698448181,0.38,0.62,-1.09,1.31
25.803680181503296,0.37,0.25,-1.84,1.89
25.815675020217896,0.26,-0.11,-2.55,2.56
25.827833890914917,0.1,-0.36,-2.9,2.92
25.83269715309143,-0.06,-0.66,-2.91,2.98
25.84322714805603,-0.05,-0.98,-2.6,2.77
25.8531391620636,-0.03,-1.21,-2.1,2.42
25.863299131393433,0.02,-1.38,-1.61,2.12
25.874814987182617,0.19,-1.29,-1.01,1.64
25.883611917495728,0.24,-0.96,-0.35,1.04
25.893826961517334,0.27,-0.45,0.19,0.55
25.904062032699585,0.27,0.16,0.47,0.56
25.916176080703735,0.29,0.69,0.44,0.86
25.929090976715088,0.39,1.05,0.28,1.15
25.933264017105103,0.36,1.3,-0.02,1.34
25.943339109420776,0.3,1.19,-0.35,1.27
25.953186988830566,0.18,0.79,-0.56,0.98
25.96335482597351,0.01,0.27,-0.76,0.8
25.974863052368164,-0.14,-0.24,-0.93,0.97
25.98366618156433,-0.24,-0.6,-0.96,1.15
25.99381995201111,-0.27,-0.94,-0.91,1.33
26.004371881484985,-0.22,-1.21,-0.85,1.49
26.016781091690063,-0.15,-1.42,-0.77,1.62
26.028929948806763,-0.1,-1.55,-0.72,1.71
26.03301692008972,-0.02,-1.55,-0.61,1.66
26.04331612586975,0.02,-1.45,-0.41,1.5
26.053180932998657,0.0,-1.33,-0.26,1.35
26.063288927078247,-0.03,-1.2,-0.18,1.21
26.07834792137146,-0.01,-1.0,-0.38,1.06
26.08745789527893,0.04,-1.0,-0.5,1.11
26.09890913963318,0.09,-1.03,-0.55,1.17
26.109012842178345,0.09,-1.05,-0.57,1.19
26.121090173721313,0.11,-1.04,-0.45,1.13
26.12981390953064,0.15,-0.99,-0.22,1.02
26.137145042419434,0.22,-0.86,0.07,0.89
26.14730191230774,0.3,-0.68,0.34,0.81
26.157334089279175,0.4,-0.47,0.61,0.86
26.16823983192444,0.5,-0.23,0.83,0.99
26.178079843521118,0.57,0.03,0.97,1.12
26.18793511390686,0.61,0.27,0.99,1.19
26.198487043380737,0.64,0.47,0.98,1.26
26.209308862686157,0.65,0.62,1.04,1.37
26.22105598449707,0.62,0.72,1.09,1.44
26.22970414161682,0.53,0.72,1.09,1.4
26.23724389076233,0.45,0.73,1.15,1.43
26.24732494354248,0.41,0.83,1.28,1.57
26.257415056228638,0.37,1.15,1.61,2.01
26.267504930496216,0.31,1.88,3.01,3.56
26.27733302116394,0.03,2.7,3.68,4.56
26.288602113723755,-0.28,2.67,2.37,3.58
26.298006057739258,-0.41,2.2,1.7,2.81
26.308680057525635,-0.41,2.31,1.68,2.88
26.320861101150513,-0.44,2.34,0.98,2.57
26.329206943511963,-0.49,1.99,0.24,2.06
26.337260961532593,-0.53,1.53,-0.11,1.62
26.34741497039795,-0.64,1.12,-0.33,1.33
26.357725858688354,-0.7,0.57,-0.71,1.14
26.367472887039185,-0.79,0.03,-1.19,1.42
26.378294944763184,-0.75,-0.39,-1.64,1.84
26.387773036956787,-0.68,-0.65,-1.94,2.15
26.39819598197937,-0.64,-0.78,-2.1,2.32
26.409369945526123,-0.63,-0.92,-2.17,2.43
26.42024302482605,-0.66,-1.05,-1.98,2.33
26.42995595932007,-0.8,-1.24,-1.53,2.12
26.437331914901733,-0.95,-1.32,-0.93,1.87
26.44745707511902,-0.97,-1.18,-0.38,1.57
26.457870960235596,-0.99,-0.77,-0.02,1.25
26.4675350189209,-1.0,-0.15,0.22,1.03
26.477978944778442,-0.9,0.47,0.28,1.05
26.487771034240723,-0.69,0.89,0.1,1.13
26.498227834701538,-0.49,1.3,-0.32,1.42
26.509373903274536,-0.19,1.42,-0.72,1.6
26.521003007888794,0.14,1.09,-0.75,1.33
26.53024196624756,0.13,0.55,-0.72,0.91
26.53688406944275,0.16,0.03,-0.69,0.7
26.547459840774536,0.12,-0.42,-0.61,0.75
26.55820107460022,0.02,-0.83,-0.72,1.09
26.56751799583435,-0.09,-1.1,-0.84,1.38
26.577306985855103,-0.18,-1.26,-0.82,1.51
26.588629961013794,-0.23,-1.31,-0.66,1.48
26.59830594062805,-0.28,-1.29,-0.57,1.43
26.60997986793518,-0.3,-1.23,-0.49,1.35
26.620628118515015,-0.36,-1.15,-0.49,1.3
26.630460023880005,-0.34,-1.06,-0.48,1.21
26.636877059936523,-0.32,-0.98,-0.57,1.17
26.64751887321472,-0.28,-0.96,-0.67,1.2
26.658387899398804,-0.29,-1.0,-0.66,1.23
26.66748595237732,-0.3,-1.03,-0.62,1.23
26.67742609977722,-0.32,-0.98,-0.53,1.15
26.687290906906128,-0.4,-0.89,-0.36,1.04
26.698214054107666,-0.49,-0.71,0.01,0.86
26.70924401283264,-0.62,-0.46,0.39,0.86
26.720039129257202,-0.66,-0.28,0.66,0.97
26.731027841567993,-0.73,-0.08,0.79,1.07
26.73675513267517,-0.68,0.13,0.79,1.05
26.7473361492157,-0.63,0.39,0.85,1.12
26.75846004486084,-0.55,0.56,0.95,1.23
26.767600059509277,-0.51,0.67,1.06,1.35
26.777363061904907,-0.54,0.74,1.1,1.43
26.788344144821167,-0.66,0.77,1.07,1.47
26.79831099510193,-0.8,0.73,0.97,1.45
26.8091299533844,-0.8,0.71,0.9,1.39
26.820709943771362,-0.65,1.02,1.34,1.8
26.83104109764099,-0.42,1.81,2.91,3.45
26.837361097335815,-0.46,2.32,3.91,4.56
26.847455978393555,-0.43,2.27,2.78,3.61
26.858415842056274,0.1,2.13,1.73,2.74
26.867550134658813,0.36,2.42,1.6,2.92
26.877550840377808,0.23,2.75,1.16,2.99
26.88732099533081,0.02,2.53,0.64,2.6
26.89835500717163,-0.12,1.92,0.3,1.94
26.909157037734985,-0.17,1.41,-0.24,1.44
26.919713973999023,-0.1,1.03,-0.8,1.3
26.93046498298645,-0.06,0.59,-1.25,1.38
26.93688988685608,-0.08,0.17,-1.88,1.88
26.947603940963745,-0.09,-0.23,-2.44,2.45
26.958503007888794,-0.15,-0.6,-2.81,2.87
26.96772789955139,-0.06,-0.91,-2.89,3.03
26.97759985923767,0.06,-1.14,-2.71,2.94
26.988388061523438,0.27,-1.13,-2.09,2.39
26.998167037963867,0.54,-1.03,-1.24,1.7
27.009762048721313,0.68,-0.77,-0.65,1.21
27.020534992218018,0.71,-0.29,-0.29,0.81
27.030745029449463,0.72,0.24,0.05,0.76
27.036957025527954,0.77,0.71,0.37,1.11
27.04732584953308,0.77,1.13,0.52,1.46
27.058413982391357,0.65,1.51,0.45,1.7
27.067578077316284,0.39,1.67,0.07,1.71
27.077422857284546,0.18,1.37,-0.39,1.43
27.088292837142944,-0.04,0.82,-0.55,0.98
27.098160982131958,-0.38,0.26,-0.52,0.69
27.109835863113403,-0.55,-0.22,-0.56,0.81
27.120921850204468,-0.58,-0.61,-0.76,1.13
27.131325006484985,-0.53,-0.89,-0.87,1.35
27.13739800453186,-0.35,-1.04,-0.87,1.4
27.14763617515564,-0.2,-1.16,-0.92,1.49
27.158647060394287,-0.06,-1.19,-0.94,1.51
27.167675018310547,0.11,-1.17,-0.8,1.42
27.17762017250061,0.15,-1.01,-0.62,1.19
27.18838596343994,0.17,-0.92,-0.43,1.02
27.198266983032227,0.14,-0.86,-0.33,0.93
27.209069967269897,0.1,-0.86,-0.32,0.92
27.221212148666382,0.05,-0.85,-0.42,0.94
27.231433153152466,0.03,-0.8,-0.57,0.98
27.236845016479492,0.01,-0.79,-0.57,0.97
27.247634172439575,0.03,-0.75,-0.53,0.91
27.258546113967896,0.1,-0.68,-0.35,0.77
27.267749071121216,0.2,-0.56,-0.07,0.59
27.278691053390503,0.27,-0.44,0.16,0.54
27.28773808479309,0.37,-0.23,0.27,0.51
27.298235177993774,0.48,0.04,0.32,0.57
27.309430837631226,0.53,0.29,0.47,0.76
27.321080923080444,0.54,0.59,0.59,0.99
27.332074880599976,0.54,0.84,0.66,1.19
27.33752703666687,0.38,0.93,0.7,1.22
27.347575902938843,0.24,0.88,0.78,1.2
27.358548879623413,0.17,0.79,0.8,1.13
27.36766505241394,0.16,0.68,0.79,1.05
27.377611875534058,0.26,0.56,0.81,1.01
27.387550115585327,0.35,0.55,0.8,1.03
27.397629976272583,0.47,0.77,0.96,1.31
27.409600019454956,0.69,1.25,1.55,2.1
27.41987895965576,0.75,1.7,2.81,3.36
27.431328058242798,0.4,1.86,3.76,4.21
27.437132120132446,0.22,1.74,3.3,3.73
27.44764018058777,0.1,2.02,2.36,3.1
27.458551168441772,-0.14,2.41,1.51,2.84
27.46776795387268,-0.35,2.27,0.8,2.43
27.47758984565735,-0.36,1.57,0.14,1.61
27.488474130630493,-0.47,1.03,-0.45,1.21
27.498393058776855,-0.46,0.43,-0.8,1.01
27.5096218585968,-0.44,-0.09,-1.01,1.1
27.52062201499939,-0.58,-0.52,-1.21,1.43
27.53195595741272,-0.62,-0.65,-1.48,1.73
27.537142992019653,-0.5,-0.59,-1.99,2.13
27.547531843185425,-0.5,-0.57,-2.61,2.71
27.558552026748657,-0.62,-0.49,-2.98,3.08
27.5677969455719,-0.54,-0.32,-3.13,3.19
27.577699899673462,-0.29,-0.27,-2.93,2.95
27.587639093399048,-0.11,-0.34,-2.35,2.37
27.59857201576233,-0.01,-0.48,-1.49,1.56
27.609494924545288,0.01,-0.51,-0.44,0.67
27.620596170425415,-0.14,-0.47,0.53,0.72
27.63220715522766,-0.34,-0.34,1.29,1.37
27.63717794418335,-0.53,0.14,1.78,1.86
27.647690057754517,-0.74,0.97,1.81,2.18
27.657673120498657,-0.79,1.8,1.24,2.32
27.66785502433777,-0.84,2.11,0.4,2.3
27.677765130996704,-0.71,1.95,-0.36,2.1
27.687726974487305,-0.58,1.66,-1.01,2.02
27.698601961135864,-0.43,1.03,-1.69,2.02
27.709805011749268,-0.21,0.37,-2.09,2.13
27.72002100944519,-0.02,-0.22,-2.04,2.05
27.732319116592407,0.02,-0.63,-1.73,1.84
27.737181901931763,0.04,-0.78,-1.25,1.47
27.74773383140564,0.06,-0.77,-0.55,0.94
27.757774114608765,0.08,-0.75,0.2,0.78
27.767945051193237,-0.01,-0.66,0.81,1.04
27.777760982513428,-0.1,-0.47,1.12,1.21
27.789014101028442,-0.22,-0.26,1.04,1.09
27.798527002334595,-0.28,-0.1,0.73,0.78
27.80980896949768,-0.3,-0.03,0.18,0.35
27.820995092391968,-0.32,0.07,-0.42,0.53
27.832304000854492,-0.29,0.07,-0.78,0.83
27.83729100227356,-0.24,-0.08,-0.96,0.99
27.847867965698242,-0.26,-0.16,-0.99,1.03
27.85771107673645,-0.33,-0.18,-0.9,0.97
27.867902040481567,-0.36,-0.26,-0.78,0.89
27.878407955169678,-0.34,-0.15,-0.51,0.63
27.8878071308136,-0.27,0.01,-0.14,0.3
27.898689031600952,-0.34,0.23,0.35,0.53
27.909672021865845,-0.1,0.39,0.84,0.93
27.920022010803223,-0.1,0.71,1.25,1.44
27.933069944381714,-0.07,0.87,1.38,1.63
27.937214136123657,-0.16,0.95,1.06,1.43
27.947818994522095,-0.33,0.94,0.51,1.11
27.957764863967896,-0.5,0.87,-0.22,1.02
27.967926025390625,-0.58,0.79,-0.87,1.31
27.978580951690674,-0.48,0.77,-1.29,1.57
27.987957000732422,-0.22,0.92,-1.1,1.45
27.998692989349365,-0.03,1.13,-0.1,1.13
28.008422136306763,0.08,1.16,1.37,1.79
28.021002054214478,0.07,0.92,2.45,2.61
28.033243894577026,0.03,0.75,2.88,2.97
28.037260055541992,-0.06,1.07,2.71,2.91
28.047662019729614,-0.26,1.6,1.72,2.36
28.057820081710815,-0.22,1.67,0.4,1.73
28.0679190158844,-0.73,1.27,-0.85,1.69
28.079188108444214,-0.71,1.13,-1.79,2.23
28.088195085525513,-0.53,0.96,-3.03,3.22
28.098243951797485,-0.06,0.59,-3.94,3.98
28.108399152755737,0.38,0.33,-3.9,3.93
28.12099289894104,0.48,0.08,-3.03,3.06
28.133928060531616,0.21,-0.18,-1.73,1.75
28.13738703727722,-0.15,-0.49,-0.62,0.8
28.147897005081177,-0.28,-0.68,-0.01,0.73
28.15776801109314,-0.28,-0.9,-0.06,0.94
28.16800093650818,-0.2,-1.02,-0.55,1.17
28.177755117416382,0.08,-1.02,-1.08,1.48
28.18905806541443,0.4,-0.8,-1.33,1.6
28.198510885238647,0.58,-0.45,-1.18,1.38
28.208250999450684,0.63,0.05,-0.93,1.12
28.221207857131958,0.71,0.68,-0.55,1.12
28.233376026153564,0.64,1.21,-0.25,1.39
28.237985849380493,0.54,1.76,-0.23,1.85
28.247885942459106,0.34,2.18,-0.45,2.25
28.257838010787964,0.12,2.42,-0.69,2.51
28.267925024032593,0.42,2.24,-0.51,2.33
28.27803683280945,-0.58,1.95,-0.77,2.17
28.288946866989136,-0.59,2.28,-1.35,2.71
28.298452138900757,-0.48,1.89,-1.66,2.56
28.30867099761963,-0.75,1.3,-1.61,2.2
28.32087206840515,-0.64,0.59,-1.15,1.44
28.33316397666931,-0.54,0.03,-0.83,0.99
28.337419033050537,-0.58,-0.42,-0.67,0.98
28.347895860671997,-0.45,-0.68,-0.73,1.09
28.357889890670776,-0.3,-0.62,-0.92,1.14
28.36799693107605,-0.14,-0.25,-1.07,1.1
28.378291845321655,0.02,0.1,-0.99,0.99
28.389304876327515,0.03,0.33,-0.74,0.81
28.398779153823853,0.0,0.5,-0.65,0.82
28.408490896224976,0.02,0.57,-0.82,0.99
28.42163395881653,0.05,0.53,-1.09,1.21
28.434393167495728,0.09,0.42,-1.29,1.35
28.4374680519104,0.17,0.33,-1.15,1.2
28.447958946228027,0.18,0.3,-0.78,0.85
28.45788884162903,0.25,0.31,-0.54,0.67
28.46814203262329,0.39,0.28,-0.6,0.76
28.47977900505066,0.39,0.16,-0.69,0.8
28.48801302909851,0.47,-0.02,-0.55,0.72
28.49790096282959,0.57,-0.01,0.02,0.57
28.507913827896118,0.51,0.1,0.71,0.87
28.52042317390442,0.33,0.27,0.88,0.97
28.534093141555786,0.19,0.44,0.57,0.74
28.537553071975708,0.13,0.66,0.13,0.68
28.547484159469604,0.07,1.01,-0.14,1.02
28.557989835739136,-0.01,1.32,-0.13,1.32
28.568105936050415,-0.14,1.4,-0.23,1.42
28.578756093978882,-0.21,1.34,-0.57,1.47
28.58897089958191,-0.23,1.26,-0.83,1.52
28.59841799736023,-0.18,1.13,-0.95,1.48
28.608706951141357,-0.11,0.89,-0.93,1.29
28.621444940567017,-0.07,0.58,-0.84,1.02
28.63426184654236,-0.01,0.27,-0.73,0.77
28.637434005737305,0.12,-0.06,-0.59,0.6
28.64803695678711,0.21,-0.33,-0.54,0.66
28.657992124557495,0.2,-0.49,-0.55,0.76
28.668133020401,0.17,-0.59,-0.53,0.81
28.678930044174194,0.22,-0.6,-0.45,0.78
28.689401865005493,-0.22,0.19,0.48,0.56
28.698789834976196,-0.14,0.74,0.52,0.91
28.70828890800476,0.0,0.5,0.04,0.5
28.72101616859436,0.03,0.02,-0.06,0.06
28.73427700996399,0.11,-0.03,-0.19,0.22
28.737497091293335,-0.24,-0.07,-0.49,0.55
28.74804997444153,-0.38,-0.03,-0.82,0.9
28.75812315940857,-0.36,0.08,-1.14,1.19
28.768139123916626,-0.09,0.06,-1.65,1.65
28.780171155929565,0.25,-0.24,-2.11,2.13
28.78790593147278,0.45,-0.9,-1.94,2.18
