time,ax,ay,az,atotal
0.01371002197265625,-0.11,0.11,-0.26,0.3
0.014312744140625,-0.12,0.04,-0.21,0.24
0.023632049560546875,-0.14,0.03,-0.09,0.16
0.033380985260009766,-0.16,0.03,-0.01,0.16
0.04404497146606445,-0.13,0.01,-0.04,0.13
0.05408477783203125,-0.08,-0.01,-0.02,0.08
0.06388473510742188,-0.13,-0.06,0.05,0.15
0.0739140510559082,-0.19,-0.07,0.09,0.22
0.08392691612243652,-0.23,-0.05,0.08,0.24
0.09389305114746094,-0.25,-0.04,0.06,0.26
0.10380983352661133,-0.19,-0.01,0.05,0.19
0.11397385597229004,-0.2,0.0,-0.02,0.2
0.12400484085083008,-0.19,-0.01,-0.01,0.19
0.1338798999786377,-0.15,0.01,0.02,0.15
0.14400386810302734,-0.11,0.02,0.06,0.12
0.15393304824829102,-0.04,0.03,0.03,0.05
0.16367578506469727,-0.01,0.02,0.05,0.05
0.17389202117919922,-0.05,0.03,0.08,0.09
0.18377399444580078,-0.11,0.05,0.07,0.13
0.19390583038330078,-0.07,0.04,0.03,0.08
0.20387983322143555,-0.23,-0.09,0.17,0.29
0.21373486518859863,-0.74,-0.32,0.87,1.18
0.22380304336547852,0.64,0.49,-0.74,1.09
0.23376798629760742,0.35,0.18,-0.68,0.78
0.243790864944458,-0.27,-0.11,-0.07,0.29
0.2535989284515381,0.07,0.02,-0.03,0.07
0.26339101791381836,0.02,0.07,-0.3,0.3
0.27372288703918457,-0.14,-0.03,-0.4,0.42
0.2838108539581299,-0.07,-0.01,-0.37,0.37
0.29371070861816406,-0.02,0.03,-0.34,0.34
0.30359983444213867,-0.07,-0.01,-0.28,0.28
0.3135368824005127,-0.13,-0.03,-0.18,0.22
0.32362890243530273,-0.07,0.0,-0.02,0.07
0.33342885971069336,0.0,0.03,0.14,0.14
0.34372591972351074,-0.06,-0.04,0.23,0.24
0.3535890579223633,-0.02,-0.02,0.22,0.22
0.36359500885009766,0.25,-0.29,0.55,0.67
0.3735790252685547,0.21,-0.01,1.0,1.02
0.3833479881286621,-0.74,0.45,-0.02,0.86
0.393596887588501,-0.32,0.0,-0.08,0.32
0.4034438133239746,0.01,-0.04,0.04,0.05
0.4136078357696533,-0.16,-0.04,0.13,0.21
0.4236030578613281,-0.19,-0.06,0.08,0.21
0.4333789348602295,-0.11,-0.09,-0.07,0.15
0.4434537887573242,-0.09,-0.06,-0.17,0.2
0.4533839225769043,-0.13,-0.06,-0.18,0.23
0.46341705322265625,-0.16,-0.06,-0.09,0.19
0.47357797622680664,-0.18,-0.05,-0.05,0.19
0.48343896865844727,-0.21,-0.01,-0.01,0.21
0.49355483055114746,-0.19,0.03,0.03,0.19
0.5034627914428711,-0.19,0.08,0.09,0.22
0.5134239196777344,-0.11,0.11,0.2,0.25
0.5235257148742676,0.01,0.06,0.23,0.23
0.5332469940185547,0.0,0.06,0.1,0.11
0.5433049201965332,-0.02,0.06,-0.08,0.1
0.5533747673034668,-0.04,0.03,-0.21,0.21
0.5633440017700195,0.02,0.01,-0.26,0.26
0.5734920501708984,0.05,-0.03,-0.27,0.27
0.5832729339599609,0.06,-0.01,-0.29,0.29
0.5929608345031738,0.06,-0.01,-0.25,0.25
0.6032059192657471,0.02,-0.02,-0.2,0.2
0.6133558750152588,-0.03,-0.05,-0.16,0.17
0.6231558322906494,-0.05,-0.09,-0.1,0.14
0.6331968307495117,-0.06,-0.11,-0.05,0.13
0.6431770324707031,-0.08,-0.14,-0.05,0.16
0.6532597541809082,-0.08,-0.14,-0.08,0.18
0.6631178855895996,-0.04,-0.16,-0.06,0.17
0.673292875289917,-0.01,-0.16,0.02,0.16
0.683142900466919,0.0,-0.17,0.08,0.18
0.6933660507202148,0.0,-0.16,0.07,0.17
0.7032437324523926,0.02,-0.13,0.06,0.14
0.7131998538970947,0.0,-0.14,0.12,0.18
0.7231760025024414,-0.01,-0.13,0.16,0.2
0.7331457138061523,-0.07,-0.11,0.19,0.23
0.7432489395141602,-0.08,-0.1,0.24,0.27
0.7531819343566895,-0.08,-0.09,0.35,0.37
0.7631340026855469,-0.06,-0.08,0.4,0.41
0.7732539176940918,-0.03,-0.08,0.33,0.34
0.7832527160644531,0.02,-0.08,0.22,0.23
0.7933769226074219,0.01,-0.06,0.16,0.17
0.8032188415527344,0.0,-0.09,0.18,0.2
0.8132889270782471,-0.02,-0.09,0.2,0.22
0.8231158256530762,-0.02,-0.07,0.21,0.22
0.8332037925720215,0.02,-0.05,0.21,0.21
0.8431708812713623,-0.01,-0.02,0.16,0.16
0.8529777526855469,-0.11,-0.03,0.19,0.22
0.8629837036132812,-0.1,-0.07,0.25,0.27
0.873075008392334,-0.03,-0.12,0.22,0.25
0.8831448554992676,-0.03,-0.15,0.1,0.18
0.8930408954620361,-0.09,-0.15,0.12,0.21
0.9031238555908203,-0.16,-0.18,0.27,0.36
0.9131238460540771,-0.26,-0.21,0.35,0.48
0.9230737686157227,-0.26,-0.2,0.35,0.47
0.932981014251709,-0.19,-0.19,0.33,0.42
0.9425258636474609,-0.17,-0.18,0.39,0.46
0.952085018157959,-0.19,-0.17,0.46,0.52
0.962188720703125,-0.2,-0.14,0.52,0.57
0.9726228713989258,-0.21,-0.09,0.53,0.57
0.9821939468383789,-0.22,-0.06,0.53,0.57
0.9919629096984863,-0.24,-0.05,0.51,0.56
1.0019848346710205,-0.27,-0.05,0.39,0.47
1.0121378898620605,-0.29,-0.06,0.35,0.45
1.0227470397949219,-0.25,-0.06,0.35,0.43
1.0328178405761719,-0.23,-0.05,0.32,0.39
1.0420928001403809,-0.25,-0.01,0.29,0.38
1.052130937576294,-0.3,-0.04,0.36,0.47
1.0621867179870605,-0.34,-0.08,0.49,0.6
1.072145938873291,-0.36,-0.15,0.56,0.68
1.0823259353637695,-0.36,-0.22,0.54,0.68
1.0927438735961914,-0.41,-0.28,0.56,0.74
1.1025278568267822,-0.46,-0.34,0.63,0.85
1.1124520301818848,-0.52,-0.39,0.65,0.91
1.1228978633880615,-0.61,-0.43,0.61,0.96
1.132779836654663,-0.61,-0.43,0.63,0.97
1.1420118808746338,-0.61,-0.36,0.7,0.99
1.151911735534668,-0.63,-0.27,0.8,1.05
1.162034034729004,-0.61,-0.2,0.88,1.08
1.1718177795410156,-0.53,-0.14,0.92,1.07
1.1820769309997559,-0.45,-0.11,0.94,1.04
1.1925458908081055,-0.4,-0.1,0.94,1.02
1.202575922012329,-0.32,-0.13,0.89,0.95
1.2127258777618408,-0.24,-0.2,0.75,0.81
1.2219128608703613,-0.19,-0.36,0.58,0.7
1.2319087982177734,-0.18,-0.56,0.41,0.71
1.2421817779541016,-0.13,-0.72,0.31,0.79
1.2522587776184082,-0.1,-0.9,0.22,0.93
1.2623319625854492,-0.09,-1.07,0.17,1.08
1.2723989486694336,-0.07,-1.22,0.19,1.23
1.2822589874267578,0.03,-1.35,0.22,1.36
1.2923369407653809,0.1,-1.46,0.29,1.49
1.302259922027588,0.13,-1.44,0.45,1.51
1.312288761138916,0.21,-1.27,0.76,1.49
1.3222498893737793,0.31,-1.03,1.16,1.58
1.332244873046875,0.43,-0.8,1.55,1.79
1.3423290252685547,0.53,-0.55,1.89,2.03
1.352339744567871,0.65,-0.39,2.12,2.25
1.3622589111328125,0.75,-0.24,2.17,2.3
1.3721837997436523,0.87,-0.03,2.15,2.31
1.382232904434204,0.99,0.24,2.07,2.3
1.3922429084777832,1.07,0.52,2.05,2.37
1.402261734008789,1.12,0.76,2.11,2.5
1.4121880531311035,1.09,0.92,2.16,2.58
1.4221587181091309,0.92,0.91,2.02,2.39
1.4321849346160889,0.86,0.72,1.6,1.95
1.4421420097351074,0.77,0.33,0.98,1.28
1.4521288871765137,0.6,-0.15,0.37,0.72
1.4621057510375977,0.49,-0.61,-0.13,0.79
1.4720768928527832,0.34,-0.99,-0.45,1.13
1.4819939136505127,0.17,-1.25,-0.53,1.36
1.49202299118042,0.1,-1.37,-0.32,1.41
1.5020408630371094,0.09,-1.39,0.16,1.4
1.5122358798980713,0.05,-1.33,0.67,1.49
1.5220999717712402,-0.03,-1.16,1.19,1.66
1.5319929122924805,-0.13,-0.94,1.68,1.92
1.5419628620147705,-0.12,-0.68,2.09,2.2
1.5519988536834717,0.02,-0.39,2.42,2.45
1.5620579719543457,0.21,-0.05,2.7,2.7
1.5720787048339844,0.36,0.25,2.87,2.9
1.5819649696350098,0.5,0.5,2.83,2.91
1.5921268463134766,0.61,0.62,2.56,2.7
1.6021969318389893,0.68,0.73,2.17,2.38
1.612304925918579,0.78,0.84,1.76,2.1
1.6219358444213867,0.89,0.89,1.35,1.84
1.6318960189819336,0.94,0.92,0.96,1.62
1.6418757438659668,0.92,1.0,0.63,1.49
1.6519129276275635,0.9,1.11,0.44,1.49
1.6618800163269043,0.83,1.29,0.47,1.6
1.6718740463256836,0.74,1.5,0.67,1.8
1.6818358898162842,0.67,1.77,0.99,2.13
1.6917777061462402,0.63,2.03,1.4,2.54
1.7018368244171143,0.63,2.25,1.89,3.0
1.711836814880371,0.58,2.41,2.34,3.4
1.7217578887939453,0.54,2.5,2.64,3.67
1.7317428588867188,0.63,2.7,2.82,3.95
1.7418007850646973,0.74,2.95,2.93,4.22
1.7518129348754883,0.72,2.93,2.92,4.19
1.761795997619629,0.55,2.54,2.47,3.58
1.7717490196228027,0.45,1.94,1.57,2.53
1.7817039489746094,0.56,1.38,0.64,1.62
1.7916638851165771,0.72,0.92,-0.11,1.17
1.8017308712005615,0.77,0.45,-0.79,1.19
1.8117039203643799,0.63,-0.32,-1.44,1.6
1.8216767311096191,0.48,-1.31,-2.13,2.54
1.8316497802734375,0.37,-2.17,-2.75,3.52
1.8416638374328613,0.06,-2.62,-3.08,4.04
1.8516719341278076,-0.25,-2.62,-2.83,3.86
1.861793041229248,-0.43,-2.34,-1.94,3.06
1.8716259002685547,-0.84,-1.98,-0.63,2.24
1.881639003753662,-1.28,-1.52,0.75,2.12
1.8916029930114746,-1.59,-0.9,2.06,2.75
1.9016737937927246,-1.67,-0.31,3.12,3.55
1.9115829467773438,-1.65,0.04,3.63,3.98
1.9217069149017334,-1.52,0.16,3.5,3.81
1.931649923324585,-1.26,0.1,2.84,3.1
1.941586971282959,-0.86,-0.07,2.01,2.18
1.9515557289123535,-0.38,-0.28,1.27,1.35
1.9616270065307617,0.19,-0.47,0.55,0.74
1.9715168476104736,0.76,-0.69,-0.24,1.05
1.981510877609253,1.1,-0.91,-1.04,1.76
1.9915308952331543,1.16,-1.11,-1.71,2.34
2.001802921295166,1.06,-1.36,-2.13,2.74
2.011699914932251,0.79,-1.64,-2.29,2.92
2.021530866622925,0.41,-1.9,-2.2,2.93
2.031582832336426,0.04,-2.08,-1.8,2.75
2.0415098667144775,-0.33,-2.18,-1.16,2.49
2.051510810852051,-0.57,-2.23,-0.29,2.31
2.061602830886841,-0.74,-2.18,0.57,2.37
2.071431875228882,-0.93,-2.02,1.28,2.56
2.0815157890319824,-1.03,-1.76,1.77,2.7
2.0914418697357178,-1.14,-1.36,2.14,2.78
2.101562023162842,-1.24,-0.83,2.48,2.89
2.1114439964294434,-1.34,-0.22,2.83,3.13
2.121479034423828,-1.35,0.56,3.16,3.48
2.131453037261963,-1.2,1.32,3.37,3.81
2.1413118839263916,-0.93,1.95,3.32,3.96
2.151387929916382,-0.77,2.36,3.0,3.89
2.1613268852233887,-0.72,2.67,2.57,3.77
2.171323776245117,-0.69,2.91,2.16,3.68
2.181365966796875,-0.69,3.34,1.83,3.87
2.191243886947632,-0.62,4.38,1.8,4.77
2.2013278007507324,-0.24,5.39,2.17,5.81
2.2112770080566406,0.38,6.0,2.57,6.53
2.2212347984313965,0.81,5.67,2.27,6.16
2.2312259674072266,1.26,4.32,0.92,4.59
2.2412610054016113,1.65,2.57,-1.11,3.24
2.251201868057251,1.44,0.72,-2.9,3.31
2.261169910430908,1.16,-0.85,-4.36,4.59
2.2712197303771973,1.46,-1.51,-5.41,5.8
2.281367778778076,2.18,-1.15,-5.75,6.25
2.2914068698883057,2.52,-0.69,-4.91,5.56
2.301609992980957,2.39,-0.71,-3.21,4.06
2.3110008239746094,2.15,-0.98,-1.42,2.75
2.3213019371032715,1.79,-1.15,-0.15,2.13
2.3312649726867676,1.17,-1.31,0.35,1.79
2.341169834136963,0.53,-1.53,0.47,1.68
2.3514089584350586,-0.02,-1.89,0.51,1.95
2.361271858215332,-0.54,-2.35,0.62,2.48
2.371076822280884,-1.0,-2.78,0.71,3.03
2.3811378479003906,-1.34,-3.05,0.62,3.38
2.3912057876586914,-1.48,-3.2,0.29,3.53
2.401092052459717,-1.31,-3.26,-0.1,3.51
2.411141872406006,-1.02,-3.18,-0.5,3.37
2.4210729598999023,-0.83,-3.11,-0.71,3.29
2.431154727935791,-0.6,-2.96,-0.74,3.1
2.441056728363037,-0.33,-2.67,-0.7,2.77
2.451042890548706,-0.16,-2.35,-0.58,2.42
2.461045742034912,0.03,-2.03,-0.27,2.04
2.470991849899292,0.35,-1.62,0.1,1.66
2.48095703125,0.62,-1.14,0.48,1.38
2.4908928871154785,0.79,-0.69,0.84,1.34
2.500917911529541,0.82,-0.3,1.19,1.47
2.510877847671509,0.75,0.02,1.49,1.66
2.5209827423095703,0.7,0.32,1.58,1.75
2.5309267044067383,0.77,0.56,1.43,1.71
2.5409059524536133,0.79,0.82,1.26,1.69
2.5508809089660645,0.67,1.08,1.27,1.79
2.5608110427856445,0.41,1.35,1.52,2.07
2.570870876312256,0.07,1.55,1.92,2.46
2.5808629989624023,-0.27,1.87,2.34,3.0
2.590820789337158,-0.4,2.22,2.75,3.55
2.6009719371795654,-0.46,2.56,2.94,3.92
2.6109509468078613,-0.4,3.25,3.12,4.52
2.6208698749542236,0.11,4.47,3.57,5.72
2.6308460235595703,0.52,5.53,4.28,7.01
2.640828847885132,-0.03,6.02,4.52,7.52
2.6508638858795166,-0.86,5.43,3.69,6.62
2.6608500480651855,-1.28,4.29,1.92,4.87
2.6708009243011475,-1.34,2.46,-0.42,2.83
2.6807708740234375,-1.27,0.18,-2.83,3.1
2.6907968521118164,-1.27,-1.82,-4.7,5.19
2.7007389068603516,-1.21,-2.54,-5.97,6.59
2.711052894592285,-1.12,-2.34,-6.88,7.35
2.7205309867858887,-0.87,-2.31,-6.46,6.91
2.7309539318084717,-0.72,-1.96,-4.23,4.71
2.74088191986084,-1.02,-1.9,-1.69,2.73
2.750731945037842,-1.34,-1.98,0.52,2.44
2.760706901550293,-1.43,-2.12,1.74,3.09
2.770721912384033,-1.3,-2.25,1.95,3.24
2.7807297706604004,-0.92,-2.31,1.87,3.11
2.790674924850464,-0.61,-2.52,1.77,3.13
2.8008179664611816,-0.21,-2.78,1.48,3.15
2.8107047080993652,0.21,-3.02,1.03,3.19
2.8205668926239014,0.59,-3.23,0.56,3.33
2.8306679725646973,0.85,-3.27,0.16,3.38
2.8405590057373047,1.04,-3.22,-0.17,3.38
2.8506598472595215,1.18,-3.1,-0.41,3.34
2.86061692237854,1.2,-2.87,-0.53,3.15
2.870529890060425,1.05,-2.55,-0.57,2.81
2.880457878112793,0.87,-2.17,-0.52,2.39
2.8904168605804443,0.72,-1.77,-0.35,1.94
2.9005179405212402,0.59,-1.35,-0.06,1.47
2.9104909896850586,0.38,-0.91,0.28,1.02
2.920559883117676,0.03,-0.41,0.58,0.71
2.930492877960205,-0.36,0.11,0.78,0.86
2.940426826477051,-0.72,0.55,0.91,1.28
2.9504358768463135,-1.01,0.88,1.02,1.68
2.9604969024658203,-0.98,1.19,1.17,1.93
2.9703729152679443,-0.76,1.49,1.3,2.11
2.980405807495117,-0.48,1.67,1.34,2.19
2.990443706512451,-0.19,1.76,1.2,2.13
3.0003888607025146,0.09,1.78,1.03,2.05
3.010416030883789,0.18,1.82,0.87,2.02
3.0204288959503174,-0.16,1.99,0.83,2.16
3.0303878784179688,-0.46,2.45,0.92,2.65
3.040372848510742,-0.82,3.35,1.4,3.72
3.0503430366516113,-0.61,4.77,2.33,5.34
3.0603928565979004,0.11,5.77,3.27,6.63
3.070274829864502,0.89,5.54,3.0,6.36
3.0805978775024414,1.67,3.64,1.08,4.14
3.090350866317749,2.17,1.19,-1.71,3.0
3.1002979278564453,2.16,-0.15,-4.13,4.66
3.1104207038879395,2.24,-0.73,-5.99,6.43
3.1202187538146973,2.43,-0.31,-6.61,7.04
3.1304328441619873,2.61,0.6,-5.45,6.07
3.1402697563171387,2.77,1.03,-3.12,4.29
3.1505138874053955,2.59,1.35,-0.5,2.96
3.160306930541992,2.09,1.67,1.47,3.05
3.1702427864074707,1.21,1.42,2.06,2.77
3.1802268028259277,0.24,0.97,1.72,1.98
3.190196990966797,-0.88,0.31,1.26,1.56
3.200155735015869,-1.74,-0.65,0.77,2.01
3.210134983062744,-2.24,-1.66,0.17,2.79
3.220149040222168,-2.53,-2.63,-0.68,3.71
3.2302539348602295,-2.53,-3.3,-1.58,4.44
3.240126848220825,-2.15,-3.87,-2.45,5.05
3.2505269050598145,-1.59,-4.25,-3.09,5.48
3.2603230476379395,-1.01,-4.41,-3.38,5.64
3.270087718963623,-0.5,-4.48,-3.16,5.5
3.280367851257324,-0.03,-4.42,-2.64,5.14
3.290249824523926,0.35,-4.19,-2.05,4.67
3.300266742706299,0.78,-3.81,-1.49,4.16
3.3102989196777344,1.25,-3.26,-0.99,3.62
3.32008695602417,1.47,-2.55,-0.34,2.96
3.3302669525146484,1.41,-1.99,0.49,2.48
3.3402488231658936,1.66,-1.68,1.34,2.71
3.350158929824829,1.77,-1.14,2.09,2.96
3.3603358268737793,1.38,-0.62,2.42,2.85
3.37001371383667,0.84,-0.1,2.53,2.66
3.380239963531494,0.48,0.51,2.64,2.73
3.3900580406188965,0.22,1.05,2.73,2.93
3.400071859359741,-0.07,1.41,2.85,3.18
3.4101719856262207,-0.25,1.74,3.05,3.52
3.419900894165039,-0.37,2.05,3.06,3.7
3.4300999641418457,-0.38,2.3,2.82,3.65
3.4402499198913574,-0.18,2.51,2.36,3.44
3.450016975402832,0.38,3.14,2.02,3.75
3.4599409103393555,1.27,4.56,2.2,5.21
3.469845771789551,1.48,5.99,3.28,6.98
3.4801230430603027,0.02,6.56,4.14,7.75
3.4898548126220703,-1.36,5.77,3.4,6.83
3.4999759197235107,-2.41,3.84,1.16,4.67
3.5099849700927734,-3.26,1.57,-1.41,3.88
3.5197839736938477,-3.32,0.08,-3.87,5.09
3.5297908782958984,-2.5,-0.3,-5.84,6.35
3.539747714996338,-1.43,0.05,-6.33,6.48
3.549731731414795,-0.57,0.5,-4.9,4.95
3.5596957206726074,-0.52,0.64,-2.52,2.65
3.569779872894287,-0.63,0.57,-0.29,0.89
3.5798258781433105,-0.37,0.3,0.82,0.94
3.5897140502929688,0.01,-0.01,0.94,0.94
3.5994808673858643,0.17,-0.58,0.91,1.09
3.6100099086761475,0.18,-1.35,0.95,1.66
3.619736909866333,0.44,-2.07,1.04,2.35
3.6296887397766113,0.86,-2.64,1.06,2.97
3.639725923538208,1.26,-3.1,0.8,3.44
3.6498217582702637,1.49,-3.45,0.15,3.76
3.6597018241882324,1.49,-3.8,-0.62,4.12
3.6696648597717285,1.1,-4.07,-1.33,4.42
3.679874897003174,0.57,-4.18,-1.79,4.58
3.6898088455200195,0.33,-4.16,-1.97,4.61
3.6997628211975098,0.02,-4.12,-1.96,4.56
3.7096357345581055,-0.31,-3.98,-1.73,4.35
3.7196450233459473,-0.31,-3.84,-1.42,4.1
3.7295968532562256,-0.19,-3.5,-1.14,3.68
3.739635944366455,-0.4,-2.93,-0.78,3.05
3.749560832977295,-0.81,-2.54,-0.44,2.7
3.7595887184143066,-0.88,-2.16,-0.15,2.33
3.7696008682250977,-0.64,-1.67,0.16,1.79
3.779510974884033,-0.61,-1.16,0.5,1.4
3.789486885070801,-0.59,-0.56,0.97,1.26
3.7994837760925293,-0.52,0.16,1.45,1.54
3.809560775756836,-0.38,0.95,1.81,2.07
3.8194398880004883,-0.28,1.65,2.0,2.6
3.8294897079467773,-0.28,2.16,1.97,2.93
3.839388847351074,-0.33,2.81,2.0,3.46
3.849437713623047,-0.22,4.06,2.69,4.87
3.8595519065856934,-0.29,5.81,4.05,7.08
3.869473934173584,-0.15,7.14,5.2,8.83
3.8794028759002686,0.58,7.12,4.83,8.62
3.8891220092773438,1.41,6.05,2.86,6.83
3.8991498947143555,1.9,4.18,0.24,4.59
3.90950870513916,1.95,2.4,-2.18,3.78
3.9194798469543457,1.97,1.43,-3.96,4.64
3.9294028282165527,2.01,1.5,-4.85,5.46
3.9393930435180664,2.15,1.98,-4.6,5.45
3.949371814727783,2.11,2.1,-3.43,4.54
3.959372043609619,1.82,1.89,-2.13,3.37
3.96937894821167,1.36,1.52,-1.43,2.49
3.9792728424072266,0.81,1.04,-1.4,1.92
3.989327907562256,0.12,0.37,-1.45,1.5
3.999281883239746,-0.64,-0.49,-1.37,1.58
4.009492874145508,-1.35,-1.38,-1.17,2.25
4.019258975982666,-1.95,-2.24,-0.96,3.12
4.0292439460754395,-2.24,-2.89,-0.82,3.74
4.039330005645752,-2.16,-3.35,-0.82,4.06
4.0492329597473145,-1.77,-3.69,-0.99,4.21
4.059219837188721,-1.22,-3.92,-1.12,4.25
4.069239854812622,-0.81,-4.15,-1.15,4.38
4.07936692237854,-0.59,-4.44,-1.07,4.6
4.089189052581787,-0.32,-4.63,-0.98,4.74
4.0994298458099365,0.02,-4.65,-0.96,4.74
4.109210014343262,0.45,-4.5,-0.97,4.62
4.119304895401001,0.84,-4.17,-0.85,4.33
4.129279851913452,1.04,-3.76,-0.64,3.95
4.139075756072998,1.14,-3.18,-0.31,3.39
4.149138927459717,1.16,-2.52,0.18,2.78
4.159143924713135,1.08,-1.79,0.66,2.19
4.16915488243103,1.0,-0.94,1.17,1.8
4.179234981536865,0.86,-0.02,1.77,1.96
4.188770771026611,0.51,1.18,2.51,2.82
4.19904088973999,0.07,2.42,3.31,4.1
4.208975791931152,-0.2,3.52,3.99,5.32
4.219063758850098,-0.46,4.33,4.19,6.04
4.22912073135376,-0.71,4.69,3.86,6.11
4.239120006561279,-0.75,4.72,3.31,5.81
4.248993873596191,-0.6,4.64,2.68,5.39
4.258975028991699,-0.2,4.99,2.2,5.45
4.269211769104004,0.64,5.82,1.87,6.14
4.279336929321289,0.67,6.0,1.49,6.21
4.28905987739563,0.3,5.76,1.01,5.85
4.2993528842926025,-0.28,4.35,-0.02,4.35
4.309280872344971,-1.19,2.08,-1.41,2.78
4.319300889968872,-2.08,-0.1,-2.89,3.56
4.3290019035339355,-2.67,-1.45,-4.34,5.29
4.338902950286865,-2.7,-1.9,-5.51,6.42
4.349064826965332,-1.98,-1.52,-5.51,6.04
4.359088897705078,-1.18,-1.13,-4.06,4.37
4.3692848682403564,-0.63,-0.86,-2.19,2.43
4.379196882247925,-0.32,-0.53,-0.42,0.74
4.389169931411743,-0.33,-0.28,0.89,0.98
4.399116039276123,-0.47,-0.27,1.44,1.53
4.409366846084595,-0.29,-0.31,1.43,1.49
4.419274806976318,0.18,-0.43,1.29,1.37
4.428832054138184,0.51,-0.74,1.11,1.42
4.438724994659424,0.67,-1.33,0.81,1.69
4.448332786560059,0.79,-1.92,0.41,2.11
4.459046840667725,0.96,-2.38,-0.17,2.57
4.46891188621521,1.13,-2.71,-0.79,3.04
4.478869915008545,1.04,-2.97,-1.45,3.46
4.488950729370117,0.83,-3.09,-1.87,3.7
4.498777866363525,0.52,-3.17,-1.96,3.76
4.508697986602783,0.23,-3.29,-1.73,3.72
4.518730878829956,0.07,-3.31,-1.33,3.56
4.52873682975769,-0.07,-3.16,-1.01,3.31
4.538712978363037,-0.33,-2.94,-0.76,3.05
4.548750877380371,-0.62,-2.73,-0.55,2.85
4.5587029457092285,-0.78,-2.47,-0.31,2.6
4.568610906600952,-0.95,-2.04,-0.07,2.25
4.578825950622559,-1.22,-1.58,0.18,2.0
4.5887837409973145,-1.34,-1.07,0.39,1.75
4.598834037780762,-1.28,-0.53,0.58,1.5
4.60858678817749,-1.05,0.04,0.83,1.33
4.618958950042725,-0.69,0.63,1.17,1.49
4.628946781158447,-0.28,1.14,1.5,1.9
4.6391448974609375,0.08,1.55,1.67,2.27
4.648258924484253,0.25,1.94,1.64,2.55
4.658156871795654,0.28,2.31,1.52,2.77
4.668529987335205,0.3,2.74,1.43,3.1
4.678911924362183,0.15,3.7,1.73,4.08
4.688500881195068,0.4,5.03,2.56,5.65
4.6986658573150635,0.74,6.24,3.68,7.28
4.7084479331970215,1.22,6.76,4.31,8.1
4.718492031097412,1.34,5.79,3.36,6.82
4.728490829467773,1.22,3.78,0.91,4.07
4.738508939743042,1.12,1.47,-1.65,2.47
4.748404026031494,1.02,-0.15,-3.76,3.89
4.758464813232422,1.42,-0.53,-5.2,5.41
4.768473863601685,1.88,0.04,-5.34,5.66
4.778608798980713,2.13,0.71,-3.97,4.56
4.788341999053955,2.23,0.91,-2.1,3.19
4.798362731933594,1.98,1.09,-0.52,2.31
4.8083367347717285,1.28,0.91,0.14,1.57
4.818435907363892,0.86,0.46,-0.02,0.97
4.828358888626099,0.43,-0.01,-0.26,0.5
4.838440895080566,-0.14,-0.59,-0.27,0.66
4.848284721374512,-0.83,-1.01,-0.22,1.32
4.858304023742676,-1.58,-1.65,-0.31,2.3
4.868495941162109,-1.9,-2.22,-0.49,2.96
4.878297805786133,-1.89,-2.69,-0.74,3.36
4.888319969177246,-1.63,-3.11,-1.05,3.66
4.898463726043701,-1.11,-3.41,-1.23,3.79
4.908198833465576,-0.59,-3.66,-1.22,3.9
4.918298721313477,-0.23,-3.86,-1.1,4.02
4.928264856338501,0.2,-4.09,-1.06,4.22
4.938333034515381,0.58,-4.15,-1.0,4.3
4.948235988616943,0.81,-4.07,-0.88,4.24
4.958185911178589,0.95,-3.94,-0.73,4.11
4.96823787689209,1.01,-3.65,-0.58,3.83
4.978184938430786,0.97,-3.27,-0.37,3.43
4.988203048706055,1.05,-2.87,-0.02,3.05
4.998589038848877,1.16,-2.24,0.31,2.54
5.008090019226074,0.86,-1.63,0.44,1.89
5.0182719230651855,0.38,-1.0,0.57,1.21
5.0281267166137695,-0.07,-0.41,0.8,0.9
5.0382678508758545,-0.62,0.15,1.15,1.31
5.048113822937012,-1.21,0.74,1.68,2.19
5.058241844177246,-1.48,1.37,2.15,2.94
5.068183898925781,-1.34,2.03,2.33,3.36
5.078118801116943,-0.99,2.57,2.21,3.53
5.0881218910217285,-0.46,3.15,1.93,3.72
5.09814190864563,0.41,4.49,2.27,5.04
5.108040809631348,1.17,5.96,3.25,6.88
5.118180751800537,0.73,7.54,4.52,8.82
5.128111839294434,-0.78,7.68,4.51,8.94
5.138052940368652,-1.86,5.86,2.71,6.71
5.148052930831909,-2.47,3.31,0.09,4.13
5.158074855804443,-2.56,1.05,-2.35,3.63
5.168088912963867,-2.04,0.45,-4.18,4.67
5.178091049194336,-1.39,0.55,-5.82,6.0
5.188130855560303,-0.98,0.7,-5.93,6.05
5.19830584526062,-0.53,0.81,-4.4,4.5
5.207921028137207,-0.74,0.62,-2.57,2.74
5.217972755432129,-1.13,0.12,-1.38,1.78
5.227957725524902,-0.67,-0.41,-1.09,1.34
5.237975835800171,0.0,-0.79,-0.93,1.22
5.247933864593506,0.33,-1.22,-0.33,1.3
5.257863998413086,0.64,-1.74,0.39,1.89
5.268037796020508,1.02,-2.12,0.98,2.54
5.277890920639038,1.24,-2.36,1.3,2.96
5.28788685798645,1.27,-2.57,1.36,3.17
5.2977988719940186,1.3,-2.74,1.24,3.27
5.307867050170898,1.25,-2.89,0.87,3.26
5.317896842956543,1.09,-3.02,0.41,3.23
5.32779598236084,0.88,-3.1,0.02,3.22
5.337801933288574,0.52,-3.14,-0.34,3.2
5.347809791564941,0.1,-3.14,-0.48,3.17
5.357838869094849,-0.26,-3.1,-0.47,3.14
5.367745876312256,-0.63,-2.93,-0.43,3.02
5.377865791320801,-1.01,-2.66,-0.36,2.86
5.387749910354614,-1.29,-2.36,-0.26,2.7
5.3977508544921875,-1.39,-2.06,-0.15,2.48
5.407803058624268,-1.3,-1.6,-0.04,2.06
5.417728900909424,-1.15,-1.11,-0.02,1.59
5.42770791053772,-0.94,-0.64,0.01,1.13
5.437692880630493,-0.56,-0.15,0.16,0.6
5.447697877883911,-0.17,0.36,0.32,0.51
5.457711935043335,0.22,0.89,0.48,1.03
5.467684745788574,0.53,1.35,0.62,1.57
5.477602005004883,0.81,1.74,0.72,2.04
5.4876017570495605,0.91,2.0,0.78,2.33
5.497914791107178,0.76,2.15,0.62,2.36
5.507992744445801,0.43,2.29,0.36,2.35
5.51758885383606,-0.33,3.16,0.62,3.23
5.527773857116699,-0.21,4.3,1.37,4.51
5.5378358364105225,-0.04,5.02,2.02,5.41
5.547677993774414,0.22,4.74,1.37,4.93
5.557747840881348,0.8,2.84,-0.5,2.99
5.567537784576416,1.68,1.55,-2.43,3.33
5.577671051025391,2.44,1.18,-3.99,4.82
5.587802886962891,2.69,1.46,-4.39,5.35
5.597668886184692,2.97,1.95,-3.32,4.86
5.607533931732178,2.68,2.47,-1.69,4.01
5.61768102645874,1.33,2.53,-0.82,2.97
5.627532958984375,0.92,2.45,-0.52,2.66
5.637585878372192,0.74,2.09,-0.7,2.32
5.64749002456665,0.04,1.54,-0.8,1.73
5.6575117111206055,-0.82,1.06,-0.71,1.51
5.6674909591674805,-1.75,0.5,-0.63,1.92
5.677484035491943,-2.46,-0.14,-0.68,2.55
5.687439918518066,-2.76,-0.89,-0.94,3.04
5.697512865066528,-2.65,-1.62,-1.26,3.35
5.707592010498047,-2.13,-2.15,-1.58,3.41
5.717522859573364,-1.34,-2.52,-1.67,3.3
5.72735595703125,-0.75,-2.9,-1.54,3.36
5.73741888999939,-0.23,-3.24,-1.46,3.56
5.747364044189453,0.24,-3.57,-1.27,3.79
5.757424831390381,0.61,-3.81,-0.98,3.98
5.767333984375,0.87,-4.02,-0.7,4.17
5.777339935302734,0.98,-4.15,-0.47,4.28
5.787276744842529,1.04,-4.22,-0.23,4.35
5.797300815582275,1.14,-4.26,0.05,4.41
5.807293891906738,1.34,-4.25,0.37,4.47
5.817428827285767,1.56,-4.1,0.56,4.42
5.827247858047485,1.62,-3.82,0.59,4.19
5.83720588684082,1.62,-3.46,0.64,3.87
5.847234725952148,1.75,-2.94,0.66,3.48
5.857268810272217,1.88,-2.2,0.73,2.98
5.867286920547485,2.0,-1.36,0.8,2.54
5.877377033233643,2.08,-0.51,0.94,2.33
5.887209892272949,1.76,0.35,1.31,2.22
5.8973388671875,1.22,1.17,1.84,2.49
5.907209873199463,0.92,1.89,2.26,3.08
5.917157888412476,0.8,2.41,2.29,3.41
5.927124977111816,0.77,2.68,1.68,3.25
5.937084913253784,0.74,2.88,0.61,3.03
5.947365760803223,0.95,3.64,-0.05,3.76
5.957101821899414,1.25,5.32,0.3,5.47
5.967294931411743,1.16,6.72,1.5,6.98
5.977115869522095,0.77,7.61,1.91,7.88
5.987155914306641,-1.15,5.82,0.64,5.96
5.997135877609253,-2.36,3.42,-1.63,4.46
6.007138729095459,-2.03,2.22,-3.88,4.9
6.0170629024505615,-0.95,2.08,-5.83,6.26
6.027042865753174,-1.04,1.51,-7.06,7.29
6.037041902542114,-1.16,1.79,-7.21,7.51
6.046988010406494,-0.9,1.88,-6.34,6.67
6.057076930999756,-0.7,1.84,-4.7,5.09
6.067001819610596,0.0,2.02,-3.39,3.94
6.0770158767700195,1.09,2.12,-2.58,3.51
6.0869529247283936,2.11,2.09,-1.81,3.47
6.096932888031006,2.63,1.87,-1.14,3.42
6.107131004333496,2.76,1.49,-0.67,3.2
6.117097854614258,2.62,0.96,-0.5,2.83
6.1271257400512695,2.38,0.35,-0.64,2.48
6.137312889099121,2.25,-0.26,-0.95,2.45
6.147125720977783,2.17,-0.78,-1.29,2.64
6.157289028167725,2.21,-1.15,-1.71,3.02
6.167166709899902,2.16,-1.44,-2.14,3.36
6.177228927612305,1.88,-1.69,-2.46,3.52
6.187145709991455,1.46,-1.91,-2.7,3.61
6.1974687576293945,1.06,-2.15,-2.88,3.74
6.206694841384888,0.66,-2.42,-3.02,3.92
6.217324733734131,0.27,-2.69,-3.1,4.11
6.227087020874023,0.03,-2.96,-3.12,4.3
6.2370898723602295,-0.19,-3.23,-3.06,4.45
6.246936798095703,-0.43,-3.39,-2.89,4.47
6.256717920303345,-0.58,-3.47,-2.6,4.37
6.266768932342529,-0.62,-3.4,-2.21,4.1
6.276826858520508,-0.6,-3.2,-1.83,3.73
6.286751747131348,-0.54,-2.95,-1.44,3.32
6.29682993888855,-0.38,-2.59,-1.12,2.84
6.3067708015441895,-0.15,-2.12,-0.87,2.29
6.316727876663208,0.08,-1.6,-0.65,1.72
6.3269267082214355,0.36,-1.1,-0.51,1.26
6.336742877960205,0.68,-0.69,-0.57,1.12
6.346697807312012,0.99,-0.38,-0.97,1.43
6.3567047119140625,1.33,-0.09,-1.58,2.06
6.366604804992676,1.77,0.17,-2.16,2.79
6.376811981201172,2.18,0.34,-2.54,3.36
6.386809825897217,2.26,0.49,-2.82,3.64
6.396722793579102,2.12,0.58,-2.98,3.7
6.4066338539123535,1.93,0.88,-2.9,3.59
6.416600704193115,1.64,1.26,-2.6,3.32
6.426564931869507,1.64,1.78,-2.25,3.3
6.436645030975342,1.63,2.37,-2.07,3.54
6.446574926376343,1.58,2.74,-2.02,3.75
6.456707000732422,1.64,2.73,-2.21,3.87
6.466551780700684,1.8,2.32,-2.72,4.0
6.47650671005249,1.98,1.67,-3.43,4.29
6.486547946929932,2.13,1.06,-4.05,4.69
6.496506929397583,2.29,0.82,-4.3,4.94
6.506475925445557,2.4,0.94,-4.13,4.86
6.516477823257446,2.47,1.12,-3.42,4.36
6.526463031768799,2.75,1.17,-2.67,4.0
6.536456823348999,2.92,1.1,-2.37,3.91
6.546591758728027,2.67,0.91,-2.37,3.68
6.556485891342163,2.13,0.69,-2.51,3.36
6.566425800323486,1.4,0.41,-2.6,2.98
6.5763468742370605,0.8,0.18,-2.64,2.76
6.586395740509033,0.47,0.01,-2.66,2.7
6.59647274017334,0.27,-0.12,-2.54,2.55
6.6066389083862305,0.09,-0.15,-2.25,2.25
6.616443872451782,0.0,-0.08,-1.82,1.82
6.626428842544556,0.01,0.04,-1.21,1.21
6.636668920516968,0.19,0.18,-0.49,0.55
6.6464009284973145,0.64,0.37,0.22,0.77
6.656437873840332,1.29,0.58,0.75,1.6
6.666409015655518,1.9,0.78,1.21,2.38
6.676348924636841,2.39,0.9,1.58,3.0
6.686406850814819,2.64,1.01,1.86,3.38
6.696567058563232,2.56,0.95,2.03,3.4
6.706393718719482,2.36,0.78,1.85,3.09
6.716341018676758,1.95,0.53,1.4,2.45
6.726312875747681,1.63,0.24,0.83,1.84
6.736299991607666,1.39,-0.08,0.25,1.41
6.746234893798828,1.14,-0.36,-0.25,1.22
6.75629186630249,0.95,-0.46,-0.54,1.18
6.766219854354858,0.86,-0.48,-0.63,1.16
6.776138782501221,0.71,-0.49,-0.55,1.02
6.786275863647461,0.37,-0.58,-0.28,0.74
6.796178817749023,0.17,-0.63,0.05,0.65
6.8062498569488525,0.04,-0.57,0.32,0.65
6.816189765930176,-0.13,-0.5,0.61,0.79
6.826251983642578,-0.33,-0.47,0.91,1.07
6.836373805999756,-0.45,-0.49,1.22,1.38
6.846350908279419,-0.53,-0.54,1.46,1.64
6.856330871582031,-0.6,-0.55,1.66,1.84
6.866206884384155,-0.63,-0.51,1.81,1.98
6.87619686126709,-0.61,-0.48,1.9,2.05
6.88634991645813,-0.54,-0.42,1.98,2.09
6.896083831787109,-0.49,-0.33,2.03,2.11
6.906102895736694,-0.45,-0.24,2.02,2.08
6.916062831878662,-0.4,-0.15,1.99,2.03
6.92610502243042,-0.35,-0.11,1.89,1.92
6.936036825180054,-0.26,-0.06,1.72,1.74
6.946049928665161,-0.15,0.0,1.47,1.47
6.956143856048584,-0.12,0.04,1.23,1.23
6.966043949127197,-0.07,0.1,1.12,1.12
6.975937843322754,-0.04,0.11,1.09,1.09
6.98599100112915,-0.03,0.21,1.16,1.17
6.995909929275513,0.09,0.38,1.33,1.38
7.005985736846924,0.21,0.58,1.52,1.64
7.015956878662109,0.35,0.74,1.7,1.88
7.025904893875122,0.43,0.86,1.86,2.09
7.035904884338379,0.5,0.94,1.92,2.19
7.045913934707642,0.54,1.08,1.92,2.26
7.055895805358887,0.56,1.27,1.97,2.4
7.065889835357666,0.6,1.5,2.14,2.68
7.075841903686523,0.68,1.74,2.36,3.0
7.085821866989136,0.79,2.0,2.56,3.34
7.095892906188965,0.91,2.2,2.59,3.51
7.105865001678467,0.96,2.28,2.41,3.45
7.11579704284668,0.91,2.27,2.03,3.17
7.125809907913208,0.69,2.19,1.56,2.77
7.135941982269287,0.4,2.04,1.13,2.36
7.146446704864502,0.08,1.88,0.8,2.04
7.155941009521484,-0.25,1.7,0.53,1.79
7.165989875793457,-0.39,1.42,0.13,1.47
7.1757848262786865,-0.51,0.95,-0.51,1.19
7.185764789581299,-0.68,0.19,-1.26,1.44
7.1959028244018555,-0.83,-0.65,-1.98,2.24
7.205781936645508,-0.91,-1.37,-2.5,2.99
7.215723991394043,-1.03,-1.84,-2.68,3.41
7.2257280349731445,-1.11,-2.03,-2.46,3.37
7.2357707023620605,-0.96,-2.0,-1.71,2.8
7.245698928833008,-0.97,-1.98,-0.64,2.29
7.255800724029541,-1.06,-2.06,0.33,2.34
7.2658209800720215,-0.86,-2.1,1.09,2.51
7.275820732116699,-0.51,-2.09,1.43,2.58
7.285655975341797,-0.24,-2.2,1.51,2.67
7.295588970184326,0.02,-2.29,1.56,2.77
7.305531024932861,0.22,-2.37,1.5,2.81
7.315547943115234,0.32,-2.39,1.37,2.77
7.325585842132568,0.34,-2.38,1.24,2.7
7.335760831832886,0.33,-2.27,1.14,2.56
7.345674991607666,0.41,-2.09,1.06,2.37
7.355628967285156,0.42,-1.86,1.03,2.16
7.3655829429626465,0.27,-1.63,1.08,1.97
7.375540733337402,0.07,-1.46,1.06,1.8
7.385670900344849,-0.05,-1.25,1.01,1.6
7.395694732666016,-0.22,-1.01,0.95,1.4
7.405601978302002,-0.38,-0.79,0.99,1.32
7.4157257080078125,-0.56,-0.49,1.15,1.36
7.425500869750977,-0.82,-0.2,1.38,1.61
7.435443878173828,-1.13,0.03,1.53,1.9
7.445859909057617,-1.32,0.19,1.5,2.0
7.455495834350586,-1.35,0.31,1.28,1.88
7.465520858764648,-1.37,0.44,0.94,1.71
7.475465774536133,-1.37,0.58,0.59,1.6
7.485383033752441,-1.2,0.74,0.35,1.45
7.495368957519531,-0.97,1.05,0.28,1.45
7.505359888076782,-0.92,1.38,0.36,1.69
7.515377044677734,-0.94,1.63,0.7,2.0
7.525346755981445,-0.98,1.77,1.31,2.41
7.535323858261108,-1.13,1.98,2.0,3.03
7.545363903045654,-1.22,2.21,2.56,3.59
7.5553789138793945,-1.1,2.51,2.94,4.01
7.565281867980957,-0.86,2.93,3.16,4.39
7.575333833694458,-0.57,3.61,3.41,4.99
7.585268974304199,0.15,4.41,3.86,5.86
7.595321893692017,1.04,4.75,4.36,6.53
7.605332851409912,1.4,4.63,4.4,6.53
7.615318775177002,1.07,3.89,3.58,5.39
7.62529993057251,0.37,2.71,2.06,3.42
7.635666847229004,-0.43,1.17,0.28,1.27
7.645537853240967,-0.76,-0.5,-1.39,1.66
7.655289888381958,-0.41,-1.9,-3.02,3.59
7.665416717529297,0.76,-2.72,-4.38,5.21
7.675326824188232,2.0,-3.03,-5.12,6.27
7.68519401550293,2.43,-3.0,-5.19,6.46
7.695214748382568,2.51,-2.7,-4.48,5.8
7.705284833908081,2.48,-2.5,-3.02,4.63
7.7152228355407715,2.12,-2.49,-1.26,3.5
7.725152015686035,1.62,-2.38,0.47,2.91
7.735398769378662,1.11,-2.23,1.47,2.89
7.745372772216797,0.31,-2.05,1.83,2.76
7.755168914794922,-0.65,-1.91,1.68,2.62
7.7650768756866455,-1.33,-1.83,1.38,2.64
7.775146961212158,-1.55,-1.84,1.23,2.7
7.785085916519165,-1.4,-1.92,1.2,2.66
7.79510498046875,-1.09,-1.97,1.17,2.53
7.805113792419434,-0.78,-1.99,1.01,2.36
7.815017938613892,-0.48,-1.99,0.67,2.15
7.82507586479187,-0.17,-1.98,0.22,1.99
7.835021018981934,0.11,-1.94,-0.22,1.95
7.845301866531372,0.37,-1.94,-0.55,2.05
7.855024814605713,0.7,-1.9,-0.8,2.17
7.864964962005615,1.05,-1.73,-0.98,2.24
7.875026702880859,1.27,-1.47,-1.08,2.22
7.885069847106934,1.43,-1.22,-1.0,2.12
7.895107746124268,1.56,-0.98,-0.79,2.0
7.905035972595215,1.55,-0.75,-0.56,1.81
7.91497802734375,1.35,-0.56,-0.37,1.5
7.925127983093262,1.11,-0.43,-0.17,1.2
7.934957027435303,0.96,-0.22,0.04,0.98
7.944952964782715,0.84,0.13,0.25,0.88
7.955024719238281,0.81,0.53,0.56,1.11
7.964967727661133,0.81,0.93,0.93,1.54
7.9749228954315186,0.79,1.38,1.32,2.06
7.984904766082764,0.84,1.98,1.68,2.72
7.9948248863220215,1.17,2.76,2.02,3.61
8.004905939102173,1.43,3.52,2.31,4.44
8.014846801757812,1.37,4.21,2.49,5.07
8.024861812591553,1.27,4.71,2.45,5.45
8.03480577468872,1.09,5.02,2.28,5.62
8.04480791091919,1.13,5.62,2.17,6.12
8.054868936538696,0.88,5.79,2.0,6.18
8.064693927764893,0.19,5.53,1.85,5.83
8.074872016906738,-0.1,4.83,1.52,5.06
8.084749937057495,-0.37,3.33,0.62,3.4
8.094729900360107,-0.65,1.44,-0.7,1.72
8.104749917984009,-0.91,-0.36,-2.07,2.28
8.114727973937988,-1.1,-1.57,-3.28,3.79
8.124717712402344,-1.21,-1.89,-4.1,4.67
8.134809017181396,-1.18,-1.61,-3.94,4.41
8.144818782806396,-1.24,-1.27,-2.69,3.22
8.154698848724365,-1.29,-1.17,-1.4,2.23
8.164685726165771,-1.48,-1.18,-0.01,1.89
8.174699783325195,-1.58,-1.35,1.12,2.36
8.184614896774292,-1.64,-1.56,1.5,2.71
8.194637775421143,-1.74,-1.93,1.44,2.97
8.204535007476807,-1.61,-2.35,1.23,3.1
8.214599847793579,-1.11,-2.71,0.94,3.07
8.224637031555176,-0.48,-3.05,0.69,3.16
8.23460578918457,0.18,-3.33,0.53,3.37
8.244544982910156,0.54,-3.52,0.3,3.57
8.254578828811646,0.69,-3.5,-0.12,3.56
8.264740943908691,0.86,-3.52,-0.38,3.64
8.27440881729126,1.05,-3.57,-0.3,3.73
8.284660816192627,1.06,-3.46,-0.11,3.62
8.294704914093018,0.89,-3.29,-0.04,3.4
8.304611921310425,0.73,-3.03,-0.12,3.11
8.314587831497192,0.51,-2.64,-0.2,2.69
8.324501037597656,0.23,-2.28,-0.19,2.29
8.33450698852539,-0.18,-2.01,-0.01,2.01
8.344499826431274,-0.7,-1.75,0.22,1.89
8.35450291633606,-1.11,-1.34,0.36,1.77
8.36443281173706,-1.35,-0.8,0.47,1.63
8.374507904052734,-1.29,-0.15,0.6,1.43
8.384422779083252,-1.12,0.52,0.86,1.5
8.394559860229492,-0.98,1.11,1.31,1.97
8.404456853866577,-0.9,1.67,1.76,2.58
8.414408922195435,-0.96,2.08,2.02,3.05
8.424345016479492,-1.09,2.3,2.09,3.29
8.433681011199951,-1.07,2.44,2.0,3.33
8.443556785583496,-0.95,2.64,1.74,3.3
8.454448938369751,-0.81,2.78,1.45,3.23
8.463436841964722,-0.6,3.26,1.55,3.65
8.474308967590332,-0.08,4.11,2.18,4.65
8.48436975479126,0.61,4.81,3.05,5.72
8.493801832199097,1.47,5.4,3.6,6.65
8.504356861114502,1.8,5.09,3.27,6.31
8.514248847961426,1.53,3.91,1.74,4.54
8.524281024932861,0.95,2.2,-0.43,2.43
8.534225940704346,0.34,0.79,-2.46,2.6
8.544164896011353,0.13,-0.17,-4.03,4.03
8.554191827774048,0.67,-0.47,-4.98,5.04
8.564169883728027,1.27,-0.1,-4.85,5.01
8.574224948883057,1.72,0.25,-3.71,4.09
8.584167957305908,1.93,0.29,-2.1,2.86
8.59442687034607,1.82,0.18,-0.67,1.94
8.604224920272827,1.46,-0.15,0.15,1.47
8.614156723022461,0.85,-0.65,0.44,1.15
8.624205827713013,0.26,-1.1,0.54,1.25
8.634130001068115,-0.45,-1.56,0.65,1.74
8.644295930862427,-1.15,-2.03,0.88,2.49
8.654338836669922,-1.56,-2.43,1.03,3.06
8.664119720458984,-1.57,-2.73,0.97,3.29
8.674140930175781,-1.38,-2.96,0.63,3.32
8.684205055236816,-1.13,-3.17,0.05,3.36
8.694087982177734,-0.81,-3.38,-0.49,3.51
8.704160928726196,-0.43,-3.58,-0.9,3.71
8.714058876037598,-0.08,-3.73,-1.19,3.91
8.724220752716064,0.22,-3.74,-1.42,4.0
8.734019756317139,0.45,-3.64,-1.51,3.96
8.74400281906128,0.66,-3.52,-1.41,3.84
8.754092931747437,0.82,-3.23,-1.0,3.47
8.76398491859436,0.86,-2.85,-0.5,3.01
8.773947715759277,1.0,-2.34,-0.01,2.54
8.78398585319519,1.02,-1.77,0.47,2.09
8.794157028198242,0.91,-1.14,1.02,1.77
8.804131031036377,0.81,-0.35,1.71,1.92
8.8139488697052,0.69,0.65,2.45,2.62
8.82393193244934,0.54,1.72,3.17,3.64
8.833974838256836,0.38,2.71,3.65,4.56
8.843925952911377,0.13,3.42,3.82,5.12
8.853998899459839,-0.12,3.91,3.49,5.24
8.863873958587646,-0.39,4.08,2.51,4.8
8.873918056488037,-0.46,4.13,1.67,4.47
8.883923053741455,-0.53,4.57,1.29,4.77
8.893778800964355,-0.08,5.22,1.19,5.35
8.904040813446045,-0.51,5.76,1.23,5.91
8.913909912109375,-1.27,5.93,1.46,6.23
8.92409086227417,-1.81,5.02,1.24,5.47
8.933826923370361,-2.36,3.28,-0.04,4.04
8.943853855133057,-2.72,1.24,-2.05,3.62
8.953829765319824,-2.57,-0.28,-3.87,4.65
8.963935852050781,-1.95,-0.78,-5.18,5.58
8.9737868309021,-1.28,-0.58,-5.39,5.57
8.98371171951294,-0.85,-0.41,-4.29,4.39
8.993762016296387,-0.77,-0.57,-2.62,2.78
9.00381088256836,-0.81,-0.9,-0.81,1.45
9.013861894607544,-0.7,-1.25,0.43,1.49
9.023802757263184,-0.45,-1.57,0.76,1.8
9.033750057220459,-0.31,-1.79,0.48,1.87
9.043771743774414,-0.12,-2.1,0.24,2.11
9.053752899169922,0.07,-2.54,0.18,2.54
9.063677787780762,0.23,-3.04,0.22,3.05
9.073640823364258,0.41,-3.45,0.29,3.48
9.083533763885498,0.55,-3.67,0.21,3.71
9.09357500076294,0.66,-3.73,-0.06,3.78
9.103701829910278,0.82,-3.69,-0.4,3.8
9.113619804382324,0.88,-3.51,-0.64,3.67
9.123648881912231,0.83,-3.25,-0.71,3.42
9.133570909500122,0.63,-3.07,-0.64,3.19
9.143568992614746,0.26,-2.82,-0.52,2.87
9.153552055358887,-0.01,-2.44,-0.38,2.46
9.163667917251587,-0.24,-2.0,-0.28,2.03
9.173555850982666,-0.57,-1.52,-0.18,1.63
9.183571815490723,-0.88,-1.01,-0.06,1.34
9.193544864654541,-1.14,-0.5,0.1,1.24
9.203511714935303,-1.12,-0.03,0.32,1.16
9.213502883911133,-0.86,0.52,0.56,1.15
9.223498821258545,-0.56,1.09,0.78,1.45
9.233505725860596,-0.23,1.53,0.94,1.81
9.243476867675781,-0.02,1.88,1.11,2.18
9.253444910049438,-0.02,2.09,1.15,2.38
9.263397932052612,-0.04,2.14,0.99,2.35
9.273510932922363,0.0,2.23,0.74,2.34
9.28347396850586,-0.03,2.47,0.7,2.56
9.293540954589844,-0.17,3.13,1.03,3.29
9.303974866867065,0.21,4.27,1.92,4.68
9.31360387802124,1.05,5.12,3.01,6.03
9.32339096069336,1.5,5.8,3.73,7.05
9.333571910858154,1.28,5.81,3.68,6.99
9.343499898910522,0.71,4.98,2.39,5.56
9.353344917297363,0.11,3.29,0.25,3.3
9.36369276046753,-0.01,1.32,-1.99,2.38
9.373551845550537,0.5,-0.14,-3.82,3.85
9.383710861206055,1.66,-0.78,-5.04,5.36
9.393508911132812,2.23,-0.59,-5.17,5.66
9.403679847717285,2.49,-0.2,-3.99,4.7
9.413644790649414,2.5,-0.12,-2.24,3.35
9.42338490486145,2.08,-0.35,-0.61,2.19
9.433685779571533,1.39,-0.74,0.5,1.65
9.443713903427124,0.67,-1.11,0.91,1.58
9.453685760498047,0.38,-1.44,0.77,1.67
9.463618755340576,0.17,-1.79,0.54,1.87
9.47348690032959,-0.42,-2.28,0.41,2.35
9.483579874038696,-1.05,-2.82,0.26,3.02
9.49358582496643,-1.34,-3.31,0.04,3.57
9.503471851348877,-1.33,-3.63,-0.35,3.88
9.513340950012207,-1.15,-3.81,-0.75,4.04
9.523438930511475,-0.7,-3.87,-1.02,4.06
9.533447742462158,-0.3,-3.81,-1.06,3.96
9.543375015258789,-0.18,-3.78,-0.95,3.9
9.55288290977478,-0.03,-3.69,-0.77,3.76
9.563446044921875,0.33,-3.44,-0.62,3.51
9.573276042938232,0.53,-3.07,-0.54,3.16
9.58330774307251,0.78,-2.57,-0.4,2.71
9.593173027038574,1.0,-2.02,-0.21,2.26
9.603441715240479,1.13,-1.58,0.16,1.94
9.613319873809814,1.19,-1.05,0.68,1.72
9.623149871826172,1.04,-0.34,1.27,1.67
9.633167743682861,0.53,0.35,1.74,1.85
9.64350175857544,-0.12,0.95,1.98,2.19
9.653170824050903,-0.57,1.43,2.04,2.55
9.663447856903076,-0.77,1.88,1.91,2.78
9.673161029815674,-0.88,2.23,1.61,2.88
9.683223724365234,-0.89,2.44,1.29,2.89
9.693058013916016,-0.79,2.73,0.97,3.0
9.703259944915771,-0.57,3.67,1.14,3.88
9.713029861450195,0.25,4.95,1.93,5.31
9.723034858703613,0.7,6.15,2.82,6.8
9.732982873916626,-0.3,7.17,3.57,8.01
9.743237972259521,-1.66,6.59,3.59,7.68
9.752978801727295,-2.47,4.64,1.77,5.54
9.762966871261597,-3.08,2.39,-1.05,4.03
9.772926807403564,-2.94,0.56,-3.62,4.69
9.783149719238281,-1.94,-0.12,-5.67,5.99
9.793020725250244,-0.92,0.12,-6.45,6.51
9.802932739257812,-0.44,0.32,-5.33,5.35
9.812899827957153,-0.34,0.18,-3.18,3.2
9.822934865951538,-0.64,-0.02,-0.9,1.1
9.832856893539429,-0.94,-0.28,0.78,1.25
9.84286880493164,-0.76,-0.62,1.3,1.62
9.852888822555542,-0.45,-0.9,1.0,1.41
9.862767934799194,-0.35,-1.32,0.5,1.45
9.872807025909424,-0.22,-1.96,0.23,1.98
9.882808923721313,0.16,-2.63,0.18,2.64
9.89280891418457,0.6,-3.13,0.06,3.18
9.903077840805054,1.03,-3.45,-0.19,3.6
9.912958860397339,1.33,-3.52,-0.54,3.8
9.922948837280273,1.36,-3.44,-0.86,3.79
9.93276596069336,1.31,-3.35,-1.05,3.74
9.942762851715088,1.16,-3.22,-1.07,3.58
9.952861785888672,0.75,-3.01,-0.73,3.18
9.96273684501648,0.41,-2.71,-0.28,2.75
9.97289490699768,-0.04,-2.43,0.02,2.43
9.982954978942871,-0.44,-2.17,0.06,2.21
9.992693901062012,-0.59,-1.95,0.07,2.03
10.002885818481445,-0.76,-1.75,0.18,1.91
10.012902736663818,-1.04,-1.58,0.4,1.93
10.022854804992676,-1.18,-1.37,0.49,1.87
10.0326509475708,-1.09,-1.12,0.45,1.62
10.042625904083252,-1.02,-0.77,0.37,1.33
10.05275583267212,-0.73,-0.32,0.41,0.89
10.062664985656738,-0.34,0.08,0.6,0.69
10.072620868682861,0.0,0.44,0.72,0.84
10.082568883895874,0.26,0.85,0.67,1.11
10.09260082244873,0.24,1.33,0.46,1.42
10.102581024169922,0.09,1.9,0.37,1.93
10.112555980682373,-0.18,2.81,0.76,2.91
10.122490882873535,-0.02,4.12,1.86,4.52
10.132491827011108,0.12,5.74,3.53,6.73
10.142492771148682,0.33,6.63,4.34,7.93
10.152582883834839,1.34,5.38,2.9,6.25
10.16269302368164,2.55,3.45,0.06,4.29
10.172560930252075,3.4,2.08,-2.39,4.64
10.182563781738281,3.53,1.5,-3.91,5.47
10.192670822143555,3.25,1.62,-4.35,5.66
10.202600955963135,2.84,1.99,-3.33,4.8
10.212478876113892,2.35,2.32,-1.58,3.66
10.222440719604492,2.08,2.38,-0.33,3.17
10.232532978057861,1.81,2.26,-0.25,2.9
10.24246597290039,1.25,1.86,-0.92,2.42
10.252359867095947,0.33,1.15,-1.31,1.77
10.262353897094727,-0.65,0.35,-1.23,1.43
10.272371768951416,-1.51,-0.45,-0.98,1.85
10.282409906387329,-2.16,-1.19,-0.81,2.59
10.292341709136963,-2.32,-1.85,-0.8,3.07
10.302311897277832,-2.0,-2.34,-0.91,3.2
10.31234073638916,-1.66,-2.85,-1.05,3.46
10.322353839874268,-1.33,-3.39,-1.07,3.79
10.332326889038086,-0.93,-3.88,-0.95,4.1
10.342347860336304,-0.54,-4.21,-0.74,4.3
10.352443933486938,-0.15,-4.36,-0.48,4.38
10.362347841262817,0.24,-4.37,-0.29,4.38
10.372540950775146,0.58,-4.34,-0.18,4.38
10.382531881332397,0.92,-4.25,-0.08,4.34
10.392366886138916,1.25,-4.05,-0.07,4.23
10.40235185623169,1.44,-3.86,-0.13,4.12
10.412457942962646,1.42,-3.5,-0.19,3.78
10.422500848770142,1.14,-2.94,-0.12,3.15
10.432421922683716,0.89,-2.23,0.12,2.4
10.44234585762024,0.8,-1.44,0.52,1.72
10.45240592956543,0.65,-0.6,0.91,1.26
10.462204933166504,0.37,0.32,1.29,1.37
10.472266912460327,-0.17,1.23,1.62,2.04
10.48223876953125,-0.82,2.09,1.84,2.9
10.49233102798462,-1.1,2.85,2.02,3.66
10.502405881881714,-1.13,3.41,1.78,4.0
10.512211799621582,-0.91,3.78,1.18,4.06
10.522388935089111,-0.22,4.43,0.87,4.51
10.532201766967773,0.44,5.47,1.28,5.63
10.542182922363281,0.45,6.55,2.24,6.93
10.552132844924927,-0.06,7.43,2.81,7.94
10.56214189529419,-0.8,6.5,2.02,6.85
10.57223892211914,-1.49,4.71,0.06,4.94
10.582090854644775,-2.25,2.75,-2.15,4.15
10.592319965362549,-2.77,1.04,-4.05,5.01
10.602118015289307,-2.39,0.54,-5.15,5.7
10.612256050109863,-1.8,0.9,-4.69,5.1
10.622248888015747,-1.47,0.86,-2.98,3.43
10.632035732269287,-1.37,0.69,-1.18,1.93
10.642055988311768,-1.09,0.46,-0.03,1.18
10.65222692489624,-0.65,0.04,0.11,0.66
10.662077903747559,-0.28,-0.31,-0.34,0.53
10.672221899032593,0.14,-0.81,-0.7,1.07
10.682233810424805,0.42,-1.49,-0.7,1.69
10.692042827606201,0.74,-2.1,-0.46,2.27
10.70221471786499,1.24,-2.39,-0.23,2.7
10.712151050567627,1.57,-2.57,-0.16,3.01
10.722190856933594,1.69,-2.75,-0.22,3.23
10.732173919677734,1.64,-2.86,-0.26,3.3
10.742119789123535,1.43,-2.96,-0.35,3.3
10.75191879272461,1.0,-3.11,-0.49,3.3
10.762101888656616,0.5,-3.22,-0.67,3.32
10.771988868713379,0.01,-3.28,-0.79,3.37
10.782074928283691,-0.4,-3.3,-0.78,3.41
10.791855812072754,-0.79,-3.32,-0.67,3.47
10.801831722259521,-1.21,-3.35,-0.63,3.61
10.811972856521606,-1.48,-3.31,-0.62,3.67
10.822028875350952,-1.6,-3.18,-0.66,3.62
10.832046031951904,-1.65,-3.0,-0.68,3.49
10.842010974884033,-1.52,-2.82,-0.59,3.25
10.851647853851318,-1.27,-2.6,-0.46,2.92
10.861799716949463,-0.99,-2.2,-0.28,2.42
10.871986865997314,-0.64,-1.54,0.06,1.66
10.881963729858398,-0.3,-0.78,0.48,0.96
10.89195990562439,-0.1,0.04,1.08,1.08
10.90195083618164,0.08,0.89,1.79,2.0
10.911935806274414,0.13,1.8,2.4,3.0
10.921851873397827,-0.05,2.65,2.76,3.82
10.931887865066528,-0.26,3.3,2.78,4.32
10.941919803619385,-0.44,3.92,2.56,4.7
10.951872825622559,-0.6,4.98,2.62,5.65
10.961705923080444,-0.37,6.18,3.24,6.98
10.971876859664917,-0.56,7.28,4.14,8.39
10.98185396194458,0.2,7.77,4.43,8.94
10.991912841796875,1.17,6.73,3.05,7.48
11.001850843429565,1.83,4.57,0.12,4.92
11.011868953704834,2.28,1.93,-2.99,4.22
11.021419048309326,2.41,-0.14,-5.42,5.93
11.031173706054688,2.71,-1.03,-6.99,7.56
11.041128873825073,2.91,-0.65,-7.33,7.91
11.051154851913452,2.62,0.15,-5.86,6.42
11.061317920684814,2.13,0.8,-3.36,4.05
11.071796894073486,1.46,1.12,-0.78,1.99
11.081614017486572,0.66,1.1,0.83,1.52
11.091715812683105,0.04,0.88,1.24,1.52
11.101749897003174,-0.43,0.61,0.97,1.22
11.111783027648926,-1.04,0.2,0.71,1.27
11.121709823608398,-1.52,-0.39,0.64,1.69
11.131669998168945,-1.7,-1.05,0.57,2.07
11.14157485961914,-1.57,-1.55,0.33,2.23
11.151665925979614,-1.21,-1.95,-0.2,2.3
11.161273002624512,-0.74,-2.34,-0.83,2.59
11.170945882797241,-0.29,-2.75,-1.37,3.08
11.180669784545898,0.07,-3.18,-1.8,3.65
11.190655708312988,0.34,-3.54,-2.12,4.14
11.200744867324829,0.63,-3.79,-2.32,4.48
11.21147084236145,0.81,-3.95,-2.39,4.68
11.221631050109863,0.89,-4.08,-2.3,4.76
11.231642723083496,0.88,-4.14,-2.06,4.7
11.241444826126099,0.8,-4.22,-1.68,4.61
11.251397848129272,0.91,-4.14,-1.24,4.41
11.261552810668945,1.02,-3.94,-0.82,4.15
11.271481990814209,1.06,-3.6,-0.36,3.77
11.281402826309204,1.07,-3.15,0.14,3.32
11.291568756103516,1.17,-2.64,0.75,2.98
11.301254749298096,1.3,-2.02,1.41,2.78
11.311360836029053,1.41,-1.23,2.02,2.75
11.321574926376343,1.62,-0.28,2.53,3.01
11.33163070678711,1.78,0.72,3.01,3.57
11.341376781463623,1.71,1.7,3.3,4.08
11.35145092010498,1.47,2.65,3.37,4.53
11.361515045166016,1.18,3.28,3.19,4.72
11.371532917022705,0.85,3.46,2.52,4.36
11.381399869918823,0.68,3.36,1.34,3.68
11.39127779006958,0.76,3.23,-0.06,3.31
11.401342868804932,1.07,3.11,-1.25,3.51
11.411253929138184,1.39,3.13,-1.88,3.9
11.421216011047363,1.42,3.19,-1.99,4.01
11.431326866149902,1.3,3.68,-1.49,4.17
11.441396713256836,1.13,4.82,-0.44,4.97
11.451194763183594,0.63,5.26,0.76,5.35
11.461345911026001,-0.53,4.75,1.19,4.92
11.471306800842285,-2.34,2.3,-0.14,3.28
11.481245040893555,-3.18,0.27,-2.18,3.86
11.491183757781982,-3.13,-0.38,-3.67,4.83
11.50125503540039,-2.69,-0.4,-4.14,4.95
11.511222839355469,-2.06,0.04,-3.4,3.97
11.521071910858154,-1.53,0.58,-2.19,2.73
11.531064987182617,-0.86,1.23,-0.99,1.79
11.541254997253418,-0.04,2.0,-0.3,2.02
11.551116943359375,0.73,2.31,-0.66,2.51
11.56117582321167,1.34,2.22,-1.47,2.98
11.571253776550293,2.05,1.86,-2.07,3.45
11.581146717071533,2.64,1.31,-2.28,3.72
11.59107494354248,2.9,0.87,-2.31,3.8
11.601093769073486,3.01,0.62,-2.33,3.85
11.61126184463501,3.06,0.49,-2.36,3.89
11.62121295928955,3.21,0.34,-2.37,4.0
11.631203889846802,3.38,0.12,-2.36,4.12
11.64115285873413,3.4,-0.21,-2.38,4.15
11.651150703430176,3.11,-0.63,-2.46,4.01
11.660923957824707,2.57,-1.07,-2.66,3.85
11.671096801757812,2.05,-1.38,-2.82,3.74
11.680884838104248,1.58,-1.7,-2.9,3.71
11.690930843353271,1.25,-1.95,-2.85,3.67
11.701027870178223,0.93,-2.16,-2.76,3.62
11.710931777954102,0.61,-2.3,-2.61,3.53
11.720956802368164,0.29,-2.33,-2.43,3.37
11.730924844741821,0.01,-2.2,-2.22,3.12
11.74084997177124,-0.13,-2.0,-1.99,2.82
11.750785827636719,-0.11,-1.77,-1.75,2.49
11.760952949523926,-0.01,-1.52,-1.55,2.17
11.770972728729248,0.07,-1.23,-1.44,1.89
11.780745029449463,0.15,-0.89,-1.34,1.61
11.790825843811035,0.14,-0.56,-1.23,1.35
11.800817012786865,0.13,-0.27,-1.09,1.13
11.810742855072021,0.12,-0.03,-1.0,1.0
11.820940017700195,0.08,0.1,-1.01,1.01
11.830731868743896,0.12,0.13,-1.12,1.13
11.840775966644287,0.19,0.11,-1.28,1.29
11.850879907608032,0.19,-0.01,-1.45,1.46
11.860779762268066,0.27,-0.15,-1.6,1.62
11.870733737945557,0.39,-0.32,-1.82,1.88
11.880890846252441,0.42,-0.55,-2.04,2.15
11.890731811523438,0.43,-0.76,-2.26,2.42
11.900665760040283,0.51,-0.98,-2.51,2.74
11.910969734191895,0.61,-1.21,-2.72,3.03
11.920790910720825,0.7,-1.37,-2.91,3.29
11.930758953094482,0.81,-1.34,-3.0,3.38
11.94079875946045,0.82,-1.16,-2.93,3.25
11.950727939605713,0.86,-0.82,-2.6,2.85
11.960785865783691,1.02,-0.41,-2.16,2.42
11.970792770385742,1.43,0.15,-1.7,2.22
11.980716705322266,1.87,0.78,-1.19,2.34
11.990671873092651,2.25,1.34,-0.67,2.7
12.000815868377686,2.63,1.8,-0.26,3.19
12.010812759399414,3.0,2.16,-0.04,3.69
12.020617008209229,3.35,2.41,-0.01,4.12
12.030696868896484,3.58,2.55,-0.18,4.39
12.040556907653809,3.84,2.6,-0.47,4.66
12.050543785095215,4.03,2.63,-0.72,4.86
12.060523986816406,4.07,2.72,-0.89,4.97
12.07045292854309,4.05,2.81,-1.05,5.03
12.080472946166992,3.86,2.82,-1.32,4.95
12.090398788452148,3.57,2.71,-1.89,4.86
12.100594997406006,3.2,2.44,-2.65,4.81
12.110704898834229,2.51,1.97,-3.37,4.64
12.120649814605713,1.67,1.44,-3.99,4.55
12.130599975585938,0.81,0.93,-4.39,4.55
12.140501976013184,0.0,0.51,-4.42,4.44
12.150490760803223,-0.58,0.2,-3.92,3.96
12.160445928573608,-0.76,0.01,-3.05,3.14
12.170629024505615,-0.6,-0.23,-2.11,2.2
12.180552005767822,-0.41,-0.53,-1.27,1.43
12.190301895141602,-0.13,-0.82,-0.71,1.09
12.200587749481201,0.22,-1.15,-0.32,1.21
12.210379838943481,0.58,-1.43,0.0,1.54
12.220524787902832,0.9,-1.63,0.31,1.88
12.230573892593384,1.22,-1.75,0.64,2.22
12.240338802337646,1.56,-1.81,0.89,2.54
12.250339984893799,1.84,-1.79,1.0,2.75
12.260295867919922,1.99,-1.73,1.06,2.84
12.270287036895752,2.13,-1.62,1.07,2.88
12.280432939529419,2.09,-1.49,1.03,2.76
12.29039192199707,1.88,-1.35,0.99,2.51
12.300460815429688,1.6,-1.18,0.91,2.18
12.310293912887573,1.32,-0.97,0.79,1.81
12.320478916168213,1.12,-0.72,0.73,1.51
12.330395936965942,0.92,-0.5,0.71,1.26
12.340150833129883,0.77,-0.34,0.71,1.1
12.350246906280518,0.64,-0.2,0.7,0.96
12.360285758972168,0.56,-0.07,0.69,0.89
12.370154857635498,0.55,0.1,0.72,0.91
12.380346775054932,0.58,0.33,0.84,1.07
12.390207767486572,0.69,0.6,1.04,1.38
12.400321960449219,0.86,0.9,1.4,1.87
12.410276889801025,1.11,1.26,1.89,2.52
12.420318841934204,1.28,1.65,2.28,3.09
12.430337905883789,1.51,1.97,2.41,3.45
12.440155982971191,1.74,2.12,2.19,3.5
12.45002293586731,1.81,2.04,1.68,3.2
12.460270881652832,1.81,1.81,1.01,2.75
12.47006893157959,1.76,1.42,0.36,2.28
12.480031967163086,1.49,0.91,-0.11,1.74
12.489965915679932,1.14,0.34,-0.36,1.24
12.500393867492676,0.92,-0.06,-0.41,1.0
12.510040760040283,0.78,-0.26,-0.32,0.88
12.52016305923462,0.64,-0.39,0.06,0.75
12.530158996582031,0.54,-0.53,0.7,1.03
12.540067911148071,0.51,-0.59,1.3,1.51
12.550065994262695,0.4,-0.52,1.67,1.79
12.56009578704834,0.41,-0.37,1.88,1.95
12.57004690170288,0.57,-0.19,2.01,2.09
12.580183982849121,0.63,-0.02,2.18,2.26
12.590105056762695,0.64,0.18,2.37,2.46
12.599830865859985,0.68,0.45,2.51,2.63
12.60991096496582,0.69,0.7,2.51,2.69
12.620018005371094,0.69,0.94,2.28,2.56
12.630055904388428,0.68,1.26,2.01,2.46
12.639952898025513,0.79,1.7,1.94,2.69
12.649831771850586,0.95,2.31,2.16,3.3
12.659936904907227,0.99,3.02,2.61,4.11
12.669995784759521,0.65,3.67,2.98,4.77
12.679975032806396,-0.13,3.87,2.77,4.76
12.690001964569092,-0.5,3.66,1.67,4.05
12.699687957763672,-0.54,3.05,0.29,3.11
12.7098069190979,-0.57,2.17,-1.02,2.46
12.719887733459473,-0.57,1.0,-2.15,2.43
12.729948997497559,-0.77,-0.08,-3.15,3.24
12.73996877670288,-1.1,-1.0,-3.73,4.01
12.749837875366211,-1.32,-1.59,-3.84,4.36
12.759576797485352,-1.23,-1.69,-3.27,3.88
12.76993179321289,-0.91,-1.54,-1.83,2.55
12.77980089187622,-0.99,-1.39,-0.24,1.72
12.789875984191895,-1.06,-1.37,0.8,1.9
12.79965591430664,-0.94,-1.46,1.49,2.28
12.809635877609253,-0.8,-1.68,1.93,2.68
12.81970500946045,-0.64,-2.02,2.16,3.02
12.829670906066895,-0.46,-2.35,2.13,3.2
12.83949899673462,-0.42,-2.59,1.8,3.18
12.84952974319458,-0.37,-2.82,1.39,3.16
12.859426975250244,-0.25,-3.08,1.02,3.25
12.869558811187744,-0.13,-3.25,0.73,3.33
12.879756927490234,-0.14,-3.28,0.52,3.32
12.889659881591797,-0.18,-3.24,0.29,3.25
12.899314880371094,-0.29,-3.15,0.09,3.16
12.908961772918701,-0.47,-3.04,-0.04,3.07
12.918554782867432,-0.62,-2.77,0.07,2.83
12.928966045379639,-0.69,-2.36,0.38,2.48
12.938585758209229,-0.91,-1.88,0.89,2.27
12.949345827102661,-1.28,-1.24,1.55,2.36
12.959342956542969,-1.58,-0.6,2.28,2.83
12.969422817230225,-1.75,0.12,2.93,3.41
12.979320049285889,-1.75,0.86,3.52,4.02
12.989356994628906,-1.69,1.57,3.89,4.52
12.999563932418823,-1.63,2.09,3.8,4.63
13.009326934814453,-1.43,2.29,3.06,4.08
13.019261837005615,-1.42,2.11,1.95,3.2
13.029295921325684,-1.47,1.6,0.91,2.35
13.039309978485107,-1.18,0.92,-0.11,1.5
13.049287796020508,-0.75,0.34,-1.03,1.31
13.059191703796387,-0.36,-0.08,-1.7,1.73
13.069244861602783,0.12,-0.24,-1.91,1.92
13.079177856445312,0.32,-0.15,-1.68,1.71
13.089274883270264,0.32,-0.01,-1.1,1.14
13.09914779663086,0.32,0.06,-0.28,0.42
13.109156847000122,0.25,0.24,0.47,0.58
13.119199752807617,0.2,0.53,1.1,1.23
13.129164934158325,0.08,0.88,1.76,1.96
13.139144897460938,-0.04,1.25,2.43,2.73
13.149153709411621,0.0,1.79,3.11,3.58
13.159118890762329,0.25,2.39,3.88,4.56
13.16917085647583,0.53,3.12,4.67,5.64
13.179333925247192,0.51,3.87,5.1,6.42
13.189188957214355,0.04,4.3,4.99,6.58
13.199081897735596,-0.1,4.36,4.38,6.18
13.209041833877563,0.12,4.26,3.62,5.59
13.21909785270691,0.13,3.91,2.66,4.73
13.229066848754883,0.1,3.11,1.41,3.41
13.239003896713257,0.12,1.58,-0.27,1.6
13.249016761779785,0.09,-0.4,-2.05,2.09
13.258972883224487,0.76,-1.07,-3.44,3.68
13.269021987915039,1.84,-1.37,-4.73,5.25
13.27905797958374,2.57,-1.98,-5.5,6.38
13.288946866989136,2.45,-1.87,-4.94,5.82
13.298977851867676,1.87,-1.62,-3.37,4.18
13.308990001678467,0.93,-1.68,-1.66,2.53
13.319005966186523,-0.03,-1.93,-0.24,1.94
13.329056739807129,-0.74,-2.09,0.75,2.34
13.33885383605957,-1.2,-2.16,1.38,2.83
13.348948001861572,-1.36,-2.25,1.59,3.07
13.358827829360962,-1.24,-2.41,1.67,3.18
13.368895053863525,-0.81,-2.58,1.78,3.23
13.378990888595581,-0.46,-2.71,1.82,3.29
13.389127731323242,-0.26,-2.79,1.73,3.29
13.398622989654541,-0.09,-2.87,1.45,3.21
13.408977031707764,-0.09,-2.97,0.93,3.11
13.418859004974365,-0.04,-3.03,0.29,3.04
13.428958892822266,0.11,-3.0,-0.21,3.0
13.438979864120483,0.24,-2.86,-0.44,2.9
13.448925971984863,0.39,-2.62,-0.47,2.69
13.45879602432251,0.49,-2.22,-0.32,2.29
13.46887993812561,0.61,-1.7,-0.13,1.81
13.478829860687256,0.79,-1.2,0.0,1.43
13.48878288269043,0.95,-0.75,0.17,1.22
13.498783826828003,0.99,-0.37,0.4,1.13
13.508800983428955,0.89,-0.02,0.65,1.1
13.51884388923645,0.72,0.28,0.9,1.18
13.52876901626587,0.57,0.58,1.07,1.34
13.538749933242798,0.61,0.94,1.24,1.67
13.548683881759644,0.74,1.36,1.43,2.1
13.558833837509155,0.79,1.75,1.61,2.5
13.56869888305664,0.78,2.13,1.71,2.84
13.578834056854248,1.03,3.09,2.11,3.88
13.588592052459717,1.53,4.19,2.97,5.35
13.598826885223389,0.6,5.26,4.15,6.72
13.608719825744629,-1.4,5.88,5.11,7.91
13.618828773498535,-2.05,5.33,4.64,7.35
13.628618717193604,-2.14,4.14,2.64,5.35
13.638936996459961,-2.03,2.66,0.09,3.34
13.648634910583496,-1.59,1.23,-2.53,3.23
13.65884780883789,-1.28,0.48,-4.64,4.83
13.66863489151001,-1.36,0.23,-5.69,5.85
13.678959846496582,-1.51,-0.07,-5.33,5.54
13.688601016998291,-1.66,-0.42,-3.72,4.09
13.69855284690857,-1.57,-0.82,-2.07,2.72
13.708670854568481,-1.19,-1.27,-0.85,1.93
13.718791007995605,-0.8,-1.74,-0.02,1.91
13.728450775146484,-0.41,-2.2,0.52,2.29
13.738409996032715,0.0,-2.64,0.86,2.77
13.748480796813965,0.4,-3.02,1.12,3.24
13.758513927459717,0.74,-3.39,1.25,3.68
13.768441915512085,0.94,-3.76,1.23,4.06
13.778381824493408,1.09,-4.06,0.98,4.31
13.788399934768677,1.24,-4.19,0.56,4.4
13.798455715179443,1.24,-4.08,0.26,4.27
13.808423042297363,1.19,-3.79,0.24,3.97
13.818452835083008,1.02,-3.36,0.5,3.54
13.828412055969238,0.61,-2.83,0.81,3.0
13.838356018066406,0.22,-2.31,1.03,2.53
13.848377704620361,-0.17,-1.79,1.11,2.11
13.85834789276123,-0.58,-1.29,1.23,1.87
13.86830997467041,-0.89,-0.84,1.29,1.77
13.878515720367432,-1.12,-0.35,1.31,1.75
13.888561725616455,-1.29,0.2,1.23,1.79
13.898500919342041,-1.31,0.76,1.01,1.82
13.908836841583252,-1.14,1.26,0.71,1.84
13.918591022491455,-0.78,1.75,0.45,1.96
13.928485870361328,-0.32,2.18,0.36,2.23
13.938468933105469,0.1,2.54,0.47,2.58
13.948432922363281,0.38,2.76,0.68,2.86
13.958294868469238,0.5,2.9,0.87,3.06
13.968239784240723,0.41,3.05,1.02,3.24
13.97840690612793,0.15,3.25,1.16,3.45
13.98817491531372,-0.25,3.64,1.53,3.95
13.998455047607422,-0.38,4.5,2.21,5.02
14.008270740509033,-0.17,5.26,3.0,6.05
14.018297910690308,-0.12,5.75,3.56,6.76
14.02816891670227,-0.03,5.36,3.17,6.22
14.038159847259521,0.39,4.0,1.31,4.22
14.048166751861572,0.66,2.1,-1.12,2.46
14.058207035064697,1.23,0.38,-2.91,3.18
14.068150997161865,1.94,-0.59,-4.09,4.56
14.078139781951904,2.42,-0.72,-4.56,5.21
14.088075876235962,2.28,-0.46,-3.93,4.56
14.098119735717773,2.31,-0.34,-2.59,3.48
14.108067989349365,2.22,-0.22,-0.96,2.42
14.118130922317505,1.95,-0.44,0.46,2.05
14.12847375869751,1.48,-1.02,1.1,2.1
14.137895822525024,0.94,-1.42,0.92,1.93
14.14822793006897,0.01,-1.8,0.56,1.88
14.158377885818481,-0.91,-2.26,0.39,2.46
14.168120861053467,-1.5,-2.63,0.38,3.05
14.178340911865234,-1.82,-2.91,0.33,3.44
14.188254833221436,-1.87,-3.14,0.12,3.65
14.19832992553711,-1.65,-3.34,-0.2,3.73
14.2082679271698,-1.31,-3.48,-0.52,3.75
14.21805191040039,-0.93,-3.59,-0.76,3.78
14.228250980377197,-0.5,-3.64,-0.85,3.77
14.238226890563965,-0.09,-3.62,-0.87,3.72
14.248148918151855,0.28,-3.53,-0.85,3.64
14.25823974609375,0.56,-3.35,-0.84,3.49
14.267998933792114,0.86,-3.14,-0.78,3.34
14.278197765350342,1.08,-2.86,-0.61,3.11
14.28821587562561,1.16,-2.5,-0.4,2.78
14.298127889633179,1.13,-2.09,-0.15,2.38
14.307997703552246,1.03,-1.56,0.15,1.87
14.317856788635254,0.79,-0.97,0.49,1.34
14.328065872192383,0.54,-0.32,0.94,1.13
14.338059902191162,0.18,0.29,1.49,1.52
14.348017930984497,-0.37,0.89,2.09,2.3
14.358162879943848,-0.93,1.58,2.7,3.26
14.367931842803955,-1.17,2.18,3.08,3.95
14.378101825714111,-1.3,2.67,3.01,4.22
14.38789176940918,-1.2,2.95,2.31,3.93
14.398068904876709,-0.67,3.13,1.5,3.53
14.407781839370728,0.27,3.62,1.08,3.78
14.417748928070068,0.82,4.33,1.31,4.59
14.427851915359497,0.34,5.17,2.0,5.55
14.43784785270691,-1.18,5.22,1.98,5.7
14.44783091545105,-2.52,3.85,0.63,4.64
14.457782745361328,-3.55,2.35,-1.09,4.39
14.467748880386353,-3.97,1.21,-2.69,4.94
14.477745056152344,-3.14,0.77,-3.88,5.05
14.487676858901978,-2.34,0.87,-3.84,4.58
14.497660875320435,-1.85,0.95,-2.51,3.25
14.507637977600098,-1.51,1.04,-0.73,1.97
14.51774287223816,-1.43,0.89,0.43,1.73
14.527655839920044,-1.08,0.62,0.27,1.27
14.53758192062378,-0.27,0.29,-0.3,0.49
14.547600746154785,0.38,-0.42,-0.51,0.76
14.557642936706543,0.94,-1.16,-0.36,1.53
14.567579746246338,1.32,-1.72,-0.14,2.17
14.577571868896484,1.43,-2.17,-0.02,2.59
14.587528705596924,1.39,-2.57,-0.09,2.92
14.597523927688599,1.42,-2.95,-0.28,3.28
14.607540845870972,1.51,-3.31,-0.51,3.67
14.617552757263184,1.36,-3.69,-0.73,3.99
14.627508878707886,0.99,-3.99,-0.78,4.18
14.63756799697876,0.6,-4.08,-0.61,4.16
14.64754581451416,0.16,-4.09,-0.33,4.1
14.657480716705322,-0.33,-3.99,0.01,4.0
14.667490005493164,-0.78,-3.73,0.38,3.82
14.677485942840576,-1.09,-3.36,0.64,3.58
14.687448978424072,-1.33,-2.96,0.8,3.34
14.697603702545166,-1.35,-2.46,0.89,2.94
14.707490921020508,-1.11,-1.83,0.95,2.34
14.717447757720947,-0.79,-1.21,0.95,1.72
14.727389812469482,-0.67,-0.52,0.98,1.29
14.737375736236572,-0.54,0.3,1.11,1.27
14.747313022613525,-0.24,1.27,1.32,1.84
14.757473945617676,-0.05,2.25,1.48,2.69
14.76730990409851,0.04,2.96,1.46,3.3
14.777310848236084,0.01,3.39,1.08,3.55
14.787348747253418,-0.33,3.61,0.52,3.66
14.79727292060852,-0.68,3.49,0.23,3.56
14.807324886322021,-0.68,3.8,0.36,3.87
14.817278861999512,-0.13,4.87,1.11,4.99
14.827393054962158,0.29,5.7,2.43,6.2
14.83738088607788,0.95,5.91,3.73,7.05
14.847397804260254,1.15,4.76,3.28,5.89
14.857236862182617,1.11,2.85,1.12,3.25
14.867239952087402,1.07,0.93,-1.17,1.83
14.877243995666504,1.22,-0.11,-2.96,3.2
14.887256860733032,2.22,0.01,-3.82,4.41
14.897263050079346,2.79,0.62,-3.49,4.51
14.907209873199463,2.87,1.15,-2.23,3.81
14.917198896408081,2.79,1.4,-0.66,3.19
14.92720079421997,2.18,1.6,0.41,2.73
14.937283992767334,1.55,1.38,0.65,2.17
14.947162866592407,1.15,0.88,0.18,1.45
14.957435846328735,0.65,0.31,-0.54,0.9
14.967164993286133,-0.04,-0.43,-1.07,1.15
14.977122783660889,-0.67,-1.16,-1.29,1.85
14.987081050872803,-1.11,-1.65,-1.18,2.31
14.997207880020142,-1.22,-2.1,-0.86,2.57
15.007312774658203,-1.08,-2.51,-0.51,2.77
15.017273902893066,-0.95,-2.99,-0.25,3.14
15.027118921279907,-0.79,-3.51,-0.15,3.6
15.037102937698364,-0.47,-3.94,-0.24,3.97
15.04709005355835,-0.15,-4.26,-0.39,4.28
15.057072877883911,0.05,-4.48,-0.54,4.51
15.067032814025879,0.24,-4.54,-0.6,4.58
15.077025890350342,0.5,-4.41,-0.54,4.47
15.086980819702148,0.77,-4.07,-0.41,4.16
15.09704303741455,0.93,-3.62,-0.3,3.74
15.107033729553223,0.95,-3.04,-0.23,3.19
15.116994857788086,0.99,-2.35,0.0,2.55
15.126999855041504,1.07,-1.72,0.3,2.04
15.136937856674194,0.84,-1.11,0.56,1.5
15.147011756896973,0.22,-0.61,0.73,0.97
15.15692687034607,-0.44,-0.08,0.8,0.91
15.166893005371094,-0.95,0.52,0.94,1.43
15.176915884017944,-1.08,1.12,1.21,1.97
15.186945915222168,-0.99,1.7,1.49,2.46
15.19693374633789,-0.7,2.4,1.59,2.96
15.20683479309082,-0.11,3.45,2.0,3.98
15.216897010803223,0.83,4.47,2.61,5.24
15.22677993774414,0.37,5.63,3.25,6.51
15.236870765686035,-1.57,5.4,2.98,6.36
15.246785879135132,-2.51,3.56,0.94,4.45
15.256746768951416,-2.73,2.27,-1.65,3.91
15.266765832901001,-2.45,1.78,-3.91,4.94
15.276964902877808,-1.79,2.06,-5.04,5.73
15.287102937698364,-1.28,2.57,-4.14,5.03
15.296923875808716,-1.04,2.81,-1.85,3.52
15.306751728057861,-1.15,2.79,0.11,3.01
15.31678295135498,-1.25,2.39,0.94,2.85
15.32673192024231,-0.84,1.7,0.51,1.96
15.336771011352539,-0.27,0.78,-0.27,0.86
15.346941947937012,0.15,-0.16,-0.55,0.59
15.356783866882324,0.74,-0.82,-0.36,1.16
15.366705894470215,1.23,-1.21,0.18,1.73
15.37664794921875,1.45,-1.38,0.65,2.1
15.386612892150879,1.52,-1.47,0.71,2.23
15.396677017211914,1.48,-1.58,0.49,2.21
15.406606912612915,1.38,-1.79,0.11,2.26
15.416614055633545,1.24,-2.07,-0.33,2.43
15.426601886749268,1.0,-2.38,-0.69,2.67
15.43662977218628,0.67,-2.69,-0.9,2.91
15.446745872497559,0.26,-2.91,-0.91,3.06
15.456683874130249,-0.17,-3.0,-0.72,3.08
15.466616868972778,-0.64,-3.05,-0.32,3.13
15.47654390335083,-0.96,-3.07,0.14,3.21
15.486562728881836,-1.16,-3.02,0.53,3.27
15.496646881103516,-1.24,-2.89,0.76,3.23
15.506669044494629,-1.14,-2.58,0.91,2.96
15.516503810882568,-1.05,-2.09,0.92,2.51
15.526594877243042,-1.0,-1.58,0.85,2.05
15.536653995513916,-0.89,-0.95,0.68,1.46
15.546541929244995,-0.6,-0.25,0.49,0.81
15.55677604675293,-0.35,0.36,0.49,0.7
15.566613912582397,-0.17,0.93,0.65,1.14
15.576599836349487,-0.25,1.46,0.52,1.56
15.586565017700195,-0.43,1.91,-0.12,1.96
15.596482753753662,-0.51,2.19,-0.6,2.32
15.60654091835022,-0.47,2.96,-0.18,3.0
15.616444826126099,0.06,4.07,0.98,4.18
15.6264488697052,-0.22,4.91,2.5,5.51
15.636462926864624,0.12,5.19,3.25,6.12
15.64667797088623,0.86,3.8,2.28,4.51
15.656574726104736,1.67,2.2,-0.09,2.76
15.666416883468628,2.25,1.27,-2.27,3.43
15.676487922668457,2.2,1.12,-3.39,4.19
15.68639087677002,2.01,1.3,-2.81,3.69
15.69645881652832,1.8,1.49,-1.54,2.79
15.706315994262695,1.67,1.91,-0.45,2.57
15.716327905654907,1.74,1.97,0.3,2.64
15.726243019104004,1.43,1.45,0.05,2.03
15.736272811889648,0.93,0.73,-1.05,1.58
15.746312856674194,0.17,-0.08,-1.71,1.72
15.75629472732544,-0.83,-0.79,-1.69,2.04
15.766438961029053,-1.7,-1.3,-1.36,2.53
15.776247024536133,-2.31,-1.74,-0.96,3.04
15.786192893981934,-2.59,-2.18,-0.61,3.43
15.796405792236328,-2.59,-2.67,-0.52,3.75
15.806267738342285,-2.36,-3.21,-0.67,4.04
15.81626272201538,-1.85,-3.66,-0.89,4.19
15.826096057891846,-1.38,-4.0,-1.07,4.36
15.836138725280762,-1.0,-4.28,-1.03,4.51
15.846203804016113,-0.44,-4.33,-0.8,4.42
15.856183052062988,0.15,-4.12,-0.53,4.15
15.86618185043335,0.65,-3.82,-0.23,3.88
15.87601900100708,1.13,-3.38,0.01,3.56
15.886165857315063,1.62,-2.85,0.12,3.28
15.89611291885376,2.01,-2.39,0.39,3.14
15.90622091293335,2.13,-1.87,0.92,2.97
15.916215896606445,1.92,-1.31,1.47,2.75
15.926118850708008,1.5,-0.64,1.76,2.39
15.935993909835815,1.0,0.14,1.75,2.02
15.94621992111206,0.52,0.88,1.76,2.03
15.95620083808899,0.05,1.53,1.99,2.51
15.966075897216797,-0.46,2.21,2.32,3.23
15.976006031036377,-0.99,2.85,2.54,3.94
15.985991954803467,-1.24,3.44,2.49,4.42
15.99606990814209,-1.31,3.8,2.01,4.49
16.006062984466553,-1.37,3.69,1.35,4.16
16.01620101928711,-0.83,3.63,0.79,3.8
16.025994777679443,0.61,4.3,0.54,4.37
16.035935878753662,1.26,4.52,0.27,4.7
16.045976877212524,0.46,4.34,0.23,4.37
16.055978775024414,-0.27,3.4,-0.37,3.43
16.066038846969604,-1.0,1.73,-1.52,2.51
16.07595205307007,-1.47,0.58,-2.7,3.12
16.085885047912598,-1.83,0.22,-3.72,4.15
16.095871925354004,-1.72,0.31,-3.85,4.22
16.105867862701416,-1.63,0.47,-2.88,3.34
16.116063833236694,-1.57,0.51,-1.32,2.11
16.12577986717224,-1.4,0.46,-0.01,1.47
16.13583493232727,-1.17,0.4,0.64,1.39
16.14591693878174,-0.98,0.15,0.71,1.21
16.155837059020996,-0.69,-0.18,0.41,0.82
16.16583490371704,-0.01,-0.44,0.15,0.46
16.175789833068848,0.66,-0.81,0.12,1.05
16.185781955718994,1.3,-1.22,0.11,1.78
16.195894718170166,1.74,-1.52,-0.01,2.31
16.205877780914307,1.86,-1.76,-0.32,2.58
16.21578073501587,1.75,-2.07,-0.72,2.8
16.22570490837097,1.53,-2.38,-1.15,3.05
16.235801935195923,1.25,-2.68,-1.49,3.31
16.245789051055908,0.95,-3.0,-1.75,3.6
16.255712032318115,0.69,-3.33,-1.77,3.83
16.26568603515625,0.29,-3.58,-1.54,3.9
16.275749921798706,-0.12,-3.7,-1.09,3.85
16.285708904266357,-0.53,-3.65,-0.53,3.72
16.29567790031433,-0.84,-3.37,0.01,3.47
16.305726051330566,-1.09,-2.97,0.47,3.19
16.315647840499878,-1.37,-2.57,0.85,3.03
16.325690746307373,-1.49,-2.13,1.09,2.81
16.33568787574768,-1.42,-1.68,1.32,2.56
16.345706939697266,-1.18,-1.16,1.44,2.19
16.355597972869873,-0.78,-0.62,1.44,1.75
16.365630865097046,-0.48,-0.05,1.29,1.37
16.375571727752686,-0.22,0.66,1.09,1.29
16.385575771331787,0.09,1.42,0.88,1.67
16.39557695388794,0.39,2.05,0.58,2.16
16.40556287765503,0.55,2.39,0.21,2.46
16.415490865707397,0.42,2.48,-0.19,2.52
16.42550492286682,0.12,2.55,-0.48,2.59
16.435492992401123,-0.39,3.01,-0.18,3.04
16.445647716522217,-0.45,3.96,0.79,4.06
16.455463886260986,-0.69,4.94,2.09,5.4
16.465672969818115,-0.16,5.86,3.04,6.6
16.47554087638855,0.56,5.06,2.45,5.64
16.48539090156555,1.33,3.05,0.25,3.33
16.495474815368652,2.59,1.51,-2.36,3.81
16.505449771881104,3.37,0.79,-4.44,5.62
16.515686988830566,3.06,0.95,-5.18,6.09
16.525382041931152,2.28,1.35,-4.04,4.83
16.535401821136475,1.77,1.59,-2.47,3.42
16.54544186592102,1.45,1.95,-1.45,2.82
16.55543088912964,1.25,2.12,-0.9,2.62
16.565375804901123,1.1,1.57,-0.68,2.03
16.575511932373047,0.76,0.87,-0.82,1.41
16.585576057434082,0.26,0.41,-0.91,1.03
16.595314979553223,-0.4,-0.13,-0.57,0.7
16.605515956878662,-1.05,-0.55,0.07,1.18
16.61538600921631,-1.44,-1.01,0.59,1.85
16.625423908233643,-1.55,-1.52,0.76,2.3
16.63531184196472,-1.44,-2.07,0.61,2.59
16.64546298980713,-1.22,-2.71,0.21,2.97
16.65541172027588,-0.95,-3.27,-0.34,3.42
16.665299892425537,-0.59,-3.74,-0.87,3.88
16.675257921218872,-0.2,-4.05,-1.25,4.24
16.68528985977173,0.1,-4.24,-1.48,4.49
16.69535183906555,0.4,-4.31,-1.53,4.59
16.705341815948486,0.64,-4.31,-1.46,4.59
16.7152898311615,0.71,-4.27,-1.31,4.52
16.725159883499146,0.78,-4.1,-1.15,4.32
16.735196828842163,0.88,-3.8,-0.96,4.01
16.745299816131592,0.93,-3.47,-0.68,3.65
16.75524091720581,1.09,-3.13,-0.37,3.33
16.765381813049316,1.26,-2.64,0.07,2.92
16.775235891342163,1.42,-1.97,0.64,2.51
16.784821033477783,1.41,-1.18,1.26,2.22
16.79443073272705,1.21,-0.35,1.84,2.22
16.804709911346436,0.89,0.55,2.39,2.6
16.8145809173584,0.59,1.48,2.86,3.27
16.824971914291382,0.41,2.34,3.23,4.0
16.835290908813477,0.39,3.03,3.33,4.51
16.845160007476807,0.23,3.57,3.0,4.66
16.85529899597168,0.2,3.91,2.2,4.49
16.864888906478882,0.34,4.04,1.16,4.21
16.874430894851685,0.44,3.96,0.13,3.98
16.884387016296387,0.5,4.27,-0.55,4.33
16.89432191848755,0.73,5.47,-0.5,5.54
16.904743909835815,0.36,6.68,0.18,6.69
16.91520404815674,-0.66,7.59,0.97,7.68
16.925020933151245,-1.94,6.19,0.52,6.5
16.93502187728882,-2.49,3.72,-1.46,4.7
16.945050716400146,-2.65,1.28,-3.68,4.71
16.955135822296143,-2.53,-0.49,-5.53,6.1
16.964959859848022,-2.28,-0.99,-6.46,6.92
16.974925994873047,-1.99,-0.67,-5.62,5.99
16.98491096496582,-1.54,-0.21,-3.45,3.78
16.99482488632202,-1.17,0.41,-0.98,1.58
17.004952907562256,-0.68,1.3,0.86,1.7
17.014898777008057,0.19,1.71,1.41,2.22
17.025023937225342,0.73,1.62,0.92,2.0
17.034945011138916,0.82,1.35,0.01,1.57
17.04490089416504,1.22,0.89,-0.84,1.72
17.054863929748535,1.64,0.23,-1.39,2.16
17.06491184234619,1.85,-0.41,-1.91,2.69
17.074790000915527,1.9,-0.93,-2.54,3.3
17.08482599258423,1.89,-1.4,-3.16,3.93
17.09481692314148,1.9,-1.73,-3.56,4.39
17.104729890823364,1.87,-1.98,-3.59,4.5
17.114744901657104,1.72,-2.22,-3.2,4.25
17.124833822250366,1.4,-2.49,-2.58,3.84
17.134801864624023,1.1,-2.78,-2.01,3.6
17.144754886627197,0.76,-2.97,-1.55,3.43
17.154683828353882,0.47,-3.06,-1.12,3.29
17.164694786071777,0.26,-3.16,-0.61,3.22
17.17470693588257,0.07,-3.14,-0.1,3.14
17.18472385406494,-0.07,-3.1,0.22,3.1
17.194617748260498,-0.21,-3.06,0.4,3.09
17.204778909683228,-0.28,-2.97,0.54,3.03
17.214756965637207,-0.03,-2.87,0.55,2.92
17.22461485862732,0.37,-2.65,0.45,2.71
17.234473705291748,0.7,-2.3,0.36,2.43
17.24473476409912,1.02,-1.83,0.33,2.12
17.2545268535614,1.3,-1.26,0.35,1.84
17.264599800109863,1.49,-0.67,0.37,1.67
17.274582862854004,1.63,-0.03,0.36,1.66
17.284530878067017,1.74,0.62,0.34,1.87
17.29459571838379,1.82,1.17,0.23,2.17
17.30457305908203,1.99,1.51,-0.12,2.5
17.31454372406006,2.1,1.61,-0.79,2.76
17.324727058410645,2.25,1.48,-1.59,3.12
17.334517002105713,2.35,1.15,-2.37,3.53
17.344555854797363,2.35,0.77,-3.07,3.94
17.35457682609558,2.45,0.39,-3.59,4.36
17.364484786987305,2.64,0.18,-3.9,4.71
17.374436855316162,2.64,0.25,-3.88,4.69
17.384459972381592,2.54,0.5,-3.55,4.39
17.394537925720215,2.42,0.82,-3.01,3.94
17.404443740844727,2.45,1.31,-2.6,3.8
17.414516925811768,2.49,1.91,-2.39,3.94
17.424657821655273,2.66,2.34,-2.07,4.1
17.43441104888916,2.98,2.79,-1.46,4.33
17.444432735443115,3.78,3.72,-0.72,5.35
17.45453691482544,3.96,4.45,0.1,5.95
17.464438915252686,3.4,4.2,0.48,5.42
17.474339962005615,3.81,3.02,-0.53,4.89
17.484375,4.6,1.8,-2.66,5.61
17.494313716888428,4.52,1.26,-4.79,6.7
17.50432586669922,3.89,1.35,-6.2,7.44
17.51432490348816,3.23,1.69,-6.61,7.54
17.524291038513184,2.93,2.06,-6.36,7.29
17.534220933914185,2.62,2.26,-6.05,6.96
17.544266939163208,2.13,2.31,-6.02,6.79
17.55427598953247,1.48,2.17,-6.14,6.67
17.564209938049316,0.86,1.87,-6.1,6.43
17.574219703674316,0.32,1.43,-5.56,5.74
17.584218978881836,-0.02,0.93,-4.5,4.59
17.594159841537476,-0.16,0.54,-3.38,3.42
17.604164838790894,-0.22,0.2,-2.32,2.33
17.614168882369995,-0.12,-0.19,-1.43,1.44
17.624290943145752,0.15,-0.56,-0.74,0.94
17.634198904037476,0.64,-0.99,-0.31,1.21
17.644207000732422,1.27,-1.44,-0.18,1.92
17.654129028320312,1.82,-1.89,-0.32,2.64
17.664126873016357,2.34,-2.35,-0.65,3.37
17.674153804779053,2.78,-2.81,-1.06,4.09
17.684170722961426,2.97,-3.17,-1.44,4.57
17.693981885910034,2.8,-3.47,-1.89,4.84
17.70416283607483,2.43,-3.8,-2.28,5.05
17.714138984680176,2.16,-4.05,-2.67,5.31
17.724119901657104,1.92,-4.09,-2.94,5.39
17.734068870544434,1.68,-4.03,-3.07,5.33
17.74395489692688,1.48,-3.8,-2.91,5.0
17.754048824310303,1.18,-3.49,-2.28,4.33
17.76435375213623,0.98,-3.1,-1.53,3.59
17.77423882484436,0.9,-2.62,-0.9,2.91
17.784080028533936,0.84,-1.98,-0.48,2.2
17.794225931167603,0.75,-1.37,-0.22,1.57
17.804097890853882,0.49,-0.93,-0.02,1.05
17.813990831375122,0.16,-0.64,0.08,0.66
17.82400894165039,-0.11,-0.45,-0.09,0.47
17.834028720855713,-0.36,-0.21,-0.51,0.65
17.844008922576904,-0.61,0.14,-0.77,0.99
17.853981971740723,-0.69,0.57,-0.73,1.15
17.86393976211548,-0.5,1.05,-0.35,1.21
17.873896837234497,-0.01,1.62,0.37,1.66
17.884177923202515,0.74,2.62,1.49,3.1
17.89397692680359,1.5,3.88,2.6,4.9
17.90393304824829,1.75,4.86,3.53,6.25
17.91383385658264,1.35,5.04,3.91,6.52
17.92392587661743,1.02,4.58,3.15,5.65
17.9338538646698,0.56,3.85,1.5,4.16
17.9438898563385,-0.19,3.05,0.08,3.05
17.95394992828369,-0.63,2.71,-0.98,2.94
17.963834762573242,-1.19,1.92,-1.67,2.8
17.973883867263794,-2.03,1.29,-1.75,2.97
17.98380184173584,-1.81,1.22,-2.0,2.96
17.99379587173462,-1.88,0.75,-1.66,2.61
18.00377082824707,-1.79,0.55,-1.14,2.19
18.013723850250244,-1.25,0.33,-0.63,1.43
18.023828983306885,-1.01,-0.02,-0.13,1.01
18.03381872177124,-0.81,-0.38,0.23,0.92
18.043675899505615,-0.34,-0.69,0.49,0.91
18.05375576019287,0.13,-0.89,0.68,1.12
18.06364679336548,0.39,-0.99,0.97,1.43
18.073659896850586,0.63,-1.09,1.29,1.8
18.083662033081055,0.71,-1.12,1.53,2.02
18.093612909317017,0.77,-1.06,1.64,2.09
18.103693962097168,0.79,-0.97,1.63,2.05
18.113587856292725,0.63,-0.83,1.56,1.87
18.123610973358154,0.47,-0.64,1.56,1.75
18.13366985321045,0.24,-0.38,1.57,1.63
18.14362096786499,0.0,-0.04,1.55,1.55
18.153584003448486,-0.28,0.23,1.37,1.41
18.16355276107788,-0.43,0.52,1.28,1.44
18.1735577583313,-0.62,0.8,1.21,1.57
18.183544874191284,-0.82,1.04,1.19,1.78
18.193506717681885,-1.0,1.09,1.03,1.8
18.203550815582275,-1.41,1.09,0.96,2.02
18.213644981384277,-1.33,0.85,0.78,1.76
18.223506927490234,-1.02,0.77,0.59,1.4
18.233482837677002,-0.97,0.77,0.55,1.35
18.24352192878723,-0.92,0.76,0.71,1.38
18.253443717956543,-0.68,0.84,1.14,1.57
18.263346910476685,-0.47,0.9,1.66,1.94
18.273525714874268,-0.45,0.99,1.93,2.21
18.283471822738647,-0.4,1.12,2.0,2.32
18.29355788230896,-0.32,1.18,1.94,2.29
18.3034930229187,-0.3,1.04,1.75,2.05
18.313336849212646,-0.43,0.61,1.29,1.49
18.323351860046387,-0.56,0.08,0.51,0.76
18.333415031433105,-0.65,-0.46,-0.45,0.91
18.343469858169556,-0.72,-0.91,-1.18,1.65
18.353507041931152,-0.86,-1.21,-1.45,2.07
18.363300800323486,-0.97,-1.3,-1.26,2.05
18.373315811157227,-0.86,-1.24,-0.72,1.67
18.3833589553833,-0.71,-1.21,0.02,1.4
18.39337396621704,-0.63,-1.23,0.58,1.49
18.403319835662842,-0.47,-1.26,0.84,1.58
18.413293838500977,-0.28,-1.26,0.99,1.62
18.42336392402649,-0.15,-1.23,1.13,1.67
18.43331003189087,0.0,-1.25,1.37,1.85
18.44331979751587,0.11,-1.26,1.65,2.07
18.45325493812561,0.16,-1.31,1.77,2.2
18.463314056396484,0.31,-1.4,1.73,2.24
18.473340034484863,0.43,-1.43,1.63,2.21
18.483186721801758,0.55,-1.48,1.57,2.22
18.493132829666138,0.56,-1.48,1.57,2.22
18.50327205657959,0.52,-1.43,1.53,2.15
18.51338005065918,0.45,-1.31,1.44,1.99
18.523128986358643,0.27,-1.18,1.38,1.83
18.53316593170166,0.03,-1.03,1.36,1.7
18.543142795562744,-0.13,-0.83,1.38,1.61
18.553189754486084,-0.29,-0.7,1.33,1.53
18.563082933425903,-0.45,-0.55,1.26,1.44
18.57317590713501,-0.56,-0.31,1.2,1.36
18.58309292793274,-0.64,-0.06,1.22,1.37
18.592979907989502,-0.79,0.21,1.32,1.55
18.60307788848877,-0.96,0.53,1.44,1.81
18.613096714019775,-1.11,0.86,1.49,2.04
18.62306499481201,-1.22,1.18,1.45,2.23
18.633049964904785,-1.32,1.52,1.34,2.41
18.64302086830139,-1.37,1.79,1.21,2.55
18.653010845184326,-1.28,1.99,1.15,2.63
18.663005828857422,-1.1,2.18,1.15,2.69
18.672963857650757,-0.86,2.42,1.17,2.82
18.682981967926025,-0.61,2.6,1.24,2.94
18.69298791885376,-0.34,2.63,1.31,2.95
18.703057765960693,-0.16,2.58,1.33,2.9
18.712923049926758,-0.11,2.46,1.3,2.78
18.72295379638672,-0.12,2.42,1.38,2.78
18.732866764068604,0.0,2.76,1.69,3.23
18.742868900299072,0.15,3.15,2.3,3.9
18.752930879592896,0.2,3.43,3.12,4.64
18.762874841690063,0.66,3.29,3.18,4.62
18.772916793823242,0.82,2.38,2.11,3.28
18.78286075592041,0.73,1.21,0.23,1.43
18.792897939682007,0.91,0.17,-1.61,1.85
18.803032875061035,1.09,-0.77,-2.84,3.13
18.812832832336426,1.49,-1.3,-3.47,3.99
18.8228440284729,1.86,-1.37,-3.47,4.16
18.83274483680725,2.03,-1.29,-2.77,3.66
18.84289288520813,2.33,-1.24,-1.79,3.18
18.85281801223755,2.54,-1.3,-1.04,3.03
18.862714767456055,2.52,-1.54,-0.57,3.0
18.872788906097412,2.13,-1.81,-0.23,2.8
18.88308882713318,1.54,-2.08,0.12,2.59
18.892392873764038,0.81,-2.29,0.55,2.49
18.90305995941162,-0.03,-2.47,0.96,2.65
18.912707805633545,-0.96,-2.6,1.24,3.03
18.922993898391724,-1.63,-2.73,1.3,3.43
18.93283176422119,-1.81,-2.85,1.14,3.56
18.9427547454834,-1.65,-2.93,0.9,3.48
18.95278787612915,-1.33,-2.97,0.63,3.31
18.962761878967285,-1.04,-3.02,0.32,3.21
18.972737789154053,-0.73,-3.07,-0.04,3.15
18.98263692855835,-0.34,-3.01,-0.37,3.05
18.99274492263794,-0.04,-2.91,-0.65,2.98
19.002671718597412,0.18,-2.81,-0.74,2.91
19.012656927108765,0.4,-2.67,-0.7,2.78
19.022884845733643,0.53,-2.44,-0.53,2.55
19.032729864120483,0.52,-2.19,-0.21,2.26
19.042662858963013,0.42,-1.92,0.27,1.98
19.05266571044922,0.39,-1.57,0.88,1.84
19.062583923339844,0.2,-1.09,1.51,1.87
19.072624921798706,0.02,-0.39,2.06,2.09
19.082515716552734,0.04,0.26,2.44,2.45
19.092562913894653,0.22,0.81,2.47,2.6
19.102534770965576,0.4,1.37,2.32,2.72
19.11254596710205,0.48,1.95,2.09,2.89
19.12254571914673,0.45,2.47,1.92,3.16
19.132232904434204,0.24,2.93,1.82,3.45
19.141831874847412,-0.13,3.38,1.7,3.78
19.15193271636963,-0.52,3.67,1.49,3.99
19.16206693649292,-0.83,3.79,1.15,4.04
19.172224044799805,-1.01,3.8,0.86,4.02
19.18202781677246,-0.85,3.96,0.98,4.16
19.19251585006714,-0.49,4.26,1.52,4.54
19.20254683494568,-1.07,4.47,2.6,5.28
19.212506771087646,-1.76,4.54,3.47,5.97
19.222496032714844,-2.03,4.43,3.47,5.98
19.23240375518799,-1.98,4.02,2.7,5.23
19.242409706115723,-1.87,2.91,1.33,3.7
19.252471923828125,-1.59,1.2,-0.42,2.03
19.262330055236816,-1.21,-0.51,-2.16,2.52
19.27244281768799,-0.81,-1.74,-3.61,4.08
19.282330989837646,-0.35,-2.22,-4.57,5.09
19.292366981506348,-0.16,-2.21,-4.72,5.21
19.302388906478882,-0.18,-2.28,-3.78,4.41
19.312304973602295,-0.32,-2.44,-2.36,3.4
19.32227897644043,-0.58,-2.55,-0.94,2.77
19.33224582672119,-0.49,-2.69,-0.09,2.73
19.342286825180054,-0.21,-2.93,0.19,2.94
19.352210998535156,-0.06,-3.08,0.26,3.09
19.362256050109863,0.02,-3.2,0.38,3.22
19.37224292755127,0.25,-3.37,0.64,3.43
19.382237911224365,0.5,-3.51,0.9,3.65
19.392261028289795,0.67,-3.47,0.94,3.65
19.4021897315979,0.78,-3.32,0.69,3.47
19.412163734436035,0.9,-3.08,0.44,3.23
19.422078847885132,0.94,-2.83,0.34,3.0
19.432124853134155,0.86,-2.52,0.35,2.68
19.44240689277649,0.6,-2.17,0.4,2.28
19.45216703414917,0.3,-1.78,0.4,1.84
19.462167739868164,0.05,-1.32,0.41,1.38
19.47218084335327,-0.21,-0.86,0.41,0.97
19.482234954833984,-0.36,-0.34,0.42,0.64
19.492106914520264,-0.53,0.18,0.37,0.67
19.502116918563843,-0.62,0.62,0.27,0.91
19.512083053588867,-0.73,0.92,0.13,1.18
19.52206587791443,-0.79,1.18,0.03,1.42
19.532068729400635,-0.82,1.39,-0.07,1.61
19.5421199798584,-0.8,1.58,-0.02,1.77
19.55203676223755,-0.68,1.79,0.26,1.93
19.562007904052734,-0.52,1.94,0.67,2.11
19.572054862976074,-0.53,1.99,0.97,2.27
19.582031726837158,-0.66,1.97,0.98,2.29
19.59205198287964,-0.89,1.86,0.81,2.21
19.601984977722168,-1.09,1.75,0.59,2.14
19.611893892288208,-1.11,1.79,0.44,2.15
19.62186884880066,-0.87,2.34,0.63,2.57
19.63193988800049,-0.35,3.03,1.56,3.42
19.642019748687744,-0.24,3.82,2.84,4.76
19.651928901672363,0.45,3.71,2.87,4.71
19.662036895751953,1.15,2.19,0.92,2.63
19.67192792892456,1.83,0.81,-1.8,2.69
19.681879997253418,2.53,0.01,-3.7,4.48
19.69176483154297,2.31,-0.15,-4.26,4.84
19.701930046081543,2.07,0.06,-3.35,3.93
19.71188974380493,2.11,0.4,-1.81,2.8
19.721996784210205,2.07,0.91,-0.48,2.31
19.731825828552246,1.92,1.42,0.29,2.4
19.741838932037354,1.6,1.55,0.49,2.28
19.751760005950928,1.02,1.31,0.28,1.68
19.76182985305786,0.25,0.84,-0.12,0.88
19.771787881851196,-0.68,0.28,-0.25,0.77
19.781641960144043,-1.36,-0.24,-0.15,1.38
19.791751861572266,-1.63,-0.66,-0.11,1.76
19.801777839660645,-1.7,-0.99,-0.22,1.97
19.812067985534668,-1.61,-1.28,-0.37,2.08
19.821812868118286,-1.44,-1.71,-0.49,2.28
19.831789016723633,-1.25,-2.24,-0.58,2.62
19.841728925704956,-0.97,-2.75,-0.71,3.0
19.851693868637085,-0.66,-3.1,-0.88,3.28
19.86168885231018,-0.31,-3.38,-0.98,3.53
19.871659755706787,0.1,-3.58,-0.94,3.7
19.881621837615967,0.39,-3.61,-0.73,3.7
19.891624927520752,0.66,-3.57,-0.53,3.66
19.901833057403564,0.85,-3.47,-0.38,3.59
19.91162872314453,0.99,-3.29,-0.32,3.45
19.921620845794678,1.16,-2.98,-0.29,3.21
19.931583881378174,1.17,-2.57,-0.14,2.82
19.941625833511353,1.06,-2.07,0.1,2.32
19.95160484313965,0.87,-1.46,0.4,1.74
19.961607933044434,0.67,-0.71,0.73,1.21
19.971635818481445,0.36,-0.05,1.06,1.12
19.981496810913086,0.05,0.44,1.41,1.47
19.991649866104126,-0.18,1.03,1.79,2.07
20.001554012298584,-0.29,1.72,2.21,2.81
20.01164674758911,-0.25,2.43,2.5,3.49
20.021463871002197,-0.15,3.17,2.67,4.14
20.031466007232666,-0.05,3.98,2.89,4.91
20.041586875915527,0.44,4.86,3.31,5.89
20.05146288871765,1.02,6.11,4.25,7.51
20.06150770187378,0.02,7.41,5.14,9.01
20.071427822113037,-1.32,7.1,4.56,8.54
20.08137583732605,-2.07,5.37,2.09,6.12
20.091428756713867,-2.36,3.0,-1.01,3.94
20.101473808288574,-2.02,0.81,-4.0,4.55
20.1113498210907,-1.52,-0.27,-6.37,6.55
20.12139582633972,-1.12,-0.2,-7.29,7.37
20.131386756896973,-0.99,-0.04,-5.74,5.82
20.14136505126953,-1.11,-0.15,-3.07,3.26
20.151315927505493,-1.05,-0.21,-0.95,1.43
20.16136384010315,-0.59,-0.36,0.27,0.74
20.171303749084473,-0.03,-0.75,0.74,1.05
20.18152904510498,0.21,-1.23,0.81,1.48
20.191702842712402,0.41,-1.87,0.82,2.08
20.201475858688354,0.59,-2.53,0.89,2.74
20.211421012878418,0.68,-3.17,0.87,3.35
20.221345901489258,0.72,-3.68,0.76,3.82
20.231384754180908,0.83,-3.97,0.5,4.08
20.241333961486816,0.84,-4.13,0.09,4.21
20.251247882843018,0.71,-4.25,-0.35,4.32
20.26124882698059,0.49,-4.27,-0.72,4.35
20.27126979827881,0.35,-4.17,-0.95,4.29
20.281219005584717,0.14,-3.95,-0.97,4.06
20.2912917137146,-0.26,-3.62,-0.7,3.69
20.301180839538574,-0.69,-3.11,-0.34,3.2
20.31124496459961,-0.95,-2.6,-0.09,2.76
20.321208953857422,-1.16,-2.05,0.1,2.35
20.33119297027588,-1.23,-1.48,0.32,1.95
20.341240882873535,-1.19,-0.85,0.51,1.54
20.35113000869751,-1.1,-0.26,0.7,1.32
20.361251831054688,-0.91,0.32,0.89,1.31
20.371144771575928,-0.71,0.98,1.1,1.63
20.38110876083374,-0.34,1.74,1.29,2.19
20.39114284515381,0.1,2.45,1.45,2.84
20.40113091468811,0.34,2.89,1.33,3.19
20.411088943481445,0.4,3.07,0.8,3.19
20.420915842056274,0.35,3.1,0.13,3.12
20.431058883666992,0.24,3.06,-0.3,3.08
20.4410719871521,-0.07,3.05,-0.32,3.06
20.45105290412903,-0.06,3.68,0.28,3.69
20.461042881011963,0.5,4.56,1.59,4.85
20.47124671936035,0.54,5.57,3.38,6.53
20.481266975402832,0.6,5.85,4.25,7.25
20.491062879562378,0.66,4.5,3.0,5.44
20.500890731811523,1.42,2.58,0.12,2.94
20.510987758636475,2.61,0.76,-2.51,3.69
20.52091383934021,3.35,-0.28,-4.17,5.35
20.530924797058105,2.94,-0.57,-4.43,5.34
20.540977001190186,2.42,-0.56,-3.31,4.13
20.551064014434814,2.04,-0.41,-1.8,2.75
20.560933828353882,1.67,-0.22,-0.57,1.77
20.570941925048828,1.37,-0.13,0.15,1.38
20.58087396621704,1.02,-0.32,0.4,1.14
20.59085488319397,0.4,-0.87,0.15,0.96
20.600862979888916,-0.43,-1.63,-0.22,1.7
20.610846996307373,-1.07,-2.38,-0.42,2.64
20.62083888053894,-1.52,-3.0,-0.42,3.38
20.63087272644043,-1.78,-3.44,-0.45,3.89
20.640832901000977,-1.78,-3.81,-0.46,4.23
20.65079402923584,-1.51,-4.05,-0.38,4.33
20.660876750946045,-1.13,-4.19,-0.24,4.34
20.670801877975464,-0.7,-4.18,-0.15,4.24
20.68076801300049,-0.28,-4.08,-0.04,4.08
20.690815925598145,0.13,-3.88,0.06,3.88
20.70095682144165,0.5,-3.64,0.16,3.67
20.710871934890747,0.92,-3.34,0.21,3.47
20.72074794769287,1.2,-2.93,0.22,3.17
20.730762004852295,1.29,-2.37,0.28,2.71
20.74078893661499,1.23,-1.73,0.45,2.16
20.75066375732422,1.08,-1.02,0.66,1.62
20.760729789733887,0.92,-0.32,0.88,1.31
20.770715713500977,0.67,0.37,1.04,1.29
20.7806978225708,0.28,1.1,1.21,1.65
20.790667057037354,-0.17,1.8,1.38,2.27
20.800675868988037,-0.44,2.39,1.47,2.84
20.81069588661194,-0.57,2.84,1.38,3.2
20.820621967315674,-0.66,3.05,1.07,3.29
20.83060073852539,-0.56,3.16,0.72,3.28
20.840603828430176,-0.32,3.26,0.55,3.32
20.85065793991089,-0.22,3.77,0.83,3.86
20.86062479019165,0.25,4.81,1.97,5.2
20.870563983917236,-0.26,5.98,3.36,6.86
20.880547046661377,-1.69,6.12,3.46,7.23
20.890525817871094,-2.25,4.71,1.79,5.51
20.900547981262207,-2.46,2.77,-0.96,3.82
20.91048002243042,-2.33,0.98,-3.65,4.43
20.920519828796387,-1.91,0.12,-5.64,5.95
20.93049192428589,-1.46,0.25,-5.79,5.97
20.94049072265625,-1.3,0.53,-3.54,3.8
20.950500011444092,-1.3,0.69,-0.96,1.75
20.960476875305176,-1.42,0.86,0.58,1.75
20.9705548286438,-1.25,0.63,0.79,1.6
20.980623722076416,-0.88,-0.02,0.43,0.97
20.99050998687744,-0.4,-0.81,0.04,0.9
21.000465869903564,0.06,-1.64,-0.09,1.64
21.010502815246582,0.5,-2.25,0.19,2.31
21.02047872543335,0.93,-2.64,0.62,2.86
21.030417919158936,1.18,-2.81,0.83,3.15
21.040451049804688,1.22,-2.96,0.77,3.29
21.05028986930847,1.23,-3.15,0.49,3.41
21.060420989990234,1.22,-3.39,0.08,3.6
21.070329904556274,1.16,-3.59,-0.44,3.79
21.080358028411865,1.02,-3.7,-0.97,3.95
21.090308904647827,0.7,-3.75,-1.37,4.05
21.10031485557556,0.41,-3.67,-1.41,3.95
21.110275745391846,0.15,-3.46,-1.16,3.65
21.120203018188477,-0.12,-3.04,-0.67,3.11
21.130263805389404,-0.41,-2.5,0.04,2.53
21.140248775482178,-0.68,-1.97,0.62,2.17
21.150235891342163,-0.9,-1.34,0.93,1.86
21.16017985343933,-1.08,-0.72,1.13,1.72
21.170254707336426,-1.17,-0.12,1.24,1.7
21.180238723754883,-1.01,0.48,1.26,1.68
21.190165996551514,-0.9,1.1,1.19,1.85
21.20005989074707,-0.66,1.78,1.14,2.21
21.210192918777466,-0.11,2.37,0.99,2.57
21.22016191482544,0.43,2.86,0.63,2.95
21.230337858200073,0.88,3.1,0.17,3.22
21.24017095565796,1.16,3.2,-0.31,3.41
21.25013494491577,1.24,3.33,-0.6,3.6
21.2600417137146,0.98,3.65,-0.46,3.8
21.27010488510132,0.63,4.67,0.5,4.73
21.280179023742676,0.56,5.67,2.03,6.04
21.29027271270752,0.73,6.11,3.21,6.94
21.30020785331726,1.29,5.33,2.71,6.11
21.310226917266846,1.51,3.43,0.32,3.76
21.32041072845459,1.89,1.59,-2.29,3.36
21.33035683631897,2.4,0.3,-3.99,4.66
21.340256929397583,2.64,-0.2,-4.41,5.14
21.350570917129517,2.32,-0.35,-3.2,3.96
21.36012077331543,1.93,-0.28,-1.51,2.46
21.37035894393921,1.6,-0.1,-0.1,1.6
21.38008975982666,1.48,0.03,0.78,1.67
21.390061855316162,1.13,-0.04,1.05,1.54
21.400068759918213,0.58,-0.39,0.89,1.13
21.410253047943115,-0.12,-0.9,0.39,0.98
21.4199378490448,-0.79,-1.42,-0.07,1.62
21.430009841918945,-1.29,-1.83,-0.3,2.25
21.439939975738525,-1.62,-2.16,-0.46,2.73
21.45008897781372,-1.68,-2.42,-0.67,3.02
21.459880828857422,-1.56,-2.64,-0.85,3.18
21.469886779785156,-1.3,-2.83,-1.04,3.28
21.48005771636963,-0.99,-3.07,-1.16,3.42
21.489903926849365,-0.67,-3.33,-1.18,3.59
21.499862909317017,-0.37,-3.56,-1.13,3.75
21.509933948516846,-0.08,-3.68,-1.0,3.81
21.519773960113525,0.16,-3.64,-0.76,3.72
21.529934883117676,0.35,-3.52,-0.42,3.56
21.539834022521973,0.5,-3.29,-0.14,3.33
21.549880027770996,0.6,-2.98,-0.02,3.03
21.559815883636475,0.67,-2.52,0.06,2.6
21.569747924804688,0.7,-1.9,0.15,2.03
21.5798397064209,0.71,-1.17,0.33,1.4
21.58980703353882,0.65,-0.39,0.6,0.96
21.599711894989014,0.41,0.41,0.97,1.13
21.609739780426025,0.01,1.19,1.3,1.76
21.6196448802948,-0.58,1.9,1.43,2.44
21.629799842834473,-1.12,2.42,1.27,2.95
21.639739990234375,-1.42,2.73,0.78,3.17
21.64972972869873,-1.48,2.84,0.27,3.21
21.659665822982788,-1.35,3.23,0.17,3.5
21.669677734375,-0.92,4.33,0.77,4.49
21.679633855819702,-0.29,5.31,1.97,5.67
21.689700841903687,-0.33,6.1,2.72,6.68
21.699586868286133,-1.16,5.45,1.87,5.87
21.709776878356934,-1.66,3.88,-0.59,4.26
21.71952486038208,-2.09,2.32,-2.91,4.26
21.729701042175293,-2.3,1.07,-4.56,5.21
21.739739894866943,-1.97,0.68,-5.17,5.57
21.749587059020996,-1.68,0.76,-3.89,4.3
21.75959300994873,-1.29,0.87,-1.65,2.26
21.769511938095093,-1.2,0.93,0.0,1.51
21.779526710510254,-1.36,0.82,0.69,1.73
21.78953504562378,-1.2,0.45,0.55,1.39
21.79948377609253,-0.89,0.0,0.05,0.89
21.809525966644287,-0.49,-0.61,-0.41,0.88
21.81947684288025,-0.08,-1.23,-0.53,1.34
21.829473972320557,0.28,-1.69,-0.4,1.75
21.83955478668213,0.67,-1.97,-0.27,2.09
21.84950304031372,0.87,-2.19,-0.34,2.38
21.85938596725464,1.02,-2.41,-0.55,2.67
21.869394779205322,1.16,-2.68,-0.74,3.01
21.879374980926514,1.24,-2.93,-0.91,3.3
21.889431953430176,1.22,-3.11,-1.0,3.48
21.899351835250854,1.02,-3.25,-0.91,3.52
21.90941882133484,0.65,-3.42,-0.62,3.53
21.919336795806885,0.31,-3.57,-0.3,3.59
21.929687976837158,-0.09,-3.59,-0.08,3.59
21.9393630027771,-0.53,-3.44,0.08,3.48
21.949394702911377,-0.84,-3.21,0.28,3.32
21.95939588546753,-0.97,-2.9,0.51,3.1
21.969326972961426,-0.87,-2.57,0.67,2.79
21.97931671142578,-0.73,-2.23,0.68,2.44
21.989481925964355,-0.65,-1.87,0.52,2.04
21.99925184249878,-0.64,-1.43,0.26,1.58
22.009248733520508,-0.61,-0.81,0.1,1.01
22.019344806671143,-0.47,-0.11,0.2,0.52
22.02932071685791,-0.2,0.58,0.49,0.78
22.039254903793335,0.0,1.24,0.67,1.4
22.04950785636902,0.1,1.75,0.48,1.81
22.059278964996338,0.01,2.06,-0.02,2.06
22.069267749786377,-0.24,2.22,-0.49,2.28
22.079208850860596,-0.46,2.34,-0.69,2.48
22.089333057403564,-0.98,2.91,-0.3,3.08
22.09913682937622,-0.63,4.12,0.9,4.26
22.109283924102783,-0.45,5.42,2.72,6.08
22.11910104751587,0.07,6.85,4.07,7.96
22.129287719726562,1.71,6.29,3.59,7.44
22.139166831970215,2.81,4.33,1.02,5.26
22.14920687675476,3.6,2.62,-2.11,4.92
22.159064769744873,3.71,1.59,-4.48,6.03
22.16905403137207,3.45,1.34,-5.35,6.5
22.179064750671387,3.01,1.39,-4.56,5.63
22.189087867736816,2.37,1.57,-3.05,4.16
22.199021816253662,2.14,1.89,-1.74,3.34
22.209075927734375,2.09,2.11,-1.26,3.22
22.218981742858887,1.76,1.87,-1.32,2.88
22.228988885879517,1.15,1.31,-1.33,2.19
22.239110946655273,0.54,0.65,-1.15,1.42
22.24902105331421,-0.1,0.11,-0.75,0.76
22.258980751037598,-0.69,-0.4,-0.3,0.85
22.268982887268066,-1.12,-0.89,0.04,1.43
22.27923083305359,-1.23,-1.37,0.19,1.85
22.28914976119995,-1.11,-1.91,0.09,2.21
22.299221992492676,-0.81,-2.51,-0.19,2.64
22.309422969818115,-0.42,-3.12,-0.56,3.19
22.31931495666504,-0.02,-3.63,-0.94,3.74
22.32903003692627,0.34,-4.0,-1.25,4.2
22.339009761810303,0.54,-4.24,-1.42,4.5
22.348861932754517,0.67,-4.37,-1.44,4.64
22.359144926071167,0.81,-4.42,-1.38,4.7
22.368850708007812,0.92,-4.4,-1.29,4.67
22.37900972366333,0.91,-4.29,-1.22,4.55
22.3888578414917,0.98,-4.07,-1.1,4.32
22.399023056030273,1.21,-3.72,-0.9,4.01
22.408968925476074,1.42,-3.23,-0.57,3.57
22.418927907943726,1.56,-2.6,-0.13,3.03
22.428863048553467,1.54,-1.96,0.41,2.52
22.43883490562439,1.5,-1.29,0.86,2.15
22.448787927627563,1.31,-0.53,1.24,1.88
22.458876848220825,1.09,0.3,1.59,1.95
22.468926906585693,0.95,1.16,1.92,2.43
22.47889995574951,0.67,1.92,2.18,2.98
22.488813877105713,0.31,2.59,2.23,3.43
22.49899673461914,0.05,3.18,1.87,3.68
22.50875687599182,-0.13,3.56,0.97,3.69
22.518895864486694,-0.17,3.83,-0.02,3.83
22.52876901626587,0.12,4.51,-0.52,4.54
22.538941860198975,0.15,5.3,-0.02,5.3
22.54874897003174,-0.08,6.36,1.32,6.49
22.558969974517822,-1.25,6.82,1.97,7.2
22.56894302368164,-2.38,5.68,0.88,6.22
22.579152822494507,-2.74,4.16,-1.47,5.19
22.588661909103394,-3.0,2.57,-3.83,5.5
22.59895896911621,-2.63,1.59,-5.75,6.51
22.608685970306396,-1.72,1.56,-6.61,7.0
22.618910789489746,-0.91,1.67,-5.61,5.92
22.628630876541138,-0.24,1.69,-3.87,4.22
22.63890790939331,0.21,1.91,-2.26,2.96
22.648660898208618,0.75,2.1,-1.16,2.51
22.65887689590454,1.27,1.98,-0.61,2.43
22.668587923049927,1.5,1.68,-0.27,2.26
22.678892850875854,1.45,1.1,-0.12,1.82
22.68854284286499,1.35,0.37,-0.15,1.4
22.698853015899658,1.43,-0.41,-0.39,1.53
22.7087459564209,1.59,-1.14,-0.85,2.13
22.718924045562744,1.75,-1.68,-1.37,2.78
22.72873091697693,1.95,-2.06,-1.79,3.35
22.73901605606079,2.18,-2.27,-2.08,3.77
22.748517990112305,2.2,-2.44,-2.17,3.93
22.758822917938232,1.98,-2.6,-2.12,3.89
22.768571853637695,1.75,-2.76,-2.09,3.87
22.77917790412903,1.41,-2.9,-2.14,3.87
22.788506031036377,1.03,-3.0,-2.14,3.82
22.798691749572754,0.68,-3.07,-2.06,3.75
22.80862593650818,0.37,-3.08,-2.01,3.69
22.81878089904785,0.09,-3.03,-1.95,3.6
22.8283908367157,-0.14,-2.99,-1.81,3.49
22.83873176574707,-0.17,-2.87,-1.64,3.3
22.84842586517334,-0.08,-2.73,-1.43,3.08
22.85837984085083,0.03,-2.56,-1.29,2.86
22.868374824523926,0.3,-2.34,-1.19,2.64
22.87838077545166,0.61,-1.98,-1.05,2.32
22.88826584815979,0.9,-1.61,-0.81,2.01
22.898286819458008,1.19,-1.17,-0.48,1.73
22.908259868621826,1.49,-0.65,-0.17,1.63
22.918296813964844,1.73,-0.15,0.04,1.73
22.92829179763794,1.81,0.33,0.16,1.84
22.93831777572632,1.82,0.74,0.1,1.96
22.948227882385254,1.81,1.09,-0.2,2.12
22.958219051361084,1.78,1.28,-0.72,2.3
22.968266010284424,1.68,1.3,-1.45,2.57
22.978227853775024,1.63,1.16,-2.31,3.05
22.98858070373535,1.67,0.91,-3.11,3.64
22.998379707336426,1.8,0.7,-3.87,4.32
23.008333921432495,1.96,0.73,-4.48,4.94
23.018343925476074,2.03,1.11,-4.68,5.22
23.028203010559082,1.96,1.61,-4.22,4.92
23.038275718688965,1.96,2.07,-3.23,4.3
23.04811692237854,2.04,2.6,-2.24,3.99
23.058331966400146,2.03,3.1,-1.45,3.97
23.068184852600098,2.28,3.74,-0.79,4.45
23.078170776367188,2.45,4.31,-0.06,4.95
23.088082790374756,2.47,4.14,0.48,4.84
23.098135948181152,2.88,3.3,0.08,4.38
23.107987880706787,3.33,2.37,-1.47,4.34
23.118035793304443,3.36,1.92,-3.01,4.9
23.128079891204834,3.17,1.93,-3.94,5.41
23.13804793357849,3.09,2.18,-4.31,5.73
23.147998809814453,2.98,2.49,-4.53,5.96
23.157963752746582,2.63,2.71,-4.83,6.13
23.168060779571533,2.21,2.83,-5.18,6.3
23.178026914596558,1.74,2.9,-5.37,6.34
23.188063859939575,1.27,2.84,-5.25,6.1
23.19809579849243,0.82,2.58,-4.63,5.36
23.2079758644104,0.39,2.08,-3.64,4.21
23.218037843704224,0.02,1.41,-2.69,3.03
23.227946758270264,-0.28,0.61,-1.97,2.08
23.238128900527954,-0.28,-0.28,-1.5,1.55
23.24839973449707,-0.08,-1.16,-1.17,1.64
23.258035898208618,0.07,-1.98,-0.85,2.15
23.268136024475098,0.29,-2.68,-0.54,2.74
23.277912855148315,0.6,-3.23,-0.24,3.29
23.28800678253174,0.96,-3.64,0.01,3.76
23.29784393310547,1.3,-3.87,0.07,4.08
23.307983875274658,1.51,-3.99,0.02,4.26
23.317893981933594,1.67,-4.03,-0.15,4.36
23.327809810638428,1.86,-3.97,-0.41,4.4
23.337894916534424,2.03,-3.79,-0.72,4.35
23.347819805145264,2.11,-3.54,-1.02,4.24
23.35786771774292,2.03,-3.2,-1.17,3.96
23.367832899093628,1.9,-2.79,-1.18,3.57
23.377761840820312,1.86,-2.33,-1.12,3.18
23.387736797332764,1.78,-1.87,-1.03,2.77
23.397747039794922,1.72,-1.44,-0.93,2.42
23.4077730178833,1.71,-1.03,-0.76,2.13
23.417717933654785,1.69,-0.58,-0.46,1.84
23.42769193649292,1.66,-0.12,-0.11,1.66
23.437767028808594,1.69,0.4,0.32,1.76
23.44770884513855,1.73,0.99,0.82,2.15
23.457661867141724,1.76,1.61,1.3,2.71
23.467711925506592,1.84,2.19,1.69,3.32
23.47762393951416,1.79,2.74,1.98,3.82
23.487640857696533,1.73,3.13,2.12,4.15
23.49775981903076,1.73,3.2,1.97,4.13
23.507752895355225,1.65,3.12,1.49,3.83
23.51763677597046,1.54,2.9,0.83,3.38
23.527665853500366,1.37,2.56,0.19,2.9
23.537677764892578,1.22,2.14,-0.32,2.48
23.547598838806152,1.12,1.69,-0.76,2.16
23.55757784843445,0.98,1.2,-0.98,1.83
23.567643880844116,0.88,0.77,-0.94,1.5
23.577563762664795,0.8,0.46,-0.62,1.11
23.587520837783813,0.7,0.22,-0.04,0.73
23.597519874572754,0.63,-0.09,0.6,0.87
23.60747003555298,0.61,-0.34,1.11,1.31
23.61746883392334,0.56,-0.46,1.39,1.56
23.62756586074829,0.53,-0.45,1.53,1.68
23.6375470161438,0.6,-0.38,1.67,1.81
23.647459983825684,0.59,-0.31,1.69,1.81
23.657481908798218,0.66,-0.25,1.59,1.73
23.66743803024292,0.77,-0.18,1.34,1.55
23.677440881729126,0.9,-0.05,0.93,1.29
23.687376022338867,0.95,0.14,0.58,1.12
23.697450876235962,0.91,0.35,0.45,1.07
23.707375049591064,0.81,0.61,0.48,1.12
23.717395782470703,0.67,0.95,0.6,1.3
23.72737979888916,0.34,1.28,0.93,1.61
23.737380027770996,0.06,1.53,1.33,2.02
23.747478008270264,-0.26,1.84,1.61,2.45
23.757339000701904,-0.61,2.21,1.78,2.9
23.767525911331177,-0.74,2.59,1.93,3.31
23.777498722076416,-1.06,2.87,2.01,3.66
23.7874698638916,-1.58,2.94,1.94,3.86
23.797338008880615,-1.96,2.77,1.55,3.73
23.80727982521057,-2.14,2.37,0.78,3.28
23.817290782928467,-2.28,1.71,-0.11,2.85
23.827305793762207,-2.26,0.78,-0.85,2.53
23.83737802505493,-2.13,-0.12,-1.36,2.52
23.84727692604065,-2.01,-0.74,-1.59,2.66
23.85728693008423,-1.8,-0.97,-1.46,2.51
23.86727476119995,-1.29,-1.0,-0.83,1.83
23.877429008483887,-0.82,-1.19,0.12,1.45
23.887014865875244,-0.66,-1.52,0.83,1.85
23.896950721740723,-0.43,-1.82,1.09,2.16
23.907241821289062,-0.07,-2.09,1.04,2.33
23.917414903640747,0.18,-2.37,0.87,2.53
23.927230834960938,0.31,-2.67,0.78,2.79
23.937290906906128,0.37,-2.95,0.75,3.06
23.94723081588745,0.47,-3.16,0.65,3.26
23.957194805145264,0.5,-3.23,0.5,3.3
23.967201709747314,0.43,-3.14,0.42,3.19
23.97716999053955,0.33,-3.05,0.41,3.09
23.98716402053833,0.18,-2.98,0.4,3.01
23.997190952301025,-0.01,-2.79,0.38,2.81
24.00721287727356,-0.26,-2.59,0.33,2.62
24.017122745513916,-0.48,-2.36,0.3,2.42
24.0270938873291,-0.63,-2.06,0.46,2.2
24.03721284866333,-0.77,-1.66,0.85,2.01
24.047132968902588,-1.01,-1.13,1.53,2.15
24.057095050811768,-1.29,-0.43,2.28,2.65
24.067177772521973,-1.54,0.28,2.93,3.32
24.077110767364502,-1.7,0.96,3.36,3.88
24.087065935134888,-1.75,1.61,3.42,4.16
24.097033977508545,-1.81,1.98,2.96,3.99
24.107127904891968,-1.76,2.04,2.06,3.39
24.117015838623047,-1.58,1.85,1.02,2.63
24.126969814300537,-1.41,1.38,0.04,1.97
24.13726282119751,-1.2,1.04,-0.62,1.7
24.147145748138428,-0.96,0.96,-0.94,1.65
24.157094955444336,-0.69,1.14,-0.75,1.52
24.167057991027832,-0.55,1.39,0.13,1.5
24.177005767822266,-0.45,1.45,1.42,2.07
24.186980724334717,-0.39,1.46,2.51,2.92
24.196943759918213,-0.34,1.63,3.04,3.46
24.20689296722412,-0.26,1.79,3.24,3.71
24.217004776000977,-0.21,1.85,3.34,3.82
24.226895809173584,-0.21,2.05,3.45,4.01
24.23691487312317,0.09,2.5,3.68,4.44
24.24694299697876,0.64,3.03,4.05,5.09
24.257006883621216,1.09,3.48,4.16,5.53
24.26683783531189,0.72,3.29,3.63,4.95
24.27694797515869,0.33,2.77,2.29,3.6
24.286897897720337,0.05,2.09,0.61,2.17
24.296897888183594,-0.51,1.13,-0.92,1.54
24.306787967681885,-0.51,0.05,-2.21,2.26
24.31681990623474,0.33,-0.9,-3.37,3.5
24.326828956604004,1.61,-1.39,-4.11,4.62
24.33682870864868,2.16,-1.64,-3.97,4.8
24.346806049346924,2.28,-1.74,-3.23,4.31
24.35672688484192,2.69,-2.05,-2.2,4.03
24.366705894470215,2.74,-2.35,-1.19,3.8
24.37700080871582,2.34,-2.51,-0.44,3.45
24.386937856674194,1.71,-2.79,0.1,3.27
24.396787881851196,0.93,-2.96,0.53,3.14
24.406774044036865,0.11,-3.08,0.94,3.22
24.41669273376465,-0.76,-3.14,1.32,3.48
24.4267098903656,-1.4,-3.14,1.49,3.74
24.43671703338623,-1.58,-3.11,1.56,3.82
24.44664478302002,-1.45,-3.01,1.59,3.7
24.456652879714966,-1.06,-2.86,1.52,3.4
24.466675758361816,-0.66,-2.67,1.25,3.02
24.4766628742218,-0.45,-2.46,0.96,2.67
24.486653804779053,-0.23,-2.17,0.73,2.3
24.496654987335205,0.08,-1.92,0.47,1.97
24.506721019744873,0.24,-1.64,0.17,1.66
24.51660680770874,0.38,-1.36,-0.15,1.42
24.52666687965393,0.46,-1.13,-0.49,1.31
24.536592960357666,0.46,-0.91,-0.8,1.29
24.546555042266846,0.31,-0.76,-0.99,1.28
24.556509017944336,0.2,-0.62,-1.02,1.21
24.5665340423584,0.14,-0.44,-0.91,1.02
24.57652997970581,0.04,-0.21,-0.57,0.6
24.586527824401855,0.1,0.09,-0.1,0.16
24.596508026123047,0.18,0.47,0.46,0.68
24.60653781890869,0.26,0.86,1.01,1.35
24.616421937942505,0.24,1.25,1.62,2.06
24.6264488697052,0.03,1.86,2.19,2.87
24.636481761932373,-0.08,2.6,2.65,3.71
24.646434783935547,-0.06,3.15,2.79,4.2
24.65637493133545,0.04,3.53,2.47,4.3
24.666456937789917,0.2,4.03,2.06,4.53
24.676393032073975,0.54,4.76,2.13,5.24
24.68641185760498,0.25,5.32,2.76,5.99
24.696457862854004,-0.6,5.52,3.19,6.4
24.706377029418945,-1.41,5.17,2.78,6.03
24.716354846954346,-2.01,4.59,1.6,5.26
24.72633981704712,-2.24,3.47,0.07,4.13
24.73638677597046,-2.02,1.77,-1.74,3.2
24.74634289741516,-1.75,-0.06,-3.58,3.98
24.756388902664185,-1.31,-1.44,-5.08,5.44
24.766403913497925,-0.63,-1.86,-5.72,6.04
24.776254892349243,-0.38,-1.98,-4.78,5.18
24.78632092475891,-0.09,-2.2,-2.7,3.48
24.796291828155518,-0.13,-2.19,-0.59,2.27
24.806231021881104,-0.4,-2.21,0.99,2.45
24.81621503829956,-0.78,-2.43,1.85,3.15
24.82622194290161,-0.96,-2.53,2.15,3.45
24.83624291419983,-0.91,-2.69,1.96,3.45
24.84622883796692,-0.77,-2.96,1.74,3.51
24.856157779693604,-0.54,-3.28,1.56,3.67
24.866123914718628,-0.3,-3.54,1.21,3.75
24.87612295150757,-0.03,-3.53,0.63,3.58
24.886160850524902,0.38,-3.37,-0.05,3.39
24.896150827407837,0.63,-3.24,-0.61,3.35
24.906160831451416,0.8,-3.09,-1.01,3.34
24.916147708892822,0.64,-2.84,-1.21,3.15
24.926102876663208,0.26,-2.51,-1.21,2.79
24.93647575378418,0.08,-2.18,-0.95,2.37
24.946067810058594,-0.05,-1.92,-0.51,1.98
24.95607280731201,-0.2,-1.66,-0.03,1.67
24.966059923171997,-0.37,-1.28,0.41,1.39
24.97604990005493,-0.44,-0.77,0.83,1.21
24.986095905303955,-0.52,-0.16,1.27,1.38
24.996038913726807,-0.62,0.47,1.74,1.9
25.006138801574707,-0.65,1.21,2.19,2.58
25.016047954559326,-0.57,2.04,2.63,3.37
25.02605676651001,-0.38,2.92,2.97,4.18
25.035988807678223,-0.17,3.62,2.92,4.65
25.04594898223877,-0.08,4.05,2.37,4.69
25.055997848510742,0.01,4.16,1.48,4.41
25.0661199092865,0.24,4.0,0.58,4.04
25.075994968414307,0.37,3.75,-0.11,3.76
25.086045742034912,0.0,3.73,-0.3,3.74
25.095995903015137,-0.54,4.33,0.19,4.36
25.10595703125,-0.36,5.35,1.47,5.55
25.115954875946045,0.06,5.96,3.0,6.67
25.12587881088257,0.49,5.44,3.42,6.44
25.135921001434326,1.07,3.66,1.82,4.22
25.145946979522705,1.5,1.27,-1.0,2.2
25.155890941619873,1.75,-0.86,-3.33,3.85
25.16584086418152,2.21,-2.15,-4.59,5.52
25.17582082748413,2.54,-2.5,-5.03,6.16
25.18585205078125,2.26,-2.33,-4.19,5.3
25.195855855941772,2.09,-2.04,-2.36,3.75
25.20580291748047,2.03,-1.78,-0.66,2.77
25.21572494506836,1.98,-1.58,0.48,2.57
25.22572898864746,1.63,-1.41,1.0,2.37
25.235801935195923,0.91,-1.46,1.09,2.03
25.24573802947998,0.14,-1.65,0.99,1.92
25.25569987297058,-0.69,-1.94,0.9,2.24
25.265827894210815,-1.38,-2.22,0.85,2.74
25.275671005249023,-1.76,-2.43,0.63,3.06
25.285743713378906,-1.84,-2.53,0.22,3.13
25.295662879943848,-1.53,-2.64,-0.27,3.06
25.305668830871582,-1.01,-2.71,-0.63,2.95
25.315810918807983,-0.58,-2.83,-0.84,3.0
25.32580804824829,-0.22,-3.0,-0.94,3.15
25.335851907730103,0.15,-3.13,-1.01,3.29
25.34575605392456,0.34,-3.24,-1.13,3.44
25.355655908584595,0.47,-3.23,-1.13,3.45
25.3655948638916,0.58,-3.17,-0.99,3.37
25.375638961791992,0.61,-3.07,-0.8,3.23
25.385588884353638,0.59,-2.81,-0.58,2.92
25.395551919937134,0.48,-2.48,-0.37,2.55
25.40564489364624,0.32,-2.09,-0.12,2.11
25.41551399230957,0.12,-1.53,0.19,1.54
25.42551898956299,-0.06,-0.82,0.58,1.0
25.435609817504883,-0.24,-0.08,1.09,1.11
25.44553804397583,-0.42,0.64,1.63,1.8
25.455591917037964,-0.75,1.35,2.22,2.7
25.465478897094727,-1.03,1.98,2.73,3.52
25.47553777694702,-1.12,2.4,2.87,3.9
25.485492706298828,-0.96,2.73,2.48,3.81
25.495672702789307,-0.64,3.48,2.11,4.11
25.505640983581543,0.02,4.81,2.63,5.48
25.515601873397827,0.62,6.04,3.76,7.14
25.525580883026123,-0.81,6.69,4.05,7.86
25.53560495376587,-2.1,5.44,2.33,6.27
25.545578002929688,-2.83,3.67,-0.52,4.66
25.555601835250854,-3.44,2.1,-3.33,5.22
25.5655038356781,-3.45,1.17,-5.45,6.55
25.57549285888672,-2.71,1.41,-6.13,6.84
25.58553171157837,-2.09,1.82,-4.67,5.43
25.595365047454834,-1.9,2.0,-2.26,3.56
25.605316877365112,-1.77,2.08,-0.33,2.75
25.615522861480713,-1.37,1.71,0.2,2.2
25.625486850738525,-0.76,1.06,-0.33,1.34
25.635445833206177,0.07,0.38,-0.82,0.9
25.64535689353943,0.65,-0.55,-0.77,1.14
25.655536890029907,1.06,-1.36,-0.3,1.75
25.665338039398193,1.49,-1.97,0.12,2.47
25.675283908843994,1.69,-2.4,0.25,2.94
25.685322761535645,1.78,-2.84,0.27,3.36
25.695429801940918,1.78,-3.32,0.2,3.77
25.705232858657837,1.69,-3.64,0.03,4.01
25.715203762054443,1.38,-3.93,-0.17,4.16
25.725329875946045,0.79,-4.12,-0.4,4.21
25.73529887199402,0.25,-4.25,-0.45,4.28
25.745240926742554,-0.11,-4.19,-0.37,4.2
25.755173921585083,-0.4,-3.89,-0.19,3.91
25.76529598236084,-0.79,-3.45,0.08,3.54
25.775217056274414,-1.08,-3.02,0.42,3.23
25.785181999206543,-1.24,-2.6,0.7,2.96
25.795127868652344,-1.23,-2.16,0.73,2.59
25.80512571334839,-1.18,-1.73,0.56,2.16
25.81512188911438,-1.05,-1.25,0.33,1.66
25.82515788078308,-0.89,-0.59,0.21,1.08
25.835150718688965,-0.65,0.19,0.31,0.74
25.845069885253906,-0.4,1.19,0.58,1.38
25.855134963989258,-0.22,2.24,0.81,2.39
25.865131855010986,0.02,3.18,0.79,3.27
25.875001907348633,0.32,3.82,0.51,3.86
25.884992837905884,0.55,4.04,0.09,4.07
25.894959926605225,0.57,4.57,-0.05,4.6
25.90495777130127,0.58,5.38,0.39,5.42
25.915015935897827,0.71,5.74,1.47,5.96
25.925055980682373,1.24,6.05,2.61,6.7
25.935099840164185,1.73,5.49,2.57,6.3
25.944958925247192,2.03,4.32,1.07,4.89
25.954920768737793,2.2,2.73,-1.09,3.67
25.96491003036499,2.59,1.36,-2.63,3.93
25.975040912628174,2.93,0.77,-3.17,4.38
25.984858989715576,2.91,0.71,-2.82,4.11
25.994874954223633,2.79,0.57,-1.71,3.32
26.004859924316406,2.66,0.35,-0.8,2.79
26.015073776245117,2.11,0.09,-0.45,2.15
26.024956703186035,1.36,-0.33,-0.5,1.48
26.034900903701782,0.64,-0.82,-0.59,1.19
26.044822931289673,-0.19,-1.35,-0.47,1.44
26.05482292175293,-0.93,-1.87,-0.29,2.1
26.064863920211792,-1.35,-2.25,-0.23,2.63
26.07482385635376,-1.55,-2.52,-0.21,2.96
26.084848880767822,-1.59,-2.79,-0.16,3.21
26.094730854034424,-1.45,-3.04,-0.16,3.37
26.104780912399292,-1.12,-3.26,-0.29,3.45
26.114752769470215,-0.75,-3.42,-0.51,3.53
26.124780893325806,-0.39,-3.57,-0.69,3.65
26.13474178314209,-0.03,-3.7,-0.78,3.78
26.144714832305908,0.33,-3.77,-0.86,3.88
26.154692888259888,0.66,-3.72,-0.95,3.89
26.164684772491455,0.95,-3.59,-1.02,3.85
26.174895763397217,1.1,-3.35,-1.08,3.68
26.18442678451538,1.06,-3.07,-1.05,3.41
26.19469976425171,0.92,-2.6,-0.86,2.88
26.204658031463623,0.74,-1.98,-0.48,2.16
26.214701890945435,0.55,-1.34,0.05,1.44
26.224628925323486,0.47,-0.53,0.61,0.93
26.234642028808594,0.3,0.35,1.11,1.2
26.244627952575684,-0.1,1.03,1.6,1.9
26.25450897216797,-0.62,1.53,1.97,2.57
26.26471996307373,-0.99,1.97,2.14,3.07
26.274556875228882,-0.96,2.34,1.9,3.16
26.284658908843994,-0.68,2.61,1.36,3.02
26.29456901550293,-0.2,2.73,0.81,2.85
26.304563999176025,0.07,2.76,0.51,2.8
26.314551830291748,0.02,3.45,0.69,3.51
26.324704885482788,0.81,4.42,1.62,4.77
26.33465003967285,1.02,5.14,3.05,6.06
26.344624042510986,-0.73,5.27,3.31,6.26
26.354663848876953,-2.08,3.53,1.31,4.3
26.36455988883972,-2.98,1.85,-1.33,3.75
26.37449073791504,-3.47,0.8,-3.37,4.9
26.384475708007812,-3.17,0.43,-4.52,5.53
26.39440083503723,-2.57,0.63,-4.11,4.88
26.404440879821777,-1.97,0.76,-2.31,3.12
26.414438724517822,-1.41,0.96,-0.48,1.77
26.424619913101196,-1.15,1.17,0.64,1.76
26.43446397781372,-0.93,1.03,0.75,1.57
26.444402933120728,-0.45,0.71,0.13,0.85
26.454339027404785,0.31,0.15,-0.62,0.7
26.464401721954346,0.78,-0.53,-0.95,1.33
26.474350929260254,1.15,-1.03,-0.87,1.77
26.48432183265686,1.43,-1.4,-0.66,2.1
26.494308948516846,1.55,-1.7,-0.55,2.36
26.504361867904663,1.6,-2.06,-0.62,2.68
26.51445770263672,1.64,-2.45,-0.77,3.04
26.524407863616943,1.61,-2.82,-0.9,3.36
26.534345865249634,1.36,-3.2,-1.0,3.61
26.544261932373047,0.97,-3.49,-0.93,3.73
26.554327964782715,0.64,-3.74,-0.69,3.85
26.564319849014282,0.29,-3.91,-0.43,3.94
26.574265003204346,-0.07,-3.84,-0.15,3.84
26.584270000457764,-0.42,-3.62,0.03,3.64
26.594246864318848,-0.76,-3.34,0.27,3.43
26.604186058044434,-0.99,-2.96,0.58,3.17
26.614171028137207,-1.06,-2.44,0.9,2.8
26.62421703338623,-1.07,-1.8,1.18,2.4
26.63432502746582,-0.86,-1.11,1.39,1.97
26.644145965576172,-0.51,-0.41,1.54,1.67
26.6542010307312,-0.18,0.33,1.73,1.77
26.66415286064148,0.06,1.18,1.9,2.23
26.67414903640747,0.01,1.97,1.86,2.7
26.6838698387146,-0.12,2.64,1.56,3.06
26.694479942321777,-0.17,3.11,1.06,3.29
26.704230785369873,-0.25,3.49,0.54,3.54
26.71416997909546,-0.6,3.6,0.22,3.65
26.72419285774231,-0.96,3.52,0.04,3.64
26.734166860580444,-1.06,3.89,0.11,4.03
26.744019031524658,-0.46,4.89,0.71,4.96
26.75403594970703,-0.08,5.45,1.99,5.8
26.76399278640747,0.26,5.58,3.2,6.43
26.774049758911133,0.79,4.5,2.8,5.35
26.78400492668152,1.17,2.68,0.67,3.0
26.79399299621582,2.25,0.84,-1.91,3.06
26.804004907608032,3.18,-0.56,-3.8,4.98
26.81397294998169,2.81,-1.01,-4.54,5.43
26.823946952819824,2.43,-0.98,-3.98,4.76
26.83401870727539,2.24,-0.71,-2.53,3.45
26.84394884109497,1.83,-0.39,-0.94,2.09
26.853878021240234,1.46,-0.1,0.16,1.47
26.863926887512207,1.06,0.16,0.64,1.24
26.873909950256348,0.46,0.19,0.5,0.7
26.883878707885742,-0.24,-0.14,0.2,0.34
26.893823862075806,-0.94,-0.63,-0.02,1.13
26.90386199951172,-1.5,-1.1,-0.2,1.87
26.913859844207764,-1.8,-1.48,-0.35,2.35
26.923826932907104,-1.79,-1.73,-0.59,2.55
26.933827877044678,-1.46,-1.95,-0.85,2.58
26.943813800811768,-0.96,-2.22,-0.99,2.61
26.953752994537354,-0.37,-2.58,-1.04,2.8
26.963820934295654,0.02,-2.96,-1.08,3.15
26.974092960357666,0.27,-3.3,-1.16,3.5
26.984047889709473,0.49,-3.51,-1.22,3.74
26.994186878204346,0.65,-3.64,-1.18,3.88
27.004039764404297,0.69,-3.68,-1.08,3.89
27.013996839523315,0.77,-3.7,-1.0,3.9
27.02375078201294,0.8,-3.55,-0.92,3.75
27.03377103805542,0.78,-3.24,-0.8,3.42
27.043750762939453,0.8,-2.78,-0.64,2.96
27.0536527633667,0.75,-2.26,-0.4,2.41
27.063663959503174,0.72,-1.58,-0.02,1.73
27.073689937591553,0.64,-0.76,0.54,1.13
27.084122896194458,0.35,-0.04,1.16,1.21
27.093677043914795,-0.08,0.62,1.79,1.89
27.10366201400757,-0.5,1.37,2.39,2.79
27.113764762878418,-0.71,2.18,2.85,3.65
27.123607873916626,-0.71,2.85,2.94,4.15
27.133687019348145,-0.67,3.28,2.5,4.17
27.143592834472656,-0.53,3.39,1.65,3.8
27.15357494354248,-0.29,3.57,0.92,3.69
27.16361093521118,0.24,4.35,0.82,4.43
27.173733711242676,0.6,5.19,1.57,5.45
27.18334197998047,-0.39,5.77,2.4,6.26
27.193607807159424,-1.73,4.98,1.83,5.58
27.203590869903564,-2.71,3.26,-0.2,4.24
27.213538885116577,-3.63,1.94,-2.27,4.7
27.223541736602783,-3.55,1.25,-3.82,5.36
27.233535766601562,-2.63,1.3,-4.07,5.01
27.24348282814026,-2.01,1.21,-2.7,3.57
27.25336980819702,-1.66,1.17,-0.97,2.25
27.263437747955322,-1.41,1.26,0.16,1.89
27.27351999282837,-1.2,1.03,0.39,1.62
27.283493995666504,-0.92,0.72,0.03,1.16
27.29346990585327,-0.17,0.23,-0.42,0.5
27.30342984199524,0.39,-0.54,-0.69,0.95
27.31344175338745,0.75,-1.19,-0.6,1.52
27.32337999343872,1.08,-1.72,-0.43,2.07
27.333432912826538,1.26,-2.21,-0.43,2.58
27.343441009521484,1.35,-2.69,-0.57,3.06
27.353347778320312,1.37,-3.18,-0.71,3.53
27.363335847854614,1.41,-3.67,-0.81,4.01
27.37333583831787,1.32,-4.07,-1.0,4.39
27.38338279724121,0.86,-4.37,-1.05,4.57
27.393317937850952,0.33,-4.53,-0.82,4.61
27.403358936309814,-0.08,-4.63,-0.45,4.65
27.413419723510742,-0.63,-4.56,-0.1,4.6
27.423420906066895,-1.05,-4.27,0.21,4.4
27.43337082862854,-1.3,-3.95,0.25,4.16
27.443423748016357,-1.53,-3.53,0.19,3.85
27.453284740447998,-1.63,-3.03,0.18,3.44
27.463501930236816,-1.57,-2.37,0.2,2.84
27.47280788421631,-1.48,-1.57,0.2,2.16
27.48328685760498,-1.28,-0.6,0.24,1.43
27.493193864822388,-0.95,0.45,0.43,1.13
27.50331687927246,-0.5,1.49,0.74,1.73
27.51336693763733,-0.06,2.45,1.03,2.65
27.523469924926758,0.27,3.24,1.13,3.44
27.53322172164917,0.48,3.81,0.87,3.93
27.54327893257141,0.64,4.15,0.41,4.21
27.553170919418335,0.74,4.22,0.01,4.28
27.563189029693604,0.62,4.14,-0.24,4.19
27.573240756988525,-0.04,4.56,-0.01,4.56
27.583168983459473,0.03,5.65,0.92,5.72
27.593109846115112,-0.04,6.58,2.66,7.09
27.60306978225708,-0.22,7.09,4.35,8.32
27.613086938858032,0.3,5.56,3.3,6.47
27.623069763183594,0.82,3.41,0.21,3.51
27.633100986480713,1.69,1.05,-2.79,3.42
27.643138885498047,2.64,-0.88,-4.98,5.7
27.653101921081543,2.97,-1.49,-6.1,6.94
27.6630597114563,2.56,-1.41,-5.39,6.13
27.67305278778076,2.0,-0.88,-3.61,4.21
27.683037757873535,1.5,-0.44,-1.61,2.24
27.692999839782715,1.49,-0.26,-0.15,1.51
27.703004837036133,1.34,0.03,0.39,1.39
27.713029861450195,0.68,-0.05,0.33,0.75
27.723049879074097,-0.01,-0.47,0.13,0.48
27.73294973373413,-0.72,-0.93,0.13,1.18
27.742974758148193,-1.31,-1.33,0.38,1.9
27.7528657913208,-1.61,-1.7,0.76,2.46
27.762934923171997,-1.75,-2.05,0.82,2.81
27.773043870925903,-1.53,-2.35,0.54,2.85
27.78308892250061,-1.1,-2.7,0.03,2.91
27.793107986450195,-0.61,-3.21,-0.53,3.31
27.802677869796753,-0.14,-3.67,-0.99,3.8
27.813093900680542,0.54,-3.99,-1.11,4.17
27.82287287712097,0.88,-4.19,-1.2,4.44
27.832927703857422,0.87,-4.13,-1.22,4.39
27.84290385246277,0.93,-3.94,-1.07,4.18
27.85278081893921,0.92,-3.74,-0.79,3.93
27.862867832183838,0.92,-3.47,-0.45,3.61
27.872772932052612,1.07,-3.14,-0.18,3.32
27.882827758789062,1.11,-2.85,0.08,3.05
27.892814874649048,1.05,-2.53,0.35,2.76
27.902987003326416,0.94,-2.11,0.64,2.39
27.912971019744873,0.81,-1.64,1.02,2.09
27.922801971435547,0.79,-0.94,1.52,1.95
27.932819843292236,0.84,-0.07,2.08,2.24
27.94277286529541,0.74,0.73,2.64,2.83
27.95263385772705,0.69,1.57,3.07,3.51
27.962730884552002,0.69,2.25,3.18,3.95
27.972599983215332,0.69,2.64,2.87,3.96
27.982584953308105,0.7,2.66,2.25,3.55
27.99258279800415,0.72,2.48,1.4,2.93
28.002585887908936,0.88,2.34,0.5,2.54
28.01261281967163,0.96,2.31,-0.19,2.5
28.02264976501465,0.88,2.38,-0.32,2.55
28.032704830169678,0.83,2.7,-0.12,2.82
28.042654037475586,0.76,3.82,0.72,3.96
28.052621841430664,0.54,5.38,1.96,5.75
28.062594890594482,-0.27,6.39,3.23,7.16
28.0727858543396,-1.91,5.79,2.85,6.73
28.08260202407837,-2.73,3.06,-0.21,4.1
28.09288501739502,-2.91,0.88,-3.72,4.8
28.102537870407104,-2.52,-0.24,-6.17,6.66
28.112555980682373,-1.69,-0.08,-7.32,7.51
28.122532844543457,-1.11,0.65,-6.31,6.43
28.13228178024292,-0.54,1.26,-4.2,4.41
28.142099857330322,-0.14,1.89,-2.27,2.95
28.1527099609375,0.39,2.74,-0.85,2.89
28.16297197341919,1.12,3.07,-0.28,3.27
28.17276692390442,1.6,3.02,-0.28,3.42
28.18250584602356,1.8,2.62,-0.34,3.19
28.19265079498291,2.0,2.12,-0.26,2.92
28.202483892440796,1.93,1.58,-0.19,2.5
28.21261501312256,1.74,1.0,-0.24,2.02
28.222542762756348,1.68,0.41,-0.46,1.78
28.23253893852234,1.87,-0.22,-0.78,2.03
28.242416858673096,2.3,-0.83,-1.13,2.69
28.25244379043579,2.68,-1.38,-1.49,3.36
28.262563705444336,2.64,-1.86,-1.79,3.69
28.27234697341919,2.15,-2.23,-1.97,3.67
28.28252601623535,1.62,-2.55,-2.0,3.62
28.29241704940796,1.22,-2.92,-1.91,3.69
28.302592754364014,0.88,-3.37,-1.82,3.92
28.312639713287354,0.63,-3.75,-1.78,4.19
28.322290897369385,0.45,-4.0,-1.81,4.41
28.332397937774658,0.35,-4.24,-1.75,4.6
28.34235692024231,0.37,-4.3,-1.61,4.6
28.352362871170044,0.41,-4.3,-1.33,4.51
28.36244297027588,0.44,-4.22,-1.06,4.37
28.372410774230957,0.53,-4.03,-0.86,4.15
28.382434844970703,0.69,-3.78,-0.73,3.91
28.392231941223145,1.04,-3.44,-0.7,3.66
28.4022958278656,1.46,-2.98,-0.64,3.37
28.41222381591797,1.7,-2.41,-0.54,2.99
28.42237687110901,1.77,-1.8,-0.28,2.53
28.43227195739746,1.99,-1.06,0.02,2.25
28.442272901535034,2.37,-0.25,0.12,2.38
28.452281951904297,2.74,0.61,-0.06,2.8
28.462145805358887,3.1,1.43,-0.53,3.45
28.472172737121582,3.23,1.96,-1.44,4.04
28.482131958007812,3.25,2.11,-2.75,4.75
28.492218017578125,3.33,2.22,-4.32,5.88
28.502115726470947,3.36,2.41,-5.66,7.0
28.51211404800415,3.39,2.83,-6.26,7.66
28.522140979766846,3.38,3.67,-5.67,7.55
28.532131910324097,3.57,5.89,-3.35,7.65
28.542139053344727,3.24,7.58,-0.1,8.24
28.5521240234375,2.88,7.64,2.36,8.49
28.562089920043945,3.89,6.57,1.9,7.86
28.572046756744385,5.29,5.8,-0.63,7.87
28.582046031951904,5.99,4.99,-3.78,8.66
28.59201693534851,5.65,4.37,-5.79,9.19
28.601995944976807,4.83,4.03,-6.33,8.92
28.611958980560303,4.04,3.86,-6.22,8.36
28.621960878372192,3.11,3.82,-6.17,7.89
28.632019996643066,2.17,3.8,-6.35,7.71
28.641942024230957,1.31,3.57,-6.32,7.37
28.65208387374878,0.49,3.04,-5.84,6.6
28.661860942840576,-0.31,2.25,-4.93,5.42
28.67189598083496,-0.99,1.28,-3.84,4.16
28.681925773620605,-1.41,0.42,-2.88,3.23
28.691897869110107,-1.5,-0.37,-2.11,2.61
28.702107906341553,-1.28,-1.16,-1.44,2.24
28.712135791778564,-0.72,-1.92,-0.79,2.19
28.72217082977295,0.05,-2.67,-0.24,2.68
28.731945991516113,0.75,-3.33,0.05,3.41
28.74186372756958,1.28,-3.86,0.11,4.06
28.752007961273193,1.75,-4.34,0.09,4.68
28.761791706085205,2.05,-4.89,0.12,5.3
28.77185297012329,2.24,-5.29,-0.01,5.74
28.78186583518982,2.32,-5.65,-0.41,6.12
28.791862964630127,2.32,-5.94,-1.05,6.46
28.801780939102173,2.16,-6.1,-1.73,6.69
28.8117778301239,1.77,-6.1,-2.22,6.72
28.82174587249756,1.28,-5.95,-2.29,6.5
28.831796884536743,0.92,-5.58,-1.92,5.97
28.84172773361206,0.48,-4.89,-1.4,5.1
28.851733922958374,0.22,-3.94,-0.8,4.02
28.86172389984131,0.18,-2.97,-0.2,2.98
28.871672868728638,0.23,-1.97,0.42,2.02
28.88179588317871,0.54,-0.88,0.96,1.4
28.891258716583252,0.85,0.08,1.22,1.48
28.901943922042847,0.95,0.92,1.14,1.74
28.91174602508545,0.78,1.57,0.82,1.93
28.9216468334198,0.42,2.14,0.45,2.22
28.931680917739868,0.27,2.57,0.05,2.58
28.94159483909607,0.21,3.06,-0.17,3.07
28.95158576965332,0.08,3.85,0.21,3.85
28.961628913879395,0.16,4.95,1.35,5.13
28.971616744995117,0.52,5.96,2.88,6.63
28.98156189918518,0.56,6.64,4.07,7.8
28.991514921188354,0.65,6.93,4.35,8.2
29.001577854156494,0.77,6.84,3.38,7.66
29.01148796081543,0.67,6.27,1.73,6.53
29.021695852279663,0.47,5.11,0.22,5.13
29.03169870376587,0.47,3.76,-0.9,3.89
29.04154872894287,0.49,2.5,-1.64,3.02
29.05154275894165,0.45,1.4,-1.96,2.45
29.061545848846436,0.32,0.5,-1.88,1.97
29.071846961975098,0.09,-0.29,-1.37,1.4
29.081827878952026,-0.12,-1.18,-0.56,1.31
29.091612815856934,-0.23,-2.04,0.28,2.07
29.101614952087402,-0.21,-2.71,0.91,2.86
29.111182928085327,-0.04,-3.23,1.42,3.52
29.12083101272583,0.15,-3.52,1.94,4.02
29.130676746368408,0.4,-3.56,2.56,4.4
29.14188289642334,0.77,-3.49,3.22,4.81
29.151610851287842,1.22,-3.27,3.76,5.13
29.161739826202393,1.6,-2.94,4.13,5.31
29.171393871307373,1.84,-2.54,4.22,5.25
29.181468963623047,1.88,-2.11,4.07,4.95
29.19142985343933,1.76,-1.49,3.78,4.42
29.20137882232666,1.58,-1.16,3.18,3.73
29.21132183074951,1.55,-0.68,2.63,3.12
29.22130584716797,1.03,0.04,2.3,2.52
29.23139476776123,0.65,0.59,1.78,1.98
29.241291046142578,0.19,1.2,1.29,1.77
29.251572847366333,-0.37,1.57,0.73,1.77
29.261276721954346,-0.94,1.7,0.07,1.94
29.27142882347107,-1.4,1.52,-0.57,2.14
29.28143072128296,-1.8,1.22,-1.0,2.39
29.29138493537903,-1.93,0.93,-1.21,2.46
29.301370859146118,-1.75,0.9,-1.08,2.24
29.311269760131836,-1.6,1.11,-0.34,1.97
29.321197986602783,-1.44,1.38,0.81,2.15
29.33134889602661,-1.03,1.63,1.92,2.72
29.3412127494812,-0.57,1.86,2.68,3.31
29.351404905319214,0.04,2.04,3.04,3.66
29.36120080947876,0.71,2.09,3.04,3.75
29.371185779571533,1.17,1.9,2.93,3.68
29.38113784790039,1.25,1.52,2.6,3.26
29.39111089706421,1.1,1.04,1.95,2.46
29.401145935058594,0.88,0.57,1.04,1.47
29.411131858825684,0.44,0.03,0.1,0.45
29.421048879623413,0.0,-0.55,-0.67,0.86
29.43105387687683,-0.33,-1.03,-1.29,1.68
29.441075801849365,-0.61,-1.2,-1.63,2.11
29.451056957244873,-0.67,-1.16,-1.46,1.98
29.461089849472046,-0.51,-1.06,-0.79,1.41
29.471007823944092,-0.47,-1.05,0.04,1.15
29.48104476928711,-0.42,-1.1,0.64,1.34
29.49101972579956,-0.19,-1.21,0.82,1.47
29.501006841659546,-0.05,-1.33,0.78,1.54
29.510921001434326,-0.06,-1.57,0.78,1.75
29.52094292640686,-0.09,-1.87,0.75,2.01
29.530964851379395,-0.04,-2.15,0.57,2.22
29.54106092453003,-0.12,-2.35,0.4,2.38
29.55101990699768,-0.26,-2.49,0.38,2.53
29.56101894378662,-0.41,-2.61,0.49,2.68
29.570924758911133,-0.57,-2.61,0.72,2.76
29.580911874771118,-0.65,-2.52,0.97,2.77
29.590909957885742,-0.65,-2.33,1.22,2.7
29.600942850112915,-0.67,-2.04,1.4,2.56
29.610939979553223,-0.82,-1.72,1.58,2.47
29.620967864990234,-0.91,-1.44,1.64,2.36
29.630911827087402,-0.92,-1.24,1.57,2.2
29.640845775604248,-0.93,-1.07,1.24,1.88
29.65076184272766,-0.89,-0.81,0.88,1.49
29.66084384918213,-0.81,-0.52,0.74,1.21
29.670812845230103,-0.78,-0.24,0.85,1.17
29.680835723876953,-0.83,0.13,1.14,1.41
29.690773963928223,-0.96,0.51,1.48,1.83
29.70079803466797,-1.09,0.86,1.79,2.26
29.710821866989136,-1.15,1.2,2.05,2.63
29.720605850219727,-1.18,1.43,2.18,2.86
29.730101823806763,-1.11,1.65,2.18,2.95
29.739969730377197,-1.0,1.86,2.09,2.97
29.751111030578613,-0.94,2.04,2.0,3.0
29.761091709136963,-0.76,2.26,1.98,3.09
29.77096700668335,-0.57,2.45,2.02,3.22
29.78077483177185,-0.34,2.54,2.03,3.26
29.790746927261353,-0.25,2.5,1.95,3.18
29.800703048706055,-0.36,2.43,1.85,3.07
29.810823917388916,-0.39,2.62,2.02,3.33
29.82066583633423,-0.21,2.74,2.54,3.74
29.830809831619263,0.62,2.96,3.03,4.28
29.840760707855225,1.54,2.86,2.75,4.25
29.85062599182129,2.2,2.47,1.77,3.75
29.8606858253479,2.56,1.96,0.59,3.27
29.870598793029785,2.71,1.24,-0.61,3.04
29.88066291809082,2.79,0.46,-1.77,3.33
29.890559911727905,3.16,-0.13,-2.69,4.15
29.90061092376709,3.61,-0.35,-3.01,4.71
29.910566806793213,3.64,-0.38,-2.62,4.5
29.920526027679443,3.51,-0.43,-1.63,3.89
29.930574893951416,3.18,-0.52,-0.51,3.26
29.94056487083435,2.64,-0.7,0.27,2.74
29.950503826141357,1.84,-0.89,0.74,2.17
29.960468769073486,0.97,-1.2,1.0,1.83
29.9704270362854,0.04,-1.52,1.12,1.88
29.980469703674316,-1.07,-1.85,1.26,2.48
29.99048376083374,-1.87,-2.15,1.4,3.17
30.000447750091553,-2.23,-2.45,1.34,3.57
30.01045274734497,-2.27,-2.63,0.96,3.6
30.02040386199951,-2.03,-2.75,0.33,3.43
30.030451774597168,-1.7,-2.77,-0.32,3.26
30.04068899154663,-1.36,-2.83,-0.67,3.21
30.05048370361328,-0.91,-2.92,-0.79,3.15
30.06043577194214,-0.52,-2.92,-0.98,3.12
30.070485830307007,-0.22,-2.87,-1.21,3.12
30.080384731292725,-0.01,-2.76,-1.35,3.07
30.090363025665283,0.07,-2.63,-1.25,2.91
30.10053586959839,0.01,-2.45,-0.91,2.61
30.110347747802734,-0.13,-2.21,-0.46,2.26
30.12034583091736,-0.22,-1.91,-0.04,1.92
30.13036298751831,-0.2,-1.45,0.32,1.49
30.140297889709473,-0.16,-0.87,0.56,1.04
30.150261878967285,-0.19,-0.22,0.79,0.84
30.160249710083008,-0.06,0.6,1.09,1.24
30.17032289505005,0.01,1.55,1.5,2.15
30.18023681640625,-0.13,2.53,1.85,3.13
30.19017791748047,-0.32,3.37,2.02,3.94
30.200244903564453,-0.45,4.03,2.06,4.54
30.210198879241943,-0.54,4.46,1.84,4.85
30.220494747161865,-0.49,4.84,1.53,5.09
30.23017382621765,-0.34,5.23,1.78,5.53
30.24021577835083,-0.65,5.39,2.62,6.02
30.24995493888855,-1.25,5.26,3.2,6.28
30.25967788696289,-1.72,4.73,2.88,5.79
