time,ax,ay,az,atotal
0.0015621185302734375,0.15,-0.12,0.01,0.19
0.0019521713256835938,-0.05,-0.08,0.11,0.14
0.0023050308227539062,-0.11,-0.12,0.03,0.16
0.0026640892028808594,-0.15,0.04,-0.1,0.18
0.0030241012573242188,-0.32,-0.21,-0.33,0.5
0.013407230377197266,-0.25,-0.2,-0.48,0.57
0.09897303581237793,-0.4,-0.42,-0.31,0.65
0.0993509292602539,0.05,-0.07,0.14,0.16
0.09969210624694824,-0.13,-0.26,0.14,0.32
0.10005807876586914,0.53,0.02,0.03,0.53
0.10075712203979492,0.06,-0.13,-0.29,0.32
0.1011190414428711,0.58,0.36,-0.27,0.73
0.10147523880004883,0.14,0.02,-0.09,0.16
0.10184621810913086,0.18,-0.18,-0.24,0.34
0.10269021987915039,0.77,0.64,-0.11,1.0
0.1133880615234375,-0.58,-0.22,0.04,0.62
0.19909191131591797,-0.59,-0.33,-0.32,0.74
0.19947004318237305,-0.3,0.11,-0.35,0.47
0.19983291625976562,-0.12,0.32,-0.13,0.36
0.20018291473388672,-0.26,0.24,0.05,0.35
0.20089197158813477,0.08,0.32,0.14,0.35
0.20125102996826172,0.79,0.63,0.24,1.03
0.20161199569702148,-1.09,-0.94,-0.02,1.43
0.2019820213317871,-0.57,-0.6,-0.13,0.83
0.2025890350341797,0.35,-0.02,-0.04,0.35
0.2133769989013672,0.16,0.09,-0.08,0.2
0.29994821548461914,-0.1,0.25,0.02,0.27
0.30032801628112793,-0.13,0.11,0.24,0.29
0.30067014694213867,-0.2,0.11,0.11,0.25
0.30152106285095215,1.48,0.64,0.14,1.61
0.3019089698791504,-0.65,-0.73,-0.16,0.99
0.3022890090942383,-1.43,-0.56,-0.76,1.71
0.30264806747436523,0.65,-0.02,-0.66,0.92
0.30301809310913086,-0.32,-0.16,0.01,0.35
0.3033740520477295,-0.66,0.27,-0.01,0.71
0.3132190704345703,-0.12,-0.13,0.22,0.28
0.3997349739074707,-0.12,-0.28,0.12,0.32
0.4001021385192871,0.01,0.11,-0.06,0.12
0.40045809745788574,0.39,0.02,0.02,0.39
0.4008140563964844,0.03,0.34,-0.14,0.36
0.4016852378845215,0.08,0.34,-0.05,0.35
0.40204906463623047,0.03,0.14,-0.06,0.15
0.40242910385131836,-0.12,0.2,0.12,0.26
0.4027841091156006,-0.33,0.0,0.23,0.4
0.4031510353088379,-0.27,-0.17,-0.05,0.32
0.413161039352417,-0.6,-0.43,-0.18,0.75
0.49988508224487305,-0.28,-0.21,0.18,0.39
0.5002610683441162,-0.29,-0.11,0.27,0.41
0.5006241798400879,-0.04,-0.05,0.6,0.6
0.5009810924530029,-0.14,-0.01,0.39,0.41
0.5018930435180664,2.65,1.47,0.11,3.03
0.5022768974304199,-1.14,-0.53,0.34,1.3
0.5026140213012695,-1.14,-1.03,0.04,1.53
0.5029768943786621,0.07,-0.06,-0.55,0.55
0.5033512115478516,-0.27,-0.05,-0.16,0.31
0.5129740238189697,-0.47,-0.1,0.21,0.52
0.5994510650634766,-0.07,-0.06,0.06,0.11
0.5998291969299316,-0.95,0.09,-0.24,0.98
0.6001911163330078,0.2,-0.3,-0.37,0.51
0.6005501747131348,0.51,0.31,-0.34,0.68
0.6009039878845215,0.0,0.33,-0.09,0.34
0.6012592315673828,0.19,0.17,-0.03,0.25
0.6020989418029785,0.2,0.15,-0.23,0.33
0.6024651527404785,0.05,0.11,-0.35,0.37
0.602837085723877,-0.22,0.51,-0.62,0.83
0.6129212379455566,-0.8,-0.26,-0.42,0.94
0.6995480060577393,-0.72,-0.88,0.45,1.22
0.6999220848083496,-0.62,-0.3,0.5,0.85
0.7002840042114258,-0.3,-0.07,0.35,0.46
0.7006421089172363,-0.2,-0.24,0.32,0.44
0.7009949684143066,0.05,-0.18,0.34,0.38
0.7013471126556396,0.09,-0.07,0.31,0.33
0.7021620273590088,0.04,0.02,0.08,0.09
0.7025251388549805,0.09,-0.01,0.07,0.11
0.7028930187225342,0.12,0.08,0.14,0.2
0.7127132415771484,-0.06,-0.02,0.0,0.06
0.8002409934997559,-0.21,0.05,-0.04,0.21
0.8006150722503662,-0.29,0.13,-0.08,0.32
0.800976037979126,-0.19,-0.06,-0.13,0.23
0.8013339042663574,-0.16,-0.03,-0.01,0.16
0.8017148971557617,-0.09,-0.02,0.19,0.21
0.8026041984558105,-0.06,-0.04,0.05,0.08
0.8029451370239258,-0.1,-0.04,0.07,0.12
0.8033099174499512,-0.2,-0.08,0.1,0.23
0.80367112159729,-0.21,-0.09,0.02,0.22
0.812675952911377,-0.26,-0.1,0.07,0.28
0.899245023727417,-0.25,-0.08,0.19,0.32
0.8995962142944336,-0.25,-0.02,0.08,0.26
0.8999581336975098,-0.24,0.03,0.04,0.24
0.9002931118011475,-0.24,-0.04,0.14,0.28
0.9006450176239014,-0.14,0.01,0.07,0.15
0.9009981155395508,-0.07,-0.07,0.1,0.14
0.9013710021972656,-0.05,-0.1,0.09,0.14
0.9017271995544434,-0.06,-0.15,0.06,0.17
0.9020781517028809,-0.11,-0.08,0.04,0.14
0.912567138671875,-0.19,0.07,0.25,0.32
0.9992580413818359,-0.29,0.09,0.16,0.34
0.9996330738067627,-0.18,-0.1,0.09,0.22
0.9999771118164062,-0.25,-0.02,0.09,0.26
1.0003330707550049,-0.19,-0.1,0.17,0.27
1.0006821155548096,-0.22,-0.08,0.15,0.27
1.0010321140289307,-0.16,-0.04,0.03,0.16
1.001413106918335,-0.24,-0.09,0.04,0.25
1.0017461776733398,-0.23,-0.09,-0.01,0.24
1.0020952224731445,-0.11,-0.05,0.06,0.13
1.0125510692596436,-0.16,0.01,0.07,0.17
1.0981090068817139,-0.05,-0.04,-0.15,0.16
1.098480224609375,-0.04,-0.12,-0.12,0.17
1.098844051361084,-0.09,-0.01,-0.09,0.12
1.0992021560668945,-0.15,0.03,0.02,0.15
1.099553108215332,-0.1,0.05,0.03,0.11
1.0999059677124023,-0.07,0.09,-0.06,0.12
1.1002368927001953,0.01,0.2,-0.06,0.2
1.1005611419677734,0.06,0.24,-0.06,0.25
1.1015651226043701,0.04,0.16,-0.1,0.19
1.1123340129852295,0.05,0.08,-0.16,0.18
1.1986351013183594,0.07,-0.04,-0.13,0.15
1.1990079879760742,0.04,-0.12,-0.15,0.19
1.1993741989135742,-0.03,-0.18,-0.21,0.27
1.199733018875122,0.0,-0.23,-0.2,0.3
1.2000889778137207,0.01,-0.26,-0.1,0.27
1.2004241943359375,0.02,-0.26,-0.02,0.26
1.2007741928100586,0.01,-0.31,0.09,0.32
1.2011210918426514,0.0,-0.28,0.16,0.32
1.201585054397583,-0.06,-0.16,-0.22,0.27
1.2122201919555664,0.01,-0.16,-0.15,0.21
1.2986011505126953,-0.02,0.1,0.07,0.12
1.2989749908447266,-0.03,0.16,-0.12,0.2
1.2993149757385254,-0.09,0.16,-0.27,0.32
1.299673080444336,-0.16,0.19,0.08,0.26
1.3000240325927734,-0.17,-0.04,0.2,0.26
1.3003730773925781,-0.19,-0.2,0.1,0.29
1.3007280826568604,-0.2,-0.26,0.07,0.33
1.3011112213134766,-0.16,-0.24,0.1,0.3
1.301466941833496,-0.15,-0.2,0.19,0.31
1.312150001525879,-0.15,0.03,-0.07,0.16
1.3981919288635254,-0.04,-0.04,-0.1,0.11
1.3985660076141357,0.02,-0.01,-0.08,0.08
1.3989272117614746,-0.06,-0.1,0.01,0.11
1.399285078048706,-0.1,-0.14,0.06,0.18
1.3996491432189941,-0.21,-0.24,0.03,0.32
1.4000091552734375,-0.33,-0.3,0.01,0.44
1.4003629684448242,-0.38,-0.34,0.1,0.51
1.4007182121276855,-0.37,-0.39,0.19,0.57
1.4011940956115723,-0.32,-0.43,0.41,0.67
1.412048101425171,-0.25,-0.39,0.22,0.51
1.4980430603027344,-0.07,-0.55,0.25,0.6
1.4984149932861328,0.04,-0.49,0.26,0.55
1.4987740516662598,0.1,-0.43,0.31,0.53
1.4991300106048584,0.17,-0.44,0.43,0.63
1.499479055404663,0.15,-0.33,0.28,0.45
1.4998269081115723,0.21,-0.35,0.34,0.53
1.5001769065856934,0.27,-0.37,0.52,0.69
1.5005230903625488,0.3,-0.26,0.66,0.77
1.5010709762573242,0.41,-0.15,0.77,0.88
1.5118942260742188,0.57,-0.13,0.93,1.09
1.598128080368042,0.57,0.01,0.89,1.05
1.5985040664672852,0.66,0.03,0.94,1.14
1.5988640785217285,0.67,0.04,1.01,1.21
1.599241018295288,0.63,0.11,1.19,1.35
1.5995769500732422,0.63,0.13,1.37,1.51
1.5999290943145752,0.7,0.15,1.43,1.59
1.600283145904541,0.77,0.14,1.42,1.62
1.6006321907043457,0.78,0.14,1.37,1.58
1.6010479927062988,0.7,0.16,1.34,1.52
1.6118040084838867,0.53,0.18,1.37,1.47
1.6984751224517822,0.39,0.13,1.45,1.5
1.698848009109497,0.23,0.02,1.47,1.48
1.6992130279541016,0.12,-0.18,1.37,1.38
1.6995692253112793,0.09,-0.44,1.18,1.26
1.6998980045318604,0.09,-0.68,1.04,1.24
1.7002291679382324,0.1,-0.9,1.04,1.37
1.70058012008667,0.13,-1.01,1.15,1.53
1.7009329795837402,0.22,-1.16,1.26,1.72
1.7012791633605957,0.31,-1.31,1.24,1.83
1.7116971015930176,0.4,-1.33,1.13,1.79
1.7988150119781494,0.46,-1.24,1.14,1.74
1.799187183380127,0.51,-1.13,1.27,1.77
1.799551010131836,0.55,-1.01,1.37,1.78
1.7999091148376465,0.6,-0.87,1.43,1.77
1.8002660274505615,0.66,-0.74,1.44,1.74
1.8006172180175781,0.69,-0.6,1.49,1.74
1.8009519577026367,0.69,-0.46,1.66,1.85
1.8013019561767578,0.71,-0.24,1.64,1.8
1.8016550540924072,0.63,-0.26,1.79,1.91
1.8114681243896484,0.68,-0.28,1.71,1.86
1.8975319862365723,0.73,-0.3,1.63,1.81
1.8979411125183105,0.74,-0.31,1.56,1.75
1.8983039855957031,0.75,-0.37,1.55,1.76
1.8986401557922363,0.78,-0.29,1.55,1.75
1.8989901542663574,0.81,-0.24,1.39,1.62
1.8993430137634277,0.76,-0.25,1.02,1.29
1.8996739387512207,0.76,-0.18,1.4,1.6
1.9000210762023926,0.79,-0.04,1.65,1.82
1.900860071182251,0.79,-0.01,1.64,1.82
1.9113779067993164,0.7,0.08,1.5,1.65
1.9207830429077148,0.74,0.16,1.33,1.53
1.9978220462799072,0.91,0.31,1.32,1.63
1.9981880187988281,1.01,0.45,1.33,1.72
1.998542070388794,1.06,0.54,1.42,1.85
1.9988930225372314,1.0,0.67,1.37,1.82
1.999244213104248,0.83,0.66,1.35,1.71
1.9995911121368408,0.78,0.73,1.26,1.65
1.9999198913574219,0.78,0.74,1.18,1.59
2.0007071495056152,0.74,0.72,1.23,1.6
2.011199951171875,0.81,0.87,1.27,1.73
2.02065110206604,0.86,1.02,1.38,1.91
2.097538948059082,0.99,1.23,1.32,2.05
2.097907066345215,0.92,1.44,1.06,2.01
2.098262071609497,0.87,1.51,0.61,1.84
2.0986099243164062,0.93,1.49,0.65,1.87
2.0989620685577393,0.8,1.66,0.81,2.01
2.099306106567383,0.71,1.81,0.85,2.12
2.099656105041504,0.68,1.91,0.82,2.18
2.1006650924682617,0.67,1.92,0.75,2.16
2.111142158508301,0.66,1.8,0.44,1.96
2.1205880641937256,0.55,1.62,0.01,1.71
2.1971468925476074,0.36,1.33,-0.33,1.41
2.1975181102752686,0.06,0.83,-0.67,1.06
2.1978769302368164,-0.24,0.37,-0.78,0.89
2.198235034942627,-0.58,-0.17,-0.69,0.91
2.1985878944396973,-0.74,-0.73,-0.8,1.31
2.198935031890869,-0.85,-1.19,-0.86,1.69
2.199286937713623,-1.01,-1.44,-0.82,1.94
2.2003400325775146,-1.16,-1.51,-0.64,2.0
2.2109920978546143,-1.24,-1.34,-0.42,1.87
2.2205450534820557,-1.34,-0.96,-0.21,1.66
2.2979049682617188,-1.45,-0.49,0.08,1.53
2.298275947570801,-1.42,-0.06,0.24,1.44
2.2986350059509277,-1.31,0.26,0.27,1.36
2.2989890575408936,-1.14,0.5,0.22,1.26
2.299342155456543,-0.87,0.6,0.15,1.06
2.299694061279297,-0.61,0.44,0.01,0.75
2.300053119659424,-0.49,0.03,-0.11,0.5
2.300410032272339,-0.43,-0.58,-0.14,0.73
2.310850143432617,-0.43,-1.23,0.0,1.3
2.320396900177002,-0.39,-1.86,0.04,1.9
2.3986361026763916,-0.33,-2.45,0.34,2.49
2.3990070819854736,-0.2,-2.54,-0.03,2.54
2.3993659019470215,-0.16,-2.8,0.01,2.8
2.39971923828125,0.01,-2.73,-0.05,2.73
2.4000701904296875,0.12,-2.63,0.14,2.63
2.400424003601074,0.04,-2.46,0.29,2.47
2.4007771015167236,-0.11,-2.26,0.38,2.29
2.4011240005493164,-0.28,-2.04,0.35,2.08
2.410733222961426,-0.42,-1.82,0.45,1.92
2.420224189758301,-0.49,-1.64,0.66,1.83
2.4988200664520264,-0.53,-1.41,0.87,1.73
2.499192237854004,-0.56,-1.28,0.97,1.7
2.49955415725708,-0.64,-1.21,1.0,1.69
2.499913215637207,-0.76,-1.03,1.02,1.63
2.5002670288085938,-0.84,-0.85,1.09,1.61
2.500619888305664,-0.79,-0.74,1.25,1.65
2.500974178314209,-0.66,-0.72,1.17,1.52
2.501326084136963,-0.54,-0.82,0.85,1.29
2.5107131004333496,-0.49,-0.86,0.88,1.32
2.520226001739502,-0.55,-0.8,1.33,1.64
2.599236011505127,-0.66,-0.74,1.53,1.82
2.5996079444885254,-0.91,-0.57,1.54,1.87
2.599958896636963,-1.09,-0.39,1.47,1.87
2.6002891063690186,-1.09,-0.14,1.55,1.9
2.600642204284668,-1.01,0.13,1.78,2.05
2.600990056991577,-0.92,0.36,1.79,2.04
2.60134220123291,-0.79,0.5,1.49,1.75
2.601694107055664,-0.65,0.57,0.99,1.31
2.6105120182037354,-0.55,0.8,0.69,1.19
2.6200830936431885,-0.71,1.22,1.11,1.79
2.6987690925598145,-0.95,1.81,2.24,3.03
2.69913911819458,-1.15,2.28,3.23,4.11
2.6995019912719727,-1.18,2.66,3.64,4.66
2.699857234954834,-1.13,3.02,3.12,4.48
2.7002100944519043,-0.84,3.3,2.1,4.0
2.7005629539489746,-0.4,3.59,1.41,3.87
2.7009170055389404,-0.14,3.69,1.08,3.84
2.701268196105957,0.06,3.55,1.35,3.79
2.7105069160461426,0.3,3.14,0.48,3.19
2.719947099685669,0.48,2.56,-0.58,2.66
2.802802085876465,0.53,2.01,-1.57,2.6
2.8031702041625977,0.66,1.76,-2.22,2.9
2.803528070449829,0.8,1.42,-2.75,3.19
2.80387806892395,0.83,0.97,-2.74,3.02
2.8042311668395996,1.12,0.61,-2.46,2.77
2.8045830726623535,1.34,0.24,-2.5,2.84
2.804935932159424,1.53,-0.01,-2.66,3.06
2.8052821159362793,1.72,-0.14,-2.39,2.94
2.810328960418701,1.91,-0.09,-1.71,2.56
2.819828987121582,1.83,-0.02,-0.96,2.06
2.903290033340454,1.52,0.18,-0.4,1.58
2.9036600589752197,1.18,0.36,-0.11,1.23
2.9040160179138184,0.8,0.7,0.07,1.06
2.9043679237365723,0.3,0.93,0.02,0.97
2.9047250747680664,-0.14,1.02,-0.18,1.04
2.905078887939453,-0.53,0.91,-0.44,1.14
2.905431032180786,-0.74,0.41,-0.61,1.04
2.905783176422119,-0.72,-0.46,-0.75,1.13
2.9102420806884766,-0.59,-1.45,-0.73,1.72
2.9197511672973633,-0.41,-2.35,-0.6,2.45
3.00331711769104,-0.17,-3.1,-0.21,3.11
3.0036890506744385,-0.08,-3.29,-0.36,3.31
3.0040481090545654,0.18,-3.75,-0.26,3.76
3.0044000148773193,0.26,-3.76,-0.37,3.78
3.004749059677124,0.39,-3.7,-0.16,3.72
3.005101203918457,0.51,-3.47,-0.09,3.5
3.00544810295105,0.78,-3.09,-0.12,3.18
3.005794048309326,0.93,-2.88,-0.09,3.02
3.0099990367889404,1.13,-2.65,0.02,2.88
3.019659996032715,1.27,-2.46,0.28,2.78
3.1040549278259277,1.32,-2.25,0.46,2.64
3.1044270992279053,1.3,-2.03,0.69,2.5
3.1047849655151367,1.2,-1.7,0.96,2.29
3.105142116546631,1.11,-1.32,1.09,2.04
3.105494976043701,0.98,-1.04,0.98,1.73
3.1058459281921387,0.83,-0.86,0.78,1.42
3.1061971187591553,0.74,-0.7,0.85,1.32
3.1065480709075928,0.66,-0.57,0.65,1.08
3.1098110675811768,0.62,-0.51,0.4,0.89
3.119486093521118,0.77,-0.45,0.41,0.98
3.2048020362854004,0.86,-0.35,0.37,0.99
3.2051730155944824,0.91,-0.17,0.76,1.19
3.2055301666259766,1.0,0.06,1.0,1.41
3.2058839797973633,1.05,0.35,1.05,1.52
3.206235885620117,0.89,0.86,1.07,1.63
3.2065820693969727,0.69,1.35,1.24,1.95
3.2069270610809326,0.57,1.75,0.97,2.08
3.2075881958007812,0.57,2.14,0.65,2.3
3.2095940113067627,0.66,2.56,1.2,2.9
3.219363212585449,0.71,2.99,2.0,3.66
3.304474115371704,0.61,3.37,2.54,4.26
3.304841995239258,0.48,3.68,2.56,4.5
3.3052010536193848,0.26,3.83,2.38,4.51
3.3055551052093506,0.0,3.81,2.01,4.3
3.305912971496582,-0.19,3.6,1.12,3.77
3.306270122528076,-0.39,3.31,-0.03,3.33
3.3066248893737793,-0.56,3.04,-0.67,3.16
3.3069801330566406,-0.76,2.54,-1.11,2.87
3.3096189498901367,-0.54,1.83,-1.99,2.75
3.3193750381469727,-0.62,1.3,-2.51,2.89
3.404788017272949,-0.68,0.54,-2.11,2.28
3.4051589965820312,-0.7,-0.07,-1.6,1.74
3.405522108078003,-0.97,-0.44,-1.48,1.82
3.405880928039551,-1.22,-0.79,-1.72,2.25
3.4062352180480957,-1.45,-1.07,-1.89,2.61
3.406589984893799,-1.62,-1.09,-1.43,2.42
3.4069430828094482,-1.73,-0.83,-0.77,2.06
3.407297134399414,-1.72,-0.34,-0.48,1.81
3.409464120864868,-1.69,0.28,-0.13,1.71
3.4192750453948975,-1.63,1.03,0.31,1.95
3.5049939155578613,-1.27,1.58,0.41,2.06
3.5053629875183105,-0.9,1.9,0.05,2.1
3.5057260990142822,-0.53,1.66,-0.43,1.79
3.50608491897583,-0.22,0.99,-0.8,1.29
3.506442070007324,-0.08,0.01,-0.84,0.84
3.5067970752716064,0.01,-1.08,-0.68,1.27
3.507146120071411,0.03,-2.14,-0.5,2.19
3.5075011253356934,-0.08,-3.0,-0.63,3.06
3.5093610286712646,-0.26,-3.86,-0.54,3.9
3.5192079544067383,-0.08,-4.04,-0.71,4.1
3.6054470539093018,-0.27,-4.4,-0.58,4.44
3.6058170795440674,-0.1,-4.12,-0.72,4.18
3.606182098388672,-0.19,-4.11,-0.71,4.17
3.6065402030944824,-0.13,-3.9,-0.52,3.93
3.6068949699401855,-0.15,-3.5,-0.27,3.51
3.607248067855835,-0.25,-3.01,-0.06,3.02
3.607600212097168,-0.35,-2.4,0.06,2.42
3.6079530715942383,-0.55,-1.82,0.28,1.92
3.609570026397705,-0.69,-1.33,0.34,1.53
3.618985176086426,-0.79,-1.02,0.48,1.37
3.705148220062256,-0.88,-0.67,0.44,1.19
3.7055201530456543,-0.89,-0.59,0.58,1.21
3.7058801651000977,-0.95,-0.53,0.79,1.34
3.706238031387329,-0.92,-0.45,1.04,1.45
3.706592082977295,-0.94,-0.44,1.22,1.6
3.7069449424743652,-0.97,-0.42,1.12,1.54
3.70729923248291,-0.99,-0.28,0.71,1.25
3.707653045654297,-1.01,0.09,0.57,1.16
3.709589958190918,-1.08,0.69,1.1,1.68
3.718858003616333,-1.27,1.19,1.51,2.3
3.805699110031128,-1.23,1.55,1.48,2.47
3.8060500621795654,-1.07,1.55,1.12,2.19
3.806410074234009,-0.83,1.79,0.55,2.04
3.806770086288452,-0.64,2.37,1.28,2.76
3.807126045227051,-0.46,2.9,2.66,3.96
3.807481050491333,-0.34,3.01,3.29,4.47
3.8078370094299316,-0.19,3.13,2.71,4.14
3.808194160461426,-0.31,3.25,2.45,4.08
3.809584140777588,-0.43,3.4,2.25,4.09
3.8187661170959473,-0.31,3.08,1.17,3.3
3.9057040214538574,0.18,2.22,-1.06,2.46
3.906075954437256,0.76,1.27,-2.65,3.03
3.9064369201660156,1.22,0.38,-2.74,3.02
3.9067940711975098,1.68,0.0,-2.98,3.42
3.907149076461792,1.85,-0.47,-2.97,3.53
3.907503128051758,1.94,-0.58,-2.46,3.18
3.9078550338745117,1.98,-0.25,-1.88,2.74
3.908207893371582,2.03,0.02,-1.05,2.28
3.989622116088867,2.1,0.38,-0.78,2.27
3.989995002746582,2.16,0.64,-0.93,2.43
3.990349054336548,2.15,1.11,-0.84,2.56
3.9907031059265137,1.88,1.88,-0.09,2.66
3.991054058074951,1.45,2.74,0.73,3.18
3.9914040565490723,0.81,3.42,0.91,3.63
3.991753101348877,0.16,3.54,0.51,3.58
3.9925479888916016,-0.35,3.24,0.05,3.25
3.992913007736206,-0.82,2.62,-0.37,2.77
3.99847412109375,-0.96,1.54,-0.68,1.93
4.089757919311523,-0.95,0.39,-0.58,1.17
4.090130090713501,-0.78,-0.7,-0.36,1.1
4.090491056442261,-0.47,-1.66,-0.28,1.74
4.090850114822388,-0.21,-2.4,-0.15,2.41
4.09120512008667,0.02,-2.98,-0.14,2.98
4.091555118560791,0.21,-3.52,-0.33,3.54
4.091903209686279,0.41,-4.05,-0.57,4.11
4.092252016067505,0.48,-4.43,-0.86,4.53
4.092924118041992,0.51,-4.7,-0.99,4.83
4.098450183868408,0.48,-4.87,-0.78,4.95
4.109008073806763,0.49,-4.91,-0.72,4.98
4.185908079147339,0.53,-4.88,-0.47,4.93
4.186261177062988,0.53,-4.83,-0.17,4.86
4.186616897583008,0.7,-4.64,-0.21,4.69
4.186975955963135,0.75,-4.31,0.01,4.37
4.187333106994629,0.79,-3.82,0.49,3.93
4.187688112258911,0.83,-3.21,0.76,3.4
4.188045024871826,0.89,-2.55,0.79,2.81
4.18840217590332,0.9,-1.78,0.71,2.11
4.198252201080322,0.88,-0.9,0.44,1.33
4.208820104598999,0.82,0.05,0.13,0.83
4.285559177398682,0.85,0.99,0.12,1.31
4.285930156707764,0.91,1.85,0.49,2.11
4.286286115646362,0.97,2.63,0.94,2.95
4.286640167236328,1.09,3.13,1.13,3.5
4.286992073059082,1.17,3.29,1.09,3.65
4.2873430252075195,1.21,3.38,0.39,3.61
4.287692070007324,1.24,3.63,0.15,3.83
4.288158893585205,1.23,4.13,0.96,4.41
4.298126220703125,1.07,4.5,2.04,5.05
4.308643102645874,0.83,4.82,2.29,5.4
4.386392116546631,0.39,4.84,2.16,5.31
4.386760234832764,0.03,4.78,1.47,5.0
4.387124061584473,-0.49,4.43,0.15,4.45
4.387485027313232,-1.05,3.8,-0.85,4.03
4.387845993041992,-1.17,2.74,-1.41,3.29
4.38820219039917,-0.97,1.53,-2.14,2.8
4.388556003570557,-0.96,0.38,-2.77,2.95
4.3889100551605225,-0.95,-0.49,-2.92,3.1
4.398014068603516,-0.99,-1.13,-2.7,3.08
4.4086151123046875,-1.17,-1.4,-3.05,3.55
4.486937046051025,-1.34,-1.5,-2.9,3.52
4.487308979034424,-1.4,-1.31,-2.04,2.79
4.487673044204712,-1.46,-1.02,-1.23,2.16
4.4880290031433105,-1.33,-0.23,-0.38,1.4
4.488385200500488,-1.21,0.59,0.48,1.42
4.488737106323242,-1.06,1.76,1.02,2.29
4.48908805847168,-1.02,3.18,0.92,3.46
4.489434003829956,-0.76,4.31,0.2,4.38
4.497849941253662,-0.44,4.59,-0.33,4.62
4.508580207824707,-0.72,4.57,-0.47,4.65
4.586695194244385,-0.76,3.29,-0.43,3.4
4.587067127227783,-0.71,1.61,-0.15,1.76
4.58741307258606,-0.71,-0.17,-0.16,0.74
4.587767124176025,-0.63,-1.69,-0.15,1.8
4.588125228881836,-0.71,-2.71,-0.29,2.81
4.5884809494018555,-0.44,-3.51,-0.61,3.58
4.58883810043335,-0.42,-4.1,-0.62,4.16
4.589189052581787,-0.23,-4.41,-0.78,4.48
4.597783088684082,-0.04,-4.61,-0.82,4.68
4.608482122421265,0.02,-4.62,-0.92,4.71
4.68678092956543,0.01,-4.49,-0.91,4.58
4.687148094177246,-0.07,-4.18,-0.76,4.24
4.687510967254639,-0.11,-3.94,-0.59,3.98
4.6878662109375,-0.17,-3.75,-0.57,3.79
4.688220024108887,-0.33,-3.72,-0.31,3.74
4.688566207885742,-0.45,-3.79,-0.08,3.81
4.688920021057129,-0.54,-3.75,0.26,3.79
4.689268112182617,-0.66,-3.68,0.34,3.75
4.697778224945068,-0.76,-3.44,0.12,3.52
4.708392143249512,-0.74,-2.9,0.11,2.99
4.786993026733398,-0.72,-2.07,0.34,2.21
4.787369012832642,-0.71,-1.17,0.56,1.47
4.787731170654297,-0.81,-0.11,0.71,1.08
4.788088083267212,-0.99,1.15,1.44,2.09
4.788443088531494,-1.2,2.32,1.9,3.22
4.788798093795776,-1.36,2.96,1.71,3.67
4.789149045944214,-1.39,2.95,1.16,3.46
4.789499044418335,-1.04,2.78,0.69,3.04
4.797519207000732,-0.6,2.9,0.91,3.09
4.808060169219971,-0.54,3.37,2.13,4.02
4.886900901794434,-0.58,3.67,2.97,4.75
4.887273073196411,-0.73,3.63,3.05,4.79
4.8876330852508545,-0.96,3.68,3.44,5.12
4.887990951538086,-1.07,4.01,3.17,5.22
4.888345241546631,-0.84,4.06,1.64,4.45
4.88870096206665,-0.52,3.64,-0.44,3.7
4.889049053192139,-0.07,2.61,-1.01,2.79
4.8894031047821045,0.56,1.62,-0.75,1.87
4.89749813079834,0.95,0.72,-1.39,1.83
4.908044099807739,1.08,0.03,-3.02,3.2
4.987473011016846,1.35,-0.52,-3.89,4.15
4.9878480434417725,1.43,-0.77,-3.65,3.99
4.988210201263428,1.58,-0.83,-2.94,3.43
4.988568067550659,1.84,-0.68,-2.35,3.06
4.988924026489258,2.12,-0.33,-2.11,3.0
4.989282131195068,2.35,0.25,-1.91,3.03
4.989638090133667,2.53,1.11,-1.37,3.08
4.989992141723633,2.29,2.19,-0.55,3.21
4.997376918792725,2.02,3.17,0.07,3.75
5.008040904998779,1.47,3.88,0.11,4.15
5.088154077529907,0.74,4.21,-0.45,4.29
5.088526010513306,0.02,3.95,-1.03,4.08
5.088888168334961,-0.36,3.35,-1.19,3.57
5.0892438888549805,-0.45,2.29,-0.85,2.48
5.089592933654785,-0.35,0.94,-0.44,1.09
5.089950084686279,-0.21,-0.37,-0.23,0.48
5.090303897857666,0.0,-1.49,-0.12,1.49
5.090656042098999,0.14,-2.13,-0.52,2.19
5.097187042236328,0.32,-2.76,-0.76,2.88
5.107964992523193,0.42,-3.25,-0.77,3.36
5.188353061676025,0.41,-3.52,-0.83,3.63
5.188723087310791,0.35,-3.85,-0.85,3.95
5.1890869140625,0.47,-4.1,-1.03,4.25
5.189446926116943,0.31,-4.41,-1.08,4.55
5.189803123474121,0.28,-4.53,-0.98,4.64
5.190157890319824,0.41,-4.55,-0.97,4.67
5.1905059814453125,0.4,-4.54,-0.83,4.63
5.190861225128174,0.48,-4.41,-0.57,4.47
5.197021007537842,0.59,-4.26,-0.25,4.3
5.207830905914307,0.74,-3.98,-0.03,4.04
5.288203239440918,0.85,-3.56,0.15,3.66
5.288572072982788,0.93,-3.09,0.31,3.24
5.2889320850372314,0.99,-2.67,0.23,2.85
5.2892889976501465,1.05,-2.28,0.37,2.53
5.289637088775635,0.97,-1.61,0.41,1.92
5.2899909019470215,0.87,-0.95,0.32,1.32
5.290335178375244,0.83,-0.4,0.17,0.93
5.290685176849365,1.0,0.38,0.27,1.1
5.296969890594482,1.09,1.12,0.52,1.64
5.307730197906494,1.21,1.71,0.58,2.17
5.388670921325684,1.38,2.2,0.34,2.61
5.389043092727661,1.45,2.46,0.63,2.92
5.389380931854248,1.45,2.67,0.25,3.04
5.3897340297698975,1.44,3.03,-0.06,3.35
5.390093088150024,1.29,3.45,0.65,3.74
5.3904430866241455,1.05,3.88,1.99,4.48
5.390789985656738,0.7,4.19,3.16,5.29
5.391136169433594,0.32,4.25,3.21,5.33
5.396851062774658,0.05,3.95,2.46,4.65
5.4076080322265625,-0.27,3.72,1.19,3.91
5.489029884338379,-0.41,3.31,-0.22,3.34
5.489406108856201,-0.5,2.63,-1.08,2.88
5.4897661209106445,-0.54,1.84,-1.39,2.36
5.490116119384766,-0.72,0.89,-1.57,1.94
5.490469932556152,-0.87,0.19,-2.01,2.19
5.490822076797485,-0.89,-0.18,-2.08,2.26
5.491173028945923,-1.04,-0.36,-1.51,1.86
5.491519927978516,-1.21,-0.3,-1.25,1.76
5.496762037277222,-1.56,-0.29,-1.33,2.07
5.50742506980896,-1.95,-0.13,-1.44,2.42
5.589544057846069,-2.29,0.32,-0.95,2.49
5.589916229248047,-2.17,0.91,-1.08,2.58
5.590281009674072,-2.48,1.62,0.14,2.96
5.590639114379883,-2.58,2.66,0.79,3.78
5.590996026992798,-1.84,3.29,0.76,3.84
5.591346025466919,-1.24,3.44,0.28,3.66
5.591701984405518,-0.77,2.97,-0.18,3.07
5.5920538902282715,-0.39,2.03,-0.57,2.14
5.596495151519775,-0.1,0.81,-0.81,1.14
5.607346057891846,0.14,-0.53,-0.63,0.83
5.689882040023804,0.34,-1.69,-0.72,1.86
5.690258979797363,0.51,-2.54,-0.8,2.71
5.6905999183654785,0.51,-3.17,-0.7,3.28
5.690948963165283,0.5,-3.61,-0.6,3.69
5.691303014755249,0.39,-3.91,-0.56,3.96
5.691656112670898,0.25,-3.96,-0.63,4.01
5.692016124725342,0.18,-3.74,-0.96,3.86
5.692367076873779,-0.05,-3.73,-0.86,3.82
5.696585178375244,-0.15,-3.47,-0.91,3.59
5.707221031188965,-0.12,-3.36,-0.81,3.45
5.790487051010132,-0.18,-3.29,-0.86,3.4
5.790859222412109,-0.17,-3.11,-0.57,3.16
5.791227102279663,-0.16,-2.9,-0.12,2.9
5.791590213775635,-0.22,-2.59,0.25,2.61
5.791944980621338,-0.36,-2.17,0.48,2.25
5.792285919189453,-0.58,-1.65,0.48,1.81
5.792635917663574,-0.82,-1.1,0.38,1.42
5.7929911613464355,-1.06,-0.65,0.31,1.28
5.796725034713745,-1.18,-0.22,0.32,1.24
5.807109117507935,-1.16,0.1,0.43,1.24
5.890926122665405,-1.15,0.36,0.47,1.29
5.89129900932312,-1.18,0.63,0.66,1.49
5.891657114028931,-1.17,0.86,1.15,1.85
5.892014026641846,-1.15,1.11,1.72,2.34
5.8923680782318115,-1.23,1.2,1.74,2.44
5.892726898193359,-1.11,1.08,1.29,2.01
5.893073081970215,-0.86,1.04,0.84,1.58
5.893424034118652,-0.72,1.38,0.82,1.75
5.89680814743042,-0.69,1.95,1.62,2.62
5.907031059265137,-0.64,2.59,2.72,3.81
5.9913170337677,-0.52,3.17,3.27,4.58
5.99169397354126,-0.56,3.51,3.21,4.78
5.992033004760742,-0.56,3.72,2.55,4.54
5.99238395690918,-0.39,3.66,1.06,3.83
5.992749214172363,-0.2,2.98,-0.57,3.04
5.993102073669434,-0.04,1.99,-1.19,2.31
5.993452072143555,0.49,1.01,-1.28,1.7
5.993805885314941,0.64,0.07,-1.46,1.59
5.99629807472229,0.77,-0.61,-2.26,2.46
6.007018089294434,0.82,-0.99,-3.05,3.3
6.091831207275391,1.04,-1.13,-3.14,3.49
6.092210054397583,1.31,-0.91,-2.67,3.11
6.092570066452026,1.62,-0.38,-1.85,2.48
6.0929341316223145,1.93,0.22,-1.12,2.24
6.093287944793701,2.21,0.71,-0.81,2.45
6.093636989593506,2.4,1.3,-0.68,2.81
6.093992233276367,2.42,2.19,-0.23,3.27
6.094342231750488,2.04,3.13,0.44,3.76
6.096084117889404,1.45,4.01,0.62,4.3
6.106805086135864,0.92,4.32,0.16,4.41
6.192024230957031,0.27,4.01,-0.16,4.02
6.192397117614746,-0.4,3.32,-0.81,3.44
6.1927618980407715,-0.96,2.06,-1.08,2.51
6.1931281089782715,-1.05,0.69,-0.93,1.56
6.193481922149658,-0.96,-0.58,-0.67,1.3
6.193831920623779,-0.77,-1.64,-0.34,1.84
6.194187164306641,-0.47,-2.42,-0.11,2.46
6.194540977478027,-0.02,-3.08,-0.05,3.08
6.195943117141724,0.43,-3.6,0.05,3.62
6.206536054611206,0.51,-3.64,-0.5,3.7
6.292536020278931,0.63,-3.97,-0.84,4.1
6.2928972244262695,0.67,-4.15,-0.93,4.3
6.293255090713501,0.62,-4.21,-0.94,4.35
6.293612957000732,0.59,-4.32,-0.8,4.43
6.2939629554748535,0.56,-4.36,-0.7,4.45
6.294316053390503,0.52,-4.37,-0.6,4.44
6.294671058654785,0.54,-4.22,-0.44,4.27
6.29502010345459,0.65,-3.99,-0.12,4.04
6.295886039733887,0.76,-3.72,0.22,3.8
6.306609153747559,0.87,-3.41,0.43,3.54
6.392473220825195,0.94,-2.97,0.25,3.12
6.392824172973633,0.94,-2.43,0.15,2.6
6.393186092376709,0.82,-1.69,0.25,1.89
6.393545150756836,0.67,-0.91,0.23,1.15
6.393902063369751,0.66,-0.22,0.18,0.71
6.394256114959717,0.7,0.5,0.37,0.93
6.394606113433838,0.83,1.29,0.73,1.69
6.394958972930908,0.99,2.01,0.93,2.42
6.3957860469818115,1.26,2.48,1.14,3.0
6.406387090682983,1.37,2.79,0.86,3.22
6.49239706993103,1.34,3.05,0.17,3.33
6.492767095565796,1.23,3.45,0.0,3.66
6.4931230545043945,1.16,3.98,0.84,4.22
6.493474960327148,0.91,4.53,2.17,5.1
6.493834972381592,0.57,4.82,2.87,5.63
6.49418306350708,0.27,4.87,2.63,5.54
6.494539022445679,-0.15,4.78,2.25,5.28
6.4948890209198,-0.5,4.53,1.32,4.74
6.495668888092041,-0.79,3.94,0.01,4.01
6.506273031234741,-0.92,3.26,-1.01,3.53
6.592652082443237,-0.98,2.41,-1.43,2.96
6.593026161193848,-1.04,1.45,-2.04,2.71
6.593388080596924,-1.03,0.61,-2.45,2.72
6.59372615814209,-1.03,-0.11,-1.99,2.24
6.594085216522217,-1.18,-0.43,-2.22,2.55
6.59443998336792,-1.25,-1.05,-2.04,2.61
6.594796180725098,-1.39,-1.43,-1.85,2.72
6.595168113708496,-1.57,-1.69,-1.24,2.61
6.595520973205566,-1.84,-1.55,-0.98,2.59
6.606213092803955,-1.8,-1.16,-0.27,2.15
6.693381071090698,-1.75,-0.4,-0.03,1.79
6.69375205039978,-1.63,0.51,0.27,1.72
6.694111108779907,-1.38,1.68,0.38,2.2
6.694465160369873,-0.9,2.52,0.24,2.68
6.694850921630859,-0.58,2.84,-0.29,2.91
6.695207118988037,-0.42,2.52,-0.87,2.69
6.695559024810791,-0.27,1.61,-1.14,1.99
6.6959099769592285,-0.25,0.38,-1.07,1.16
6.6962571144104,-0.2,-1.01,-0.72,1.25
6.706115007400513,-0.06,-2.22,-0.44,2.26
6.793710231781006,-0.15,-3.07,-0.58,3.12
6.794093132019043,-0.16,-3.84,-0.6,3.88
6.794464111328125,-0.09,-4.43,-0.75,4.49
6.794842004776001,-0.02,-4.62,-0.7,4.67
6.79519510269165,0.07,-4.58,-0.66,4.62
6.7955451011657715,0.04,-4.49,-0.69,4.54
6.795897006988525,-0.08,-4.24,-0.52,4.27
6.796243190765381,-0.32,-3.82,-0.33,3.84
6.79659104347229,-0.47,-3.31,-0.21,3.34
6.80596399307251,-0.51,-2.82,0.1,2.86
6.893472194671631,-0.46,-2.35,0.46,2.43
6.893846035003662,-0.36,-2.12,0.91,2.33
6.894208908081055,-0.34,-1.93,1.07,2.23
6.894599914550781,-0.48,-1.63,0.55,1.78
6.8949620723724365,-0.54,-1.3,0.21,1.42
6.895308017730713,-0.74,-0.73,0.24,1.06
6.895662069320679,-0.97,-0.12,0.57,1.13
6.896008014678955,-1.09,-0.01,0.96,1.45
6.896359920501709,-1.3,0.41,0.69,1.52
6.905808925628662,-1.35,0.64,1.08,1.84
6.9940550327301025,-1.34,1.18,1.82,2.54
6.99442720413208,-1.36,1.6,2.08,2.95
6.994821071624756,-1.31,1.61,1.63,2.63
6.995182037353516,-1.07,1.48,1.0,2.08
6.995540142059326,-0.72,1.71,0.67,1.97
6.995896100997925,-0.44,2.34,1.29,2.7
6.996250152587891,-0.28,3.16,2.46,4.01
6.996603965759277,-0.16,3.83,3.37,5.1
6.996959209442139,-0.22,4.03,3.4,5.27
7.00572395324707,-0.43,3.88,2.4,4.58
7.093959093093872,-0.44,3.64,0.82,3.75
7.09450101852417,-0.26,3.28,-0.32,3.3
7.094866037368774,0.04,2.33,-0.7,2.43
7.095225095748901,0.39,1.38,-1.46,2.04
7.095580101013184,0.71,0.31,-2.35,2.47
7.095932960510254,1.0,-0.33,-3.42,3.57
7.09628701210022,1.26,-0.45,-3.99,4.2
7.096638202667236,1.44,-0.5,-2.81,3.19
7.09699010848999,1.47,-0.14,-1.93,2.43
7.105677127838135,1.62,0.28,-1.66,2.33
7.115072011947632,1.79,0.63,-1.66,2.52
7.195041179656982,1.99,1.26,-1.34,2.7
7.195405960083008,2.05,2.05,-0.53,2.94
7.195765018463135,1.91,3.02,0.18,3.57
7.196120023727417,1.58,3.89,0.19,4.2
7.19647216796875,1.06,4.2,-0.1,4.33
7.1968278884887695,0.4,4.36,-0.67,4.42
7.197183132171631,-0.08,3.75,-0.96,3.87
7.197540044784546,-0.31,2.6,-1.18,2.87
7.205414056777954,-0.4,1.17,-0.95,1.55
7.215030193328857,-0.37,-0.17,-0.39,0.56
7.295587062835693,-0.24,-1.33,-0.04,1.35
7.295957088470459,-0.08,-2.28,-0.05,2.28
7.296319007873535,0.16,-2.99,-0.07,2.99
7.296679973602295,0.18,-3.16,-0.68,3.23
7.297034025192261,0.31,-3.52,-0.89,3.64
7.29738712310791,0.39,-3.72,-0.9,3.84
7.297744035720825,0.4,-3.62,-0.86,3.74
7.298089981079102,0.37,-3.73,-0.9,3.85
7.305286884307861,0.41,-3.93,-1.01,4.07
7.314888954162598,0.46,-4.22,-1.04,4.37
7.3950090408325195,0.45,-4.35,-0.87,4.45
7.395380973815918,0.39,-4.57,-0.42,4.6
7.395740985870361,0.47,-4.74,-0.08,4.76
7.3961029052734375,0.58,-4.66,0.21,4.7
7.396457195281982,0.54,-4.38,0.27,4.42
7.396810054779053,0.52,-3.89,0.26,3.93
7.397161960601807,0.62,-3.28,0.4,3.36
7.397517204284668,0.71,-2.56,0.58,2.71
7.405203104019165,0.71,-1.77,0.55,1.98
7.414760112762451,0.68,-0.92,0.38,1.2
7.495963096618652,0.7,-0.04,0.41,0.81
7.496328115463257,0.76,0.75,0.59,1.21
7.4966840744018555,0.85,1.43,0.73,1.81
7.497036933898926,0.96,2.05,0.81,2.4
7.497385025024414,1.07,2.54,1.01,2.93
7.4977312088012695,1.15,2.97,1.03,3.34
7.498082160949707,1.22,3.33,0.55,3.58
7.49843692779541,1.27,3.74,0.62,3.99
7.505028009414673,1.34,4.19,1.54,4.66
7.514573097229004,1.21,4.55,2.56,5.35
7.595591068267822,0.92,4.67,3.0,5.62
7.595961093902588,0.59,4.52,2.71,5.3
7.596319198608398,0.22,4.17,2.08,4.66
7.596679210662842,-0.2,3.48,1.01,3.62
7.5970330238342285,-0.32,2.65,-0.42,2.7
7.597387075424194,-0.45,1.68,-1.31,2.17
7.597743034362793,-0.56,0.72,-1.6,1.84
7.598093032836914,-0.55,0.03,-2.19,2.25
7.604976177215576,-0.7,-0.67,-2.25,2.44
7.614501953125,-0.87,-0.76,-2.47,2.72
7.696455955505371,-0.89,-0.94,-2.36,2.69
7.696816921234131,-1.05,-0.76,-2.44,2.76
7.6971800327301025,-1.29,-0.7,-2.49,2.89
7.697534084320068,-1.63,-0.29,-1.94,2.55
7.697882175445557,-1.94,0.27,-1.01,2.2
7.69823694229126,-2.1,1.23,-0.15,2.43
7.698590040206909,-2.11,2.34,0.84,3.26
7.6989359855651855,-1.8,3.49,0.99,4.04
7.704790115356445,-1.27,4.21,0.58,4.43
7.714457988739014,-0.93,4.27,-0.23,4.37
7.797056198120117,-0.57,3.44,-0.75,3.56
7.797430038452148,-0.42,2.42,-1.2,2.73
7.797791004180908,-0.29,1.0,-1.12,1.52
7.798148155212402,-0.22,-0.42,-0.69,0.83
7.798498153686523,-0.17,-1.55,-0.4,1.6
7.798851013183594,-0.02,-2.37,-0.52,2.42
7.799197196960449,-0.04,-3.19,-0.44,3.22
7.799548149108887,-0.07,-3.83,-0.7,3.89
7.804757118225098,-0.01,-4.22,-0.73,4.28
7.8142640590667725,0.14,-4.61,-0.65,4.65
7.897072076797485,0.19,-4.81,-0.75,4.87
7.897435188293457,0.23,-4.79,-0.92,4.88
7.8977930545806885,0.27,-4.67,-0.9,4.76
7.8981499671936035,0.2,-4.41,-0.68,4.46
7.8985021114349365,0.1,-4.13,-0.35,4.14
7.898856163024902,-0.05,-3.87,-0.15,3.87
7.899208068847656,-0.12,-3.56,0.1,3.56
7.899562120437622,-0.21,-3.25,0.22,3.26
7.904633045196533,-0.34,-3.02,0.4,3.06
7.914204120635986,-0.41,-2.78,0.43,2.84
7.997229099273682,-0.6,-2.36,0.4,2.46
7.997591972351074,-0.92,-1.66,0.58,1.98
7.9979472160339355,-1.18,-0.85,0.59,1.56
7.998302936553955,-1.4,0.33,0.67,1.58
7.998651027679443,-1.44,1.59,1.35,2.53
7.999002933502197,-1.58,2.83,2.14,3.88
7.999350070953369,-1.55,3.39,2.19,4.32
7.9997382164001465,-1.36,3.25,1.22,3.72
8.004523038864136,-1.12,2.8,0.24,3.02
8.014044046401978,-0.83,2.8,-0.04,2.92
8.097594022750854,-0.68,3.29,0.95,3.49
8.097954034805298,-0.67,3.83,2.37,4.55
8.098398208618164,-0.86,3.97,3.25,5.2
8.098755121231079,-0.95,3.98,3.75,5.55
8.099116086959839,-1.13,3.85,3.84,5.55
8.099472045898438,-1.06,3.48,2.58,4.45
8.099822044372559,-0.7,2.88,0.28,2.97
8.100168228149414,-0.2,1.9,-1.18,2.24
8.104319095611572,0.39,0.86,-1.95,2.16
8.113911151885986,0.94,0.11,-2.21,2.4
8.197796106338501,1.44,-0.65,-2.62,3.05
8.198162078857422,1.48,-1.0,-3.42,3.85
8.198515892028809,1.54,-1.34,-3.6,4.13
8.19886589050293,1.67,-1.33,-2.84,3.55
8.199219226837158,1.72,-0.83,-1.89,2.68
8.199568033218384,2.03,-0.28,-1.08,2.31
8.199920177459717,2.19,0.13,-1.27,2.53
8.200271129608154,2.3,0.84,-1.53,2.88
8.20408296585083,2.27,1.46,-1.25,2.97
8.213836193084717,2.07,2.75,-0.27,3.45
8.29814100265503,1.73,3.65,0.63,4.08
8.2985360622406,1.15,3.97,0.8,4.2
8.298896074295044,0.43,3.91,0.04,3.93
8.299259185791016,-0.13,3.33,-0.93,3.45
8.299618005752563,-0.55,2.27,-1.51,2.78
8.299974918365479,-0.8,1.17,-1.46,2.03
8.3003249168396,-0.96,0.05,-0.55,1.1
8.300684928894043,-0.72,-0.92,0.22,1.18
8.3041090965271,-0.61,-1.69,0.21,1.8
8.313689231872559,-0.28,-2.37,-0.14,2.39
8.398011207580566,0.17,-3.03,-0.32,3.05
8.398376941680908,0.25,-3.14,-0.69,3.22
8.39873218536377,0.54,-3.46,-1.0,3.64
8.399085998535156,0.62,-3.8,-1.18,4.02
8.399434089660645,0.57,-3.96,-1.28,4.2
8.399785995483398,0.56,-4.15,-0.85,4.27
8.400118112564087,0.56,-4.18,-0.38,4.23
8.400469064712524,0.69,-4.2,-0.35,4.27
8.40397024154663,0.76,-4.12,-0.42,4.21
8.413609981536865,0.77,-3.91,-0.34,3.99
8.49924111366272,0.8,-3.66,-0.06,3.74
8.499606132507324,0.84,-3.31,0.12,3.41
8.499960899353027,0.81,-2.87,0.1,2.98
8.500314235687256,0.82,-2.52,0.28,2.66
8.500667095184326,0.9,-2.04,0.37,2.26
8.501015186309814,0.87,-1.46,0.42,1.75
8.501367092132568,0.81,-0.89,0.43,1.27
8.501718997955322,0.84,-0.44,0.45,1.04
8.503823041915894,0.89,0.07,0.58,1.06
8.513512134552002,0.92,0.7,0.79,1.4
8.599586963653564,0.96,1.31,1.04,1.92
8.599944114685059,1.06,1.88,1.45,2.6
8.600296974182129,1.19,2.43,1.29,2.99
8.60065221786499,1.17,2.98,0.56,3.25
8.601001024246216,1.04,3.61,0.54,3.79
8.601344108581543,0.96,4.44,1.56,4.8
8.601691007614136,0.87,4.97,3.22,5.98
8.602039098739624,0.73,5.13,3.56,6.28
8.60372018814087,0.51,5.1,2.8,5.84
8.613418102264404,0.11,4.81,1.86,5.15
8.697074890136719,-0.29,4.26,0.59,4.31
8.697451114654541,-0.56,3.4,-0.75,3.52
8.69781494140625,-0.64,2.29,-1.6,2.86
8.698171138763428,-0.73,1.12,-2.12,2.5
8.698523998260498,-0.81,0.25,-2.62,2.75
8.698872089385986,-1.01,-0.41,-2.59,2.81
8.699227094650269,-1.02,-0.64,-2.45,2.72
8.699579238891602,-1.01,-0.85,-2.09,2.47
8.703979969024658,-1.17,-0.84,-1.95,2.42
8.71349310874939,-1.37,-0.74,-1.68,2.29
8.797977924346924,-1.54,-0.61,-1.08,1.97
8.798346042633057,-1.96,-0.02,-0.43,2.0
8.79870891571045,-2.14,0.75,0.19,2.27
8.799074172973633,-2.15,1.69,0.66,2.81
8.799426078796387,-2.1,2.81,0.92,3.62
8.799781084060669,-1.61,3.32,0.59,3.73
8.800129890441895,-0.88,3.03,-0.33,3.17
8.800482034683228,-0.38,2.01,-0.83,2.2
8.882036209106445,-0.06,0.63,-0.73,0.96
8.882416009902954,0.24,-0.71,-0.3,0.8
8.88280701637268,0.38,-1.9,0.08,1.93
8.883170127868652,0.28,-2.8,-0.18,2.81
8.883527040481567,0.37,-3.43,-0.8,3.54
8.883877038955688,0.28,-3.97,-0.85,4.06
8.884233951568604,0.21,-4.05,-0.88,4.14
8.88459300994873,0.2,-4.08,-0.66,4.13
8.884943962097168,0.17,-3.92,-0.59,3.96
8.893173217773438,0.08,-3.72,-0.57,3.76
8.982532024383545,0.04,-3.44,-0.53,3.48
8.982903003692627,-0.01,-3.11,-0.51,3.15
8.983263969421387,0.0,-2.89,-0.46,2.92
8.983613014221191,-0.1,-2.72,-0.35,2.74
8.983968019485474,-0.32,-2.58,0.03,2.59
8.984321117401123,-0.53,-2.39,0.47,2.49
8.984668016433716,-0.77,-2.25,0.8,2.5
8.985006093978882,-1.0,-2.16,0.79,2.5
8.985358238220215,-1.18,-1.94,0.62,2.35
8.99305510520935,-1.21,-1.52,0.79,2.09
9.082443237304688,-1.23,-1.06,0.83,1.82
9.082820892333984,-1.25,-0.48,0.78,1.54
9.083186149597168,-1.26,0.17,0.85,1.52
9.083545207977295,-1.19,1.05,1.2,1.98
9.083899021148682,-1.24,1.9,1.95,2.99
9.08424997329712,-1.38,2.48,2.11,3.53
9.084604024887085,-1.33,2.46,1.33,3.09
9.084959030151367,-1.05,2.48,0.79,2.8
9.085313081741333,-0.82,2.81,0.96,3.08
9.09291696548462,-0.68,3.29,1.68,3.75
9.10342788696289,-0.54,3.64,2.36,4.37
9.182703018188477,-0.37,3.93,3.12,5.03
9.18307113647461,-0.31,3.75,3.07,4.85
9.183431148529053,-0.38,3.32,1.69,3.74
9.18378210067749,-0.16,2.75,-0.31,2.77
9.184139013290405,0.15,1.86,-1.91,2.67
9.184492111206055,0.43,0.94,-2.14,2.37
9.184844017028809,0.75,0.26,-1.82,1.98
9.185193061828613,1.0,-0.24,-2.44,2.64
9.192768096923828,1.18,-0.45,-3.79,3.99
9.203339099884033,1.4,-0.4,-3.85,4.11
9.283130168914795,1.62,0.14,-3.0,3.41
9.28350019454956,1.76,0.8,-1.69,2.56
9.283850193023682,1.93,1.33,-1.04,2.56
9.284205913543701,2.11,1.65,-1.35,2.99
9.284537076950073,2.12,2.16,-1.35,3.31
9.28488302230835,1.97,2.85,-0.09,3.46
9.28523302078247,1.4,3.71,0.81,4.04
9.285583972930908,0.7,4.11,0.7,4.22
9.292726993560791,-0.01,4.01,-0.15,4.01
9.303230047225952,-0.43,3.41,-1.05,3.59
9.383502960205078,-0.58,2.33,-1.45,2.8
9.383881092071533,-0.56,1.03,-1.14,1.63
9.384244918823242,-0.49,-0.22,-0.49,0.72
9.38460397720337,-0.31,-1.42,0.19,1.46
9.384963035583496,-0.22,-2.09,-0.16,2.1
9.385376930236816,-0.09,-2.98,-0.42,3.01
9.385760068893433,0.17,-3.42,-0.62,3.47
9.386126041412354,0.41,-3.77,-0.71,3.85
9.392496109008789,0.48,-4.09,-0.63,4.16
9.403085231781006,0.45,-4.24,-0.59,4.3
9.483530044555664,0.36,-4.37,-0.65,4.43
9.483903884887695,0.33,-4.41,-0.94,4.52
9.484344005584717,0.42,-4.51,-0.91,4.62
9.484719038009644,0.5,-4.58,-0.47,4.63
9.485076904296875,0.55,-4.5,-0.37,4.54
9.485432147979736,0.68,-4.51,-0.26,4.56
9.485785007476807,0.78,-4.44,-0.04,4.5
9.486139059066772,0.68,-4.19,-0.14,4.24
9.492362022399902,0.67,-3.89,-0.06,3.94
9.503003120422363,0.56,-3.27,-0.07,3.31
9.583446979522705,0.42,-2.45,0.11,2.48
9.58382511138916,0.54,-1.55,0.68,1.77
9.584187984466553,0.57,-0.53,1.2,1.43
9.584545135498047,0.75,0.42,1.38,1.62
9.584898948669434,0.95,1.31,1.17,1.99
9.585253238677979,1.1,2.04,0.78,2.44
9.585608005523682,1.24,2.66,0.74,3.02
9.585959911346436,1.26,3.22,0.41,3.48
9.592237949371338,1.16,3.61,0.29,3.8
9.602909088134766,1.27,4.03,0.8,4.3
9.68389105796814,1.32,4.55,1.89,5.1
9.684258937835693,1.1,4.6,2.87,5.53
9.68459415435791,0.96,4.36,2.87,5.3
9.68494701385498,0.73,4.21,3.11,5.28
9.685293197631836,0.3,3.95,3.21,5.09
9.685652017593384,-0.05,3.27,2.16,3.91
9.686007022857666,-0.04,2.39,0.16,2.39
9.686362028121948,-0.1,1.29,-1.49,1.97
9.69210410118103,-0.41,0.23,-1.96,2.01
9.702820062637329,-0.61,-0.51,-1.95,2.1
9.78395414352417,-0.8,-1.1,-1.98,2.4
9.784333229064941,-0.86,-1.49,-1.97,2.61
9.784725189208984,-0.8,-1.52,-2.03,2.65
9.785083055496216,-0.76,-1.4,-2.24,2.74
9.785440921783447,-1.05,-0.93,-2.26,2.65
9.785796165466309,-1.31,-0.5,-1.99,2.43
9.786147117614746,-1.85,0.22,-1.35,2.3
9.78650188446045,-2.43,1.38,-0.52,2.84
9.7919340133667,-2.89,2.63,0.18,3.91
9.802627086639404,-3.02,3.77,0.54,4.86
9.884705066680908,-2.7,4.66,0.28,5.39
9.885082006454468,-2.01,4.94,-0.36,5.34
9.885447978973389,-1.27,4.35,-0.64,4.57
9.885807991027832,-0.69,3.23,-0.7,3.37
9.886168003082275,-0.21,1.77,-0.69,1.91
9.886523008346558,0.07,0.18,-0.46,0.49
9.88687801361084,0.17,-1.19,-0.39,1.26
9.887229919433594,0.35,-2.28,-0.42,2.34
9.891836166381836,0.35,-3.15,-0.53,3.21
9.9025239944458,0.27,-3.72,-0.53,3.76
9.984629154205322,-0.01,-4.03,-0.44,4.05
9.984992980957031,-0.05,-4.07,-0.77,4.14
9.985354900360107,0.03,-4.23,-0.51,4.26
9.985706090927124,-0.02,-4.31,-0.67,4.36
9.98605489730835,0.12,-4.3,-0.65,4.35
9.98641300201416,0.23,-4.21,-0.59,4.25
9.986764907836914,0.16,-4.04,-0.44,4.06
9.987112998962402,0.12,-3.77,-0.57,3.81
9.991650104522705,-0.07,-3.48,-0.46,3.51
10.002389907836914,-0.47,-3.15,-0.29,3.19
10.084753036499023,-0.75,-2.74,-0.03,2.84
10.085127115249634,-0.93,-2.37,0.11,2.54
10.085485935211182,-0.97,-2.04,0.23,2.27
10.085843086242676,-0.99,-1.7,0.31,1.99
10.086199045181274,-0.95,-1.25,0.43,1.62
10.08655309677124,-0.93,-0.71,0.34,1.21
10.086908102035522,-0.96,-0.04,0.33,1.01
10.087261199951172,-1.02,0.96,1.15,1.81
10.091482162475586,-1.09,1.87,2.18,3.07
10.102291107177734,-1.27,2.27,2.06,3.31
10.185441970825195,-1.14,2.19,1.15,2.72
10.185812950134277,-0.8,2.22,0.41,2.39
10.186179161071777,-0.53,2.59,0.71,2.73
10.186537027359009,-0.5,3.11,2.04,3.75
10.186890125274658,-0.43,3.44,2.87,4.5
10.187242031097412,-0.51,3.66,3.3,4.95
10.18759298324585,-0.52,3.67,3.25,4.92
10.18794298171997,-0.54,3.75,2.4,4.48
10.191532135009766,-0.4,3.58,0.81,3.69
10.202152013778687,-0.17,2.84,-0.77,2.94
10.285321235656738,0.18,2.03,-1.32,2.42
10.285682201385498,0.71,1.1,-1.5,1.99
10.286052227020264,0.75,0.45,-2.25,2.41
10.286411046981812,1.19,-0.13,-3.66,3.85
10.286765098571777,1.58,-0.3,-3.69,4.02
10.287117958068848,1.73,-0.15,-2.77,3.26
10.287471055984497,1.92,0.14,-1.97,2.75
10.287822008132935,2.11,0.22,-1.6,2.65
10.291369915008545,2.27,0.55,-1.8,2.94
10.302109241485596,2.37,1.23,-1.41,3.01
10.385667085647583,2.28,2.07,-0.63,3.14
10.38604211807251,1.98,3.01,0.23,3.61
10.386402130126953,1.44,3.75,0.69,4.07
10.386759042739868,0.74,4.14,0.48,4.23
10.387115955352783,0.06,3.92,-0.11,3.92
10.38747501373291,-0.44,3.16,-0.9,3.31
10.387831211090088,-0.67,1.98,-1.45,2.54
10.388185977935791,-0.56,0.6,-1.34,1.57
10.391223907470703,-0.38,-0.68,-0.75,1.08
10.402043104171753,-0.18,-1.74,-0.25,1.76
10.48610806465149,0.04,-2.59,0.09,2.59
10.486481189727783,0.07,-3.1,-0.53,3.14
10.486842155456543,0.26,-3.72,-0.73,3.79
10.48719596862793,0.13,-3.76,-0.94,3.87
10.487525939941406,0.13,-3.9,-0.88,4.0
10.4878830909729,0.07,-4.1,-0.95,4.2
10.488234043121338,0.08,-4.29,-1.04,4.41
10.48858904838562,0.04,-4.42,-1.01,4.53
10.491141080856323,0.13,-4.47,-0.65,4.51
10.501859188079834,0.23,-4.5,-0.26,4.51
10.586625099182129,0.43,-4.48,-0.02,4.5
10.586997032165527,0.67,-4.28,0.1,4.33
10.587357997894287,0.92,-3.94,0.28,4.05
10.587715148925781,1.05,-3.44,0.46,3.62
10.588072061538696,1.16,-2.83,0.49,3.09
10.58842420578003,1.19,-2.13,0.46,2.48
10.588769912719727,1.13,-1.42,0.43,1.86
10.589115142822266,0.99,-0.63,0.33,1.21
10.591089010238647,1.04,-0.02,0.32,1.08
10.60178804397583,1.17,0.64,0.38,1.38
10.687042236328125,1.37,1.35,0.82,2.09
10.687413215637207,1.48,2.02,1.12,2.74
10.687751054763794,1.55,2.47,1.12,3.12
10.688101053237915,1.47,2.73,0.85,3.21
10.688456058502197,1.25,3.1,0.25,3.35
10.688807010650635,1.14,3.6,0.44,3.8
10.689157962799072,1.02,4.21,1.32,4.52
10.68950891494751,0.82,4.59,2.46,5.27
10.691489219665527,0.5,4.76,3.44,5.89
10.7016921043396,0.19,4.56,3.32,5.64
10.787484169006348,-0.18,4.21,2.22,4.76
10.787844181060791,-0.5,3.6,0.63,3.68
10.788202047348022,-0.65,2.8,-1.1,3.07
10.788558006286621,-0.61,1.87,-2.3,3.02
10.788913011550903,-0.35,0.95,-2.41,2.61
10.78926706314087,-0.46,0.53,-2.7,2.78
10.789621114730835,-0.35,-0.15,-2.31,2.34
10.789973020553589,-0.63,-0.41,-1.47,1.65
10.790842056274414,-0.56,-0.24,-1.42,1.54
10.801576137542725,-0.87,-0.16,-1.92,2.11
10.888181209564209,-1.17,-0.48,-2.17,2.51
10.888543128967285,-1.65,-0.14,-2.07,2.65
10.888906002044678,-1.98,0.33,-1.28,2.38
10.889256954193115,-2.38,0.93,-0.29,2.57
10.889609098434448,-2.32,1.7,0.45,2.91
10.889965057373047,-2.33,2.41,0.67,3.41
10.890331029891968,-2.16,2.9,0.37,3.63
10.89068603515625,-1.15,2.41,-0.18,2.67
10.891040086746216,-0.64,1.69,-0.81,1.98
10.90159010887146,-0.19,0.54,-0.95,1.1
10.988436222076416,0.18,-0.6,-0.67,0.91
10.98880910873413,0.41,-1.56,-0.43,1.66
10.989169120788574,0.47,-2.38,-0.02,2.42
10.98952603340149,0.42,-2.84,-0.48,2.91
10.989877223968506,0.39,-3.42,-0.45,3.47
10.990247011184692,0.25,-3.58,-0.55,3.63
10.990608215332031,0.14,-3.64,-0.75,3.71
10.99095606803894,0.06,-3.57,-0.81,3.66
10.991312980651855,0.05,-3.52,-0.91,3.63
11.001367092132568,-0.04,-3.51,-0.84,3.6
11.088568210601807,-0.1,-3.42,-0.62,3.47
11.088934898376465,-0.16,-3.39,-0.47,3.42
11.089292049407959,-0.32,-3.36,-0.38,3.39
11.089648008346558,-0.46,-3.14,-0.21,3.18
11.09003210067749,-0.64,-2.82,0.09,2.89
11.090389013290405,-0.79,-2.5,0.48,2.66
11.090740203857422,-0.83,-2.21,0.6,2.43
11.091064929962158,-0.83,-2.0,0.8,2.3
11.09142804145813,-0.81,-1.59,0.68,1.9
11.10133409500122,-0.84,-1.26,0.73,1.68
11.189264059066772,-0.97,-0.85,0.7,1.46
11.18964409828186,-0.94,-0.21,0.8,1.25
11.190038204193115,-1.03,0.62,1.44,1.87
11.190403938293457,-1.11,1.55,2.28,2.97
11.190759181976318,-1.18,2.11,2.39,3.39
11.19109296798706,-0.97,2.11,1.53,2.78
11.191443920135498,-0.62,2.08,0.49,2.22
11.191804885864258,-0.42,2.48,0.44,2.55
11.192643165588379,-0.49,3.08,1.61,3.5
11.201061010360718,-0.63,3.49,3.01,4.65
11.289314031600952,-0.69,3.68,3.4,5.05
11.28968620300293,-0.68,3.62,3.59,5.14
11.290072917938232,-0.88,3.65,2.83,4.7
11.290426015853882,-0.97,3.57,1.2,3.88
11.290779113769531,-0.63,2.89,-0.9,3.09
11.291132926940918,0.03,1.87,-2.09,2.8
11.291485071182251,0.42,0.93,-2.02,2.26
11.2918381690979,0.6,0.22,-2.38,2.46
11.292710065841675,1.02,-0.4,-3.87,4.02
11.300893068313599,1.15,-0.52,-4.07,4.26
11.390198230743408,1.3,-0.19,-3.63,3.86
11.390571117401123,1.46,0.39,-2.7,3.09
11.390937089920044,1.58,1.08,-1.35,2.34
11.391294956207275,1.82,1.48,-1.1,2.59
11.391649007797241,2.07,1.83,-1.09,2.97
11.392003059387207,2.15,2.61,-0.46,3.41
11.39287519454956,2.01,3.62,0.33,4.15
11.393234014511108,1.57,4.48,0.6,4.78
11.393598079681396,0.83,4.76,0.17,4.83
11.400836944580078,0.36,4.47,-0.6,4.52
11.490178108215332,0.05,3.38,-1.03,3.53
11.490556240081787,-0.21,1.93,-1.09,2.22
11.49091911315918,-0.38,0.45,-0.87,1.05
11.49127197265625,-0.49,-0.86,-0.58,1.14
11.49163007736206,-0.52,-1.97,-0.43,2.08
11.491988182067871,-0.48,-2.85,-0.17,2.89
11.492341041564941,-0.33,-3.21,-0.87,3.34
11.493237018585205,-0.02,-3.93,-0.83,4.01
11.493598937988281,0.09,-4.25,-0.99,4.36
11.500668048858643,0.19,-4.47,-0.99,4.58
11.590686082839966,0.16,-4.62,-0.95,4.71
11.591060161590576,0.19,-4.71,-0.93,4.8
11.591422080993652,0.2,-4.79,-0.85,4.86
11.591775894165039,0.42,-4.77,-0.78,4.85
11.592127084732056,0.58,-4.75,-0.7,4.83
11.592475891113281,0.71,-4.58,-0.55,4.66
11.593366146087646,0.87,-4.26,-0.26,4.35
11.593728065490723,1.01,-3.77,0.2,3.9
11.594099044799805,1.13,-3.22,0.39,3.43
11.60071611404419,1.2,-2.6,0.27,2.87
11.690711975097656,1.2,-1.92,0.18,2.27
11.691082954406738,1.04,-1.2,0.3,1.61
11.691443920135498,0.84,-0.52,0.42,1.07
11.691802024841309,0.71,0.08,0.35,0.79
11.692153930664062,0.67,0.63,0.34,0.98
11.692505121231079,0.76,1.08,0.56,1.43
11.693344116210938,0.94,1.46,0.84,1.92
11.69370698928833,1.11,1.91,1.02,2.43
11.694074153900146,1.34,2.31,1.24,2.94
11.700432062149048,1.34,2.52,0.99,3.02
11.791344165802002,1.21,2.77,0.67,3.09
11.791714191436768,0.92,3.25,1.16,3.57
11.792078018188477,0.57,3.81,2.17,4.42
11.792433023452759,0.29,4.2,2.93,5.12
11.792800903320312,-0.13,4.5,3.24,5.54
11.793638229370117,-0.48,4.43,2.85,5.28
11.794003963470459,-0.68,4.01,1.62,4.37
11.794375896453857,-0.57,3.43,-0.16,3.48
11.794734001159668,-0.42,2.53,-1.07,2.77
11.800725936889648,-0.24,1.62,-0.95,1.89
11.891163110733032,-0.18,0.61,-1.04,1.21
11.891544103622437,-0.54,-0.54,-1.5,1.68
11.891910076141357,-0.7,-1.0,-2.95,3.19
11.892267227172852,-0.77,-1.36,-2.44,2.89
11.892621994018555,-0.8,-1.31,-1.93,2.46
11.89297604560852,-0.97,-0.9,-1.87,2.29
11.893809080123901,-1.18,-0.77,-1.7,2.2
11.894171237945557,-1.52,-0.37,-1.36,2.07
11.894527912139893,-1.75,0.12,-0.67,1.87
11.900243043899536,-2.14,1.12,0.33,2.43
11.909698963165283,-2.39,2.39,0.97,3.51
11.99143123626709,-2.33,3.49,0.94,4.3
11.991803169250488,-1.79,4.15,0.33,4.53
11.992166996002197,-1.35,4.04,-0.38,4.27
11.992527961730957,-1.05,3.27,-0.88,3.54
11.992885112762451,-0.71,2.0,-1.02,2.35
11.993719100952148,-0.33,0.37,-0.62,0.79
11.994086027145386,-0.17,-1.15,-0.5,1.26
11.994452953338623,-0.03,-2.28,-0.57,2.35
12.000148057937622,0.25,-3.18,-0.84,3.29
12.009631156921387,0.18,-3.71,-0.68,3.77
12.091599941253662,0.25,-3.99,-0.71,4.06
12.091974020004272,0.21,-4.14,-0.64,4.19
12.092336177825928,0.18,-4.11,-0.66,4.16
12.092658996582031,0.13,-4.11,-0.67,4.16
12.093013048171997,0.14,-3.99,-0.75,4.06
12.09336805343628,0.08,-3.75,-0.81,3.83
12.094250202178955,0.05,-3.57,-0.72,3.64
12.094613075256348,-0.06,-3.36,-0.5,3.39
12.099992036819458,-0.27,-3.04,-0.31,3.06
12.109491109848022,-0.4,-2.79,0.1,2.82
12.191198110580444,-0.58,-2.37,0.43,2.47
12.191575050354004,-0.64,-1.98,0.49,2.13
12.191936016082764,-0.79,-1.62,0.35,1.83
12.19229006767273,-0.78,-1.39,0.47,1.66
12.192646026611328,-0.89,-1.0,0.76,1.53
12.192995071411133,-1.13,-0.35,0.84,1.45
12.193347930908203,-1.36,0.22,0.98,1.69
12.193695068359375,-1.53,0.92,1.32,2.22
12.199844121932983,-1.7,1.55,1.9,2.98
12.209402084350586,-1.65,1.87,1.95,3.16
12.292181015014648,-1.44,1.72,1.32,2.6
12.292553901672363,-1.02,1.49,0.53,1.88
12.29291820526123,-0.64,1.64,0.34,1.79
12.29327392578125,-0.51,2.31,1.31,2.7
12.293628215789795,-0.6,2.99,2.76,4.11
12.294307231903076,-0.71,3.48,3.87,5.25
12.29466700553894,-0.86,3.82,3.63,5.33
12.295022010803223,-0.79,3.89,2.5,4.69
12.299755096435547,-0.52,3.92,0.79,4.03
12.3092200756073,-0.26,3.47,-0.77,3.56
12.392543077468872,0.14,2.63,-1.22,2.9
12.392917156219482,0.63,1.85,-1.58,2.51
12.393275022506714,0.94,1.12,-2.4,2.81
12.393632888793945,1.25,0.55,-3.43,3.69
12.393988132476807,1.55,0.21,-3.4,3.74
12.39467191696167,1.7,0.15,-2.47,3.0
12.395030975341797,1.87,0.42,-1.52,2.44
12.395384073257446,2.07,0.45,-1.4,2.53
12.399611949920654,2.18,0.76,-1.73,2.88
12.409101009368896,2.22,0.99,-1.86,3.06
12.493121147155762,2.1,1.53,-1.23,2.87
12.493494987487793,1.77,2.37,-0.23,2.96
12.493855953216553,1.21,3.0,0.35,3.25
12.494204044342041,0.65,3.17,0.37,3.25
12.494871139526367,0.15,2.86,-0.27,2.87
12.495233058929443,-0.21,2.18,-0.8,2.33
12.495591163635254,-0.47,1.1,-1.03,1.57
12.495965957641602,-0.66,-0.11,-0.89,1.11
12.499534130096436,-0.66,-1.26,-0.65,1.56
12.50908088684082,-0.58,-2.19,-0.58,2.33
12.593650102615356,-0.37,-2.99,-0.4,3.03
12.59402322769165,-0.21,-3.32,-0.52,3.36
12.594386100769043,0.16,-3.6,-0.79,3.68
12.595221996307373,0.37,-3.82,-1.0,3.96
12.595591068267822,0.59,-3.63,-1.19,3.86
12.595964908599854,0.7,-3.58,-1.07,3.8
12.596322059631348,0.71,-3.59,-0.87,3.76
12.596659183502197,0.63,-3.59,-0.77,3.72
12.599294185638428,0.6,-3.65,-0.71,3.76
12.608911991119385,0.62,-3.73,-0.59,3.82
12.693755149841309,0.67,-3.73,-0.33,3.8
12.694123029708862,0.82,-3.6,-0.1,3.69
12.694485187530518,0.93,-3.37,0.2,3.5
12.694847106933594,1.03,-3.01,0.58,3.23
12.695734977722168,1.05,-2.58,0.89,2.92
12.696094036102295,0.97,-2.18,0.88,2.54
12.696451187133789,0.83,-1.78,0.71,2.08
12.696805953979492,0.71,-1.33,0.63,1.63
12.699313163757324,0.61,-0.91,0.64,1.26
12.708729028701782,0.55,-0.5,0.6,0.95
12.794398069381714,0.63,-0.07,0.67,0.92
12.794758081436157,0.89,0.43,1.07,1.45
12.795114040374756,1.18,1.11,1.56,2.24
12.795998096466064,1.34,1.78,1.8,2.86
12.796356201171875,1.26,2.27,2.0,3.27
12.796722888946533,1.11,2.62,1.18,3.08
12.797071933746338,0.94,2.97,0.34,3.13
12.797430992126465,0.78,3.51,0.74,3.67
12.799115180969238,0.68,4.12,2.1,4.67
12.808730125427246,0.5,4.54,3.3,5.63
12.894989013671875,0.29,4.75,3.46,5.88
12.895359992980957,0.05,4.65,2.44,5.25
12.89620304107666,-0.28,4.27,0.83,4.35
12.89658498764038,-0.56,3.51,-0.76,3.63
12.89694595336914,-0.7,2.47,-1.42,2.93
12.897315979003906,-0.73,1.49,-1.52,2.25
12.89770221710205,-0.64,0.55,-1.67,1.87
12.898078918457031,-0.74,-0.17,-2.11,2.24
12.899164199829102,-0.66,-0.62,-2.81,2.95
12.908584117889404,-0.54,-0.9,-2.46,2.67
12.996135234832764,-0.6,-0.74,-2.38,2.56
12.996510028839111,-0.93,-0.65,-2.22,2.49
12.996871948242188,-1.25,-0.59,-1.95,2.39
12.997228145599365,-1.74,-0.29,-1.6,2.38
12.997613906860352,-2.11,0.14,-1.04,2.35
12.997981071472168,-2.28,0.82,-0.17,2.42
12.998334884643555,-2.2,1.67,0.59,2.82
12.998687028884888,-1.92,2.54,0.96,3.32
12.999767065048218,-1.09,2.91,0.54,3.15
13.008519172668457,-0.45,2.72,-0.23,2.76
13.096825122833252,0.04,2.03,-0.57,2.1
13.097198963165283,0.43,1.13,-0.73,1.41
13.097561120986938,0.54,0.1,-0.48,0.72
13.097919940948486,0.6,-0.97,-0.38,1.2
13.098278999328613,0.55,-1.91,-0.27,2.0
13.098634004592896,0.28,-2.51,-0.05,2.52
13.09899091720581,0.17,-2.89,-0.47,2.93
13.09934401512146,0.03,-3.31,-0.38,3.33
13.100406169891357,-0.04,-3.52,-0.47,3.55
13.10828709602356,-0.02,-3.51,-0.42,3.53
13.19739818572998,0.05,-3.47,-0.45,3.49
13.19775390625,0.19,-3.47,-0.6,3.52
13.198118209838867,0.23,-3.28,-0.66,3.35
13.198475122451782,0.08,-3.2,-0.56,3.24
13.198829174041748,-0.15,-3.1,-0.51,3.14
13.199182033538818,-0.38,-2.98,-0.4,3.03
13.199533939361572,-0.57,-2.84,-0.16,2.9
13.199886083602905,-0.66,-2.73,0.13,2.81
13.20095705986023,-0.7,-2.59,0.29,2.69
13.20832109451294,-0.75,-2.4,0.11,2.51
13.297717094421387,-0.67,-2.52,0.3,2.62
13.298108100891113,-0.87,-2.16,0.23,2.33
13.298469066619873,-1.08,-1.65,0.11,1.97
13.298829078674316,-1.37,-0.63,0.45,1.57
13.299187183380127,-1.5,0.69,1.49,2.22
13.29953908920288,-1.6,1.7,2.83,3.66
13.299894094467163,-1.59,2.52,2.7,4.02
13.300247192382812,-1.18,2.58,1.76,3.33
13.301327228546143,-0.67,2.56,0.55,2.7
13.308183193206787,-0.27,2.82,0.38,2.85
13.397816181182861,-0.22,3.24,1.7,3.66
13.398194074630737,-0.28,3.82,3.27,5.03
13.398575067520142,-0.38,4.17,4.28,5.98
13.398927211761475,-0.68,4.12,4.05,5.81
13.399274110794067,-1.09,3.83,2.45,4.67
13.399606227874756,-1.09,3.16,0.2,3.34
13.39995288848877,-0.51,2.14,-1.5,2.66
13.400305032730103,0.04,1.03,-2.15,2.38
13.401365041732788,0.68,0.29,-2.15,2.27
13.408148050308228,1.11,0.02,-2.8,3.01
13.498137950897217,1.44,0.03,-3.36,3.65
13.498517036437988,1.67,0.33,-3.27,3.68
13.498878955841064,1.86,0.83,-2.56,3.27
13.499236106872559,2.01,1.03,-1.98,3.0
13.499583005905151,2.03,1.26,-1.83,3.0
13.4999361038208,2.16,1.31,-1.89,3.15
13.500284194946289,2.12,1.67,-1.27,2.98
13.500638008117676,1.84,2.43,-0.14,3.05
13.501709938049316,1.58,3.19,1.0,3.69
13.507787227630615,1.05,3.89,1.15,4.19
13.598576068878174,0.32,3.8,0.3,3.82
13.598958969116211,-0.31,3.29,-0.61,3.36
13.59933614730835,-0.67,2.2,-0.94,2.48
13.59967303276062,-0.74,1.05,-0.94,1.59
13.600022077560425,-0.73,-0.09,-0.74,1.04
13.600377082824707,-0.6,-1.12,-0.5,1.36
13.600728034973145,-0.42,-2.02,-0.25,2.07
13.601079940795898,-0.2,-2.75,-0.15,2.76
13.602169036865234,0.11,-3.39,-0.17,3.39
13.60777997970581,0.16,-3.58,-0.88,3.69
13.69957709312439,0.35,-4.04,-1.01,4.17
13.699958086013794,0.33,-4.32,-1.1,4.47
13.700321197509766,0.41,-4.44,-1.08,4.58
13.700672149658203,0.39,-4.52,-0.9,4.62
13.701029062271118,0.46,-4.57,-0.72,4.64
13.7013840675354,0.59,-4.6,-0.49,4.66
13.701739072799683,0.79,-4.53,-0.37,4.61
13.702095031738281,1.0,-4.32,-0.22,4.43
13.703173160552979,1.13,-4.0,0.07,4.15
13.70765209197998,1.21,-3.59,0.21,3.79
13.799778938293457,1.31,-3.11,0.17,3.37
13.800151109695435,1.24,-2.54,0.06,2.82
13.80051302909851,1.17,-1.73,0.09,2.09
13.800867080688477,1.02,-0.86,0.27,1.36
13.801222085952759,0.89,-0.05,0.48,1.01
13.801577091217041,0.82,0.67,0.67,1.25
13.801926136016846,0.97,1.27,0.91,1.83
13.802273035049438,1.04,1.72,0.93,2.21
13.803353071212769,1.15,2.16,0.96,2.62
13.807539939880371,1.16,2.43,1.34,3.0
13.900818109512329,1.15,2.78,1.27,3.26
13.901197910308838,1.06,3.14,1.17,3.51
13.90156102180481,0.95,3.78,1.64,4.22
13.901917934417725,0.82,4.49,2.56,5.23
13.902281045913696,0.59,5.0,3.57,6.17
13.902632236480713,0.34,5.06,3.74,6.3
13.902985095977783,-0.02,4.67,2.95,5.52
13.903333187103271,-0.51,3.96,1.38,4.22
13.904409885406494,-0.82,3.14,-0.58,3.29
13.907464981079102,-0.84,2.22,-1.86,3.01
14.00089693069458,-0.68,1.19,-2.08,2.49
14.001267910003662,-0.7,0.39,-1.99,2.14
14.001626014709473,-0.78,-0.2,-2.67,2.78
14.001981019973755,-0.77,-0.87,-2.68,2.92
14.002332210540771,-0.91,-0.94,-2.35,2.68
14.002684116363525,-1.01,-0.77,-2.04,2.4
14.003035068511963,-1.28,-0.92,-1.88,2.45
14.003383159637451,-1.69,-0.65,-1.71,2.49
14.004467964172363,-1.95,-0.16,-1.05,2.22
14.00731897354126,-2.28,0.71,0.01,2.38
14.101584911346436,-2.6,1.83,0.85,3.29
14.10197114944458,-2.63,2.76,1.01,3.94
14.10232400894165,-2.08,3.34,0.29,3.94
14.102689027786255,-1.26,3.3,-0.69,3.59
14.103046894073486,-0.54,2.67,-1.38,3.05
14.103402137756348,-0.1,1.75,-1.66,2.41
14.10375690460205,0.3,0.5,-1.23,1.36
14.10411024093628,0.51,-0.79,-0.54,1.08
14.105180025100708,0.55,-1.91,-0.2,1.99
14.107261180877686,0.41,-2.82,-0.19,2.85
14.209948062896729,0.34,-3.35,-0.39,3.38
14.21035623550415,0.2,-3.61,-0.5,3.64
14.210752010345459,0.04,-3.69,-0.56,3.73
14.211141109466553,-0.04,-3.65,-0.57,3.69
14.211554050445557,-0.17,-3.57,-0.69,3.64
14.211926937103271,-0.1,-3.54,-0.68,3.6
14.212294101715088,-0.15,-3.43,-0.59,3.48
14.212660074234009,-0.26,-3.48,-0.49,3.52
14.213776111602783,-0.29,-3.46,-0.36,3.49
14.214142084121704,-0.37,-3.35,-0.11,3.37
14.307093143463135,-0.53,-3.19,0.22,3.24
14.307485103607178,-0.65,-2.92,0.58,3.04
14.307855129241943,-0.77,-2.62,0.8,2.84
14.308219909667969,-0.9,-2.32,0.64,2.56
14.308581113815308,-1.06,-2.02,0.37,2.31
14.308939933776855,-1.18,-1.52,0.29,1.94
14.309298038482666,-1.23,-0.87,0.37,1.55
14.309659957885742,-1.25,-0.23,0.67,1.43
14.310768127441406,-1.39,0.59,1.16,1.9
14.311130046844482,-1.44,1.41,1.88,2.75
14.403557062149048,-1.37,1.91,2.19,3.21
14.403934955596924,-1.26,1.86,1.66,2.79
14.404299020767212,-0.91,1.66,0.75,2.03
14.404662132263184,-0.56,1.83,0.24,1.92
14.405016899108887,-0.38,2.37,0.8,2.53
14.405351161956787,-0.38,3.04,2.04,3.68
14.405704975128174,-0.4,3.56,3.32,4.88
14.406060218811035,-0.43,3.67,3.74,5.25
14.407165050506592,-0.55,3.52,2.76,4.5
14.407532215118408,-0.6,3.35,1.05,3.56
14.504118919372559,-0.44,3.02,-0.54,3.09
14.504499912261963,-0.16,2.39,-1.32,2.73
14.50486421585083,0.29,1.32,-1.19,1.8
14.505224227905273,0.64,0.89,-2.06,2.33
14.505582094192505,1.01,-0.05,-3.08,3.24
14.505945205688477,1.7,0.24,-3.75,4.12
14.506311893463135,2.15,0.7,-3.17,3.89
14.506664037704468,2.13,0.65,-1.97,2.97
14.50774097442627,2.35,0.68,-1.76,3.01
14.50809621810913,2.58,0.9,-2.31,3.57
14.605024099349976,2.64,1.08,-2.52,3.8
14.605399131774902,2.66,1.74,-1.96,3.73
14.605762004852295,2.09,2.67,-0.47,3.42
14.606147050857544,1.59,3.51,0.79,3.93
14.606506109237671,0.98,3.7,0.71,3.89
14.60685920715332,0.22,3.51,-0.15,3.52
14.607208013534546,-0.4,2.95,-1.07,3.16
14.607564926147461,-0.79,1.96,-1.48,2.57
14.608641147613525,-0.98,0.85,-1.34,1.86
14.608999013900757,-0.92,-0.28,-0.82,1.26
14.705540180206299,-0.75,-1.33,-0.39,1.57
14.705917119979858,-0.52,-2.22,-0.17,2.28
14.706311225891113,-0.47,-2.59,-0.54,2.68
14.7066650390625,-0.26,-3.01,-0.62,3.08
14.707021236419678,-0.05,-3.3,-0.7,3.37
14.70737910270691,0.16,-3.53,-0.83,3.62
14.707733154296875,0.32,-3.82,-0.99,3.95
14.70808219909668,0.48,-4.04,-1.14,4.22
14.709173202514648,0.35,-4.45,-1.04,4.58
14.709532022476196,0.48,-4.37,-0.89,4.48
14.805776119232178,0.57,-4.38,-0.8,4.48
14.80665922164917,0.26,-5.02,-0.53,5.05
14.807034015655518,0.35,-4.57,-0.25,4.59
14.807391166687012,0.68,-3.84,0.02,3.89
14.807748079299927,0.81,-3.63,0.41,3.74
14.808095932006836,0.9,-3.2,0.62,3.38
14.808449029922485,0.95,-2.67,0.58,2.89
14.808797121047974,1.03,-1.99,0.47,2.28
14.809889078140259,1.11,-1.24,0.59,1.76
14.810244083404541,1.16,-0.44,0.65,1.4
14.816483974456787,1.12,0.35,0.53,1.28
14.906336069107056,1.09,1.08,0.41,1.58
14.906702995300293,1.0,1.7,0.48,2.02
14.907061100006104,1.01,2.33,0.54,2.59
14.907413959503174,0.91,2.94,0.6,3.13
14.907769203186035,0.66,3.36,0.76,3.5
14.90811800956726,0.35,3.59,0.62,3.65
14.908467054367065,0.25,3.73,0.37,3.75
14.909550189971924,0.51,3.8,0.71,3.89
14.909905910491943,1.02,3.85,1.76,4.35
14.916424036026001,1.42,3.83,2.86,4.98
15.006886959075928,1.68,3.56,3.4,5.2
15.007262229919434,1.72,3.32,3.02,4.8
15.007621049880981,1.18,3.19,2.11,4.0
15.007976055145264,0.37,2.83,0.97,3.01
15.008338928222656,-0.37,2.16,-0.52,2.25
15.008695125579834,-0.87,1.25,-1.13,1.89
15.00904893875122,-1.19,0.47,-1.74,2.15
15.01012897491455,-1.2,-0.6,-1.78,2.22
15.010467052459717,-1.2,-1.46,-2.02,2.76
15.016280174255371,-1.07,-2.12,-2.49,3.44
15.10805606842041,-0.54,-1.97,-2.37,3.12
15.108434200286865,-0.41,-1.58,-2.17,2.71
15.108795166015625,-0.58,-1.02,-1.8,2.14
15.109147071838379,-1.0,-0.49,-1.25,1.67
15.109502077102661,-1.52,-0.01,-0.62,1.64
15.10985517501831,-1.91,0.72,-0.05,2.04
15.110208988189697,-2.23,1.86,0.6,2.96
15.111285209655762,-2.44,3.15,1.19,4.15
15.111639022827148,-2.23,4.29,1.04,4.94
15.116218090057373,-1.8,4.68,0.69,5.06
15.2080659866333,-1.37,4.08,0.33,4.31
15.208444118499756,-0.9,2.84,-0.31,2.99
15.208806991577148,-0.19,1.15,-0.56,1.29
15.209165096282959,0.33,-0.53,-0.42,0.75
15.209522008895874,0.66,-2.02,-0.38,2.15
15.209877967834473,0.84,-3.22,-0.45,3.35
15.210235118865967,0.83,-4.18,-0.24,4.26
15.211319923400879,0.58,-4.43,-0.7,4.52
15.211678981781006,0.43,-4.63,-0.69,4.7
15.216062068939209,0.28,-4.39,-0.53,4.43
15.310229063034058,0.27,-4.01,-0.53,4.05
15.310614109039307,0.16,-3.77,-0.52,3.8
15.310992240905762,0.04,-3.56,-0.5,3.59
15.31136417388916,-0.09,-3.31,-0.49,3.34
15.311752080917358,-0.16,-3.06,-0.48,3.1
15.312088966369629,-0.2,-2.86,-0.48,2.9
15.312437057495117,-0.38,-2.69,-0.26,2.72
15.313517093658447,-0.62,-2.5,0.31,2.59
15.31387209892273,-0.76,-2.27,0.51,2.44
15.315984010696411,-1.01,-2.06,0.64,2.38
15.409842014312744,-1.14,-1.86,0.56,2.25
15.410223007202148,-1.23,-1.59,0.64,2.1
15.410587072372437,-1.38,-1.17,0.65,1.92
15.410944938659668,-1.52,-0.57,0.6,1.73
15.411302089691162,-1.6,0.29,0.71,1.77
15.41165804862976,-1.52,1.02,1.72,2.51
15.412008047103882,-1.51,1.85,2.17,3.22
15.413073062896729,-1.45,2.21,1.77,3.18
15.41342806816101,-1.14,2.31,1.04,2.77
15.415822982788086,-0.89,2.6,0.6,2.81
15.510404109954834,-0.75,3.09,1.02,3.33
15.510782241821289,-0.72,3.63,2.04,4.22
15.511146068572998,-0.52,4.07,3.13,5.16
15.511502027511597,-0.47,4.35,3.44,5.56
15.51186990737915,-0.39,3.78,3.08,4.89
15.512221097946167,-0.56,3.36,1.48,3.71
15.51257610321045,-0.3,2.47,-0.35,2.51
15.513654232025146,0.06,1.35,-1.76,2.21
15.514010906219482,0.39,0.45,-2.48,2.55
15.5156831741333,0.69,-0.19,-2.9,2.98
15.61164402961731,1.0,-0.53,-3.66,3.83
15.61205005645752,1.38,-0.48,-4.05,4.3
15.612412929534912,1.68,0.09,-3.68,4.04
15.61276912689209,1.97,0.86,-2.42,3.23
15.613122940063477,2.26,1.62,-0.85,2.9
15.61347508430481,2.56,2.08,-0.62,3.35
15.613827228546143,2.8,2.36,-1.27,3.87
15.614903926849365,3.02,2.69,-1.26,4.23
15.61527705192566,2.74,3.39,-0.22,4.36
15.615632057189941,1.97,4.0,0.66,4.5
15.71340799331665,1.16,3.93,0.78,4.17
15.713781118392944,0.43,3.44,-0.06,3.46
15.71414303779602,-0.17,2.35,-0.88,2.51
15.714500904083252,-0.61,1.08,-1.26,1.76
15.71484899520874,-0.83,-0.16,-1.02,1.32
15.715225219726562,-1.04,-1.24,-0.55,1.7
15.715574026107788,-0.97,-2.1,-0.15,2.31
15.71664309501648,-0.72,-2.91,0.27,3.0
15.716998100280762,-0.51,-3.26,-0.17,3.3
15.717355012893677,-0.13,-3.63,-0.64,3.68
15.813882112503052,0.04,-3.84,-0.84,3.93
15.814291954040527,0.26,-3.85,-1.06,4.0
15.81468391418457,0.45,-3.95,-1.01,4.1
15.815088033676147,0.51,-3.98,-0.95,4.12
15.815476894378662,0.49,-4.03,-0.93,4.16
15.815840005874634,0.44,-4.03,-0.77,4.12
15.816222190856934,0.56,-3.99,-0.48,4.05
15.817394018173218,0.81,-3.96,-0.12,4.04
15.817788124084473,0.98,-3.82,0.17,3.94
15.818144083023071,1.09,-3.57,0.39,3.75
15.915900230407715,1.23,-3.24,0.57,3.51
15.91627311706543,1.26,-2.86,0.6,3.18
15.916633129119873,1.2,-2.48,0.36,2.77
15.916987895965576,1.09,-2.05,0.28,2.33
15.91733694076538,0.88,-1.52,0.35,1.79
15.917694091796875,0.91,-0.87,0.61,1.39
15.918044090270996,0.94,-0.21,0.75,1.22
16.016003131866455,0.97,0.39,0.96,1.41
16.016436100006104,0.91,1.07,1.15,1.81
16.016807079315186,0.85,1.82,1.2,2.33
16.017173051834106,0.87,2.35,1.39,2.86
16.017537117004395,0.76,2.6,1.03,2.89
16.017899990081787,0.74,2.88,0.48,3.01
16.018267154693604,0.64,3.38,1.03,3.59
16.018630981445312,0.53,3.99,2.31,4.64
16.019007205963135,0.31,4.43,3.18,5.46
16.019901037216187,0.17,4.68,3.33,5.74
16.02100896835327,-0.03,4.75,2.91,5.57
16.02137804031372,-0.26,4.61,1.86,4.97
16.021725177764893,-0.57,4.05,0.38,4.1
16.025163173675537,-0.83,3.13,-0.67,3.3
16.035197019577026,-0.81,2.07,-0.94,2.41
16.13126802444458,-0.77,0.88,-0.88,1.46
16.131643056869507,-0.86,-0.07,-1.85,2.04
16.132004022598267,-0.89,-0.99,-2.75,3.05
16.13236403465271,-0.65,-1.39,-2.84,3.22
16.132720947265625,-0.5,-1.32,-2.62,2.97
16.133808135986328,-0.53,-1.03,-2.28,2.55
16.134165048599243,-0.67,-0.88,-1.75,2.07
16.134549140930176,-1.0,-0.54,-1.49,1.87
16.134907007217407,-1.41,0.14,-0.7,1.58
16.135266065597534,-1.81,0.92,0.23,2.04
16.231834888458252,-2.18,2.02,0.92,3.11
16.23220705986023,-2.37,3.23,0.86,4.09
16.232569217681885,-1.86,4.15,0.23,4.55
16.23292303085327,-1.34,4.46,-0.23,4.66
16.233277082443237,-0.85,3.74,-0.4,3.85
16.23434019088745,-0.54,2.32,-0.64,2.46
16.234702110290527,-0.15,0.68,-0.71,0.99
16.235058069229126,0.17,-0.84,-0.53,1.0
16.235413074493408,0.27,-2.12,-0.18,2.14
16.23576807975769,0.15,-3.05,-0.05,3.05
16.332138061523438,0.15,-3.71,-0.6,3.76
16.332509994506836,0.03,-4.13,-0.65,4.18
16.332874059677124,-0.19,-4.1,-0.75,4.17
16.333234071731567,-0.25,-4.01,-0.67,4.07
16.33356809616089,-0.25,-3.85,-0.73,3.92
16.334675073623657,-0.1,-3.8,-0.77,3.87
16.33503293991089,0.02,-3.83,-0.73,3.89
16.335389137268066,0.12,-3.81,-0.65,3.86
16.335745096206665,0.08,-3.74,-0.53,3.77
16.336106061935425,-0.14,-3.55,-0.39,3.57
16.43275499343872,-0.39,-3.17,-0.14,3.19
16.433130025863647,-0.5,-2.9,0.49,2.98
16.433491230010986,-0.72,-2.56,0.75,2.76
16.433846950531006,-0.93,-2.2,0.51,2.44
16.43422794342041,-1.04,-1.9,0.56,2.23
16.435298919677734,-1.07,-1.4,0.66,1.88
16.43565797805786,-1.04,-0.8,0.55,1.42
16.43601417541504,-1.11,-0.02,0.45,1.19
16.436368942260742,-1.21,1.14,1.17,2.03
16.53295612335205,-1.25,2.13,2.2,3.3
16.533334016799927,-1.44,2.67,2.01,3.63
16.533696174621582,-1.38,2.54,1.0,3.05
16.534075021743774,-1.06,2.31,0.41,2.57
16.534459114074707,-0.83,2.53,0.85,2.79
16.534807205200195,-0.82,3.01,1.87,3.63
16.535879135131836,-0.9,3.45,2.63,4.43
16.53623914718628,-0.81,3.74,3.24,5.01
16.536591053009033,-0.63,3.77,3.26,5.02
16.633141040802002,-0.56,3.53,2.01,4.1
16.63352108001709,-0.34,3.05,-0.23,3.07
16.633883953094482,0.01,2.19,-1.94,2.92
16.63426923751831,0.47,1.17,-2.06,2.41
16.63462495803833,0.75,0.32,-1.73,1.91
16.634981155395508,1.02,-0.22,-2.71,2.9
16.635334014892578,1.31,-0.37,-3.48,3.73
16.636412143707275,1.64,0.04,-3.1,3.5
16.63676691055298,1.87,0.67,-1.85,2.71
16.733740091323853,1.95,1.49,-1.01,2.65
16.73420810699463,2.22,1.72,-1.18,3.04
16.73457622528076,2.48,2.3,-1.66,3.76
16.734913110733032,2.48,2.99,-1.13,4.04
16.735263109207153,2.27,3.77,-0.08,4.4
16.735616207122803,1.71,4.21,0.5,4.57
16.735968112945557,0.99,4.13,0.42,4.26
16.736320972442627,0.47,3.53,-0.13,3.56
16.834480047225952,0.0,2.53,-0.78,2.64
16.83489203453064,-0.46,1.25,-1.15,1.75
16.835256099700928,-0.65,-0.13,-1.12,1.3
16.83561611175537,-0.67,-1.37,-0.58,1.63
16.835971117019653,-0.85,-2.09,-0.54,2.31
16.836330890655518,-0.73,-2.77,-0.49,2.9
16.836684226989746,-0.49,-3.36,-0.43,3.42
16.83703899383545,-0.35,-3.6,-0.68,3.68
16.837387084960938,0.02,-3.7,-0.92,3.81
16.838288068771362,0.07,-3.71,-1.13,3.87
16.83937692642212,0.2,-3.85,-1.19,4.03
16.839749097824097,0.26,-4.07,-1.25,4.26
16.84012007713318,0.13,-4.32,-1.29,4.51
16.84047508239746,0.02,-4.56,-1.08,4.68
16.840828895568848,0.0,-4.68,-0.8,4.74
16.844333171844482,0.12,-4.62,-0.57,4.65
16.952718019485474,0.32,-4.41,-0.35,4.43
16.953107118606567,0.5,-4.09,-0.1,4.12
16.953480005264282,0.77,-3.66,0.04,3.74
16.953874111175537,1.04,-3.24,0.0,3.4
17.055517196655273,1.2,-2.73,-0.12,2.98
17.05592393875122,1.23,-2.15,0.02,2.47
17.056318044662476,1.1,-1.45,0.33,1.84
17.05670690536499,1.02,-0.57,0.68,1.35
17.057093143463135,1.1,0.34,0.98,1.51
17.057476043701172,1.11,1.17,1.17,1.99
17.057852029800415,1.24,1.8,1.12,2.45
17.058211088180542,1.39,2.19,1.12,2.82
17.058587074279785,1.4,2.4,1.09,2.98
17.058964014053345,1.33,2.6,0.67,2.99
17.06003713607788,1.24,3.0,0.79,3.34
17.060389041900635,1.27,3.63,1.62,4.17
17.060734033584595,1.14,4.26,2.77,5.2
17.061081886291504,1.07,4.53,3.51,5.82
17.06143093109131,1.02,4.62,3.89,6.12
17.061774015426636,0.77,4.63,3.49,5.84
17.06211805343628,0.44,4.26,1.99,4.72
17.063982009887695,0.15,3.42,0.12,3.42
17.169432163238525,-0.14,2.36,-1.19,2.64
17.169790029525757,-0.51,1.13,-1.46,1.91
17.170873165130615,-0.81,0.13,-2.01,2.17
17.171228885650635,-0.86,-0.8,-2.45,2.71
17.27188014984131,-0.75,-1.35,-2.66,3.07
17.272833108901978,-0.58,-1.34,-2.56,2.94
17.27326202392578,-0.36,-1.29,-2.21,2.58
17.273653984069824,-0.67,-1.04,-2.17,2.49
17.274041175842285,-1.11,-0.32,-1.83,2.16
17.274433135986328,-1.58,0.33,-1.16,1.98
17.274821043014526,-2.3,1.24,0.0,2.61
17.275171041488647,-2.6,2.44,0.88,3.67
17.27626609802246,-2.94,3.57,1.37,4.82
17.276621103286743,-3.15,4.37,0.96,5.47
17.27697515487671,-2.6,4.46,-0.11,5.16
17.277327060699463,-1.69,3.7,-0.78,4.14
17.2776780128479,-1.23,2.55,-0.92,2.97
17.278025150299072,-0.74,1.06,-0.84,1.54
17.278368949890137,-0.2,-0.47,-0.57,0.76
17.27871322631836,0.15,-1.79,-0.08,1.79
17.27906107902527,0.33,-2.88,-0.1,2.9
17.283731937408447,0.54,-3.62,-0.43,3.68
17.38796615600586,0.45,-4.12,-0.5,4.17
17.388338088989258,0.37,-4.37,-0.65,4.43
17.488567113876343,0.31,-4.47,-0.7,4.53
17.489432096481323,0.19,-4.3,-0.68,4.35
17.489819049835205,0.18,-4.11,-0.56,4.15
17.490166187286377,0.18,-3.92,-0.51,3.95
17.490521907806396,0.19,-3.74,-0.5,3.77
17.490891933441162,0.11,-3.69,-0.56,3.73
17.491250038146973,0.0,-3.6,-0.59,3.64
17.49160408973694,-0.13,-3.34,-0.44,3.37
17.492706060409546,-0.28,-2.99,-0.1,3.0
17.49306607246399,-0.48,-2.67,0.33,2.73
17.493424892425537,-0.68,-2.27,0.51,2.42
17.493779182434082,-0.77,-1.92,0.46,2.11
17.494128227233887,-0.88,-1.53,0.17,1.77
17.494482040405273,-0.89,-1.03,0.03,1.36
17.494834899902344,-1.02,-0.53,0.05,1.15
17.49519395828247,-1.14,0.21,0.55,1.28
17.49554204940796,-1.25,1.23,1.27,2.16
17.495893955230713,-1.41,2.03,2.32,3.38
17.496870040893555,-1.44,2.32,2.44,3.66
17.503517150878906,-1.27,2.05,1.56,2.87
17.607742071151733,-0.94,1.9,0.5,2.17
17.60811710357666,-0.59,2.01,0.17,2.1
17.608476161956787,-0.57,2.41,1.06,2.69
17.60883092880249,-0.59,2.94,2.55,3.93
17.60918617248535,-0.53,3.38,3.84,5.14
17.609535217285156,-0.6,3.5,4.19,5.49
17.609885215759277,-0.75,3.63,3.06,4.8
17.610233068466187,-0.77,3.56,1.3,3.86
17.611334085464478,-0.57,3.07,-0.44,3.15
17.611690998077393,-0.29,2.36,-1.59,2.86
17.613396167755127,0.19,1.64,-2.03,2.61
17.723904132843018,0.55,1.21,-2.5,2.83
17.7242751121521,1.0,0.96,-3.2,3.48
17.72464108467102,1.48,0.93,-3.65,4.04
17.724997997283936,1.85,0.94,-3.3,3.89
17.7253520488739,2.12,1.01,-2.55,3.46
17.72569990158081,2.39,0.97,-2.08,3.31
17.726055145263672,2.44,0.96,-1.84,3.2
17.727130889892578,2.19,1.13,-1.5,2.88
17.727488040924072,2.17,1.41,-0.95,2.75
17.727839946746826,1.84,1.93,-0.15,2.67
17.728196144104004,1.28,2.3,0.68,2.71
17.733267068862915,0.77,2.63,0.38,2.76
17.843321084976196,0.18,2.61,-0.19,2.62
17.843712091445923,-0.36,2.36,-0.84,2.53
17.844085216522217,-0.71,1.83,-1.31,2.35
17.84445309638977,-0.89,1.06,-1.45,2.0
17.844823122024536,-0.75,0.15,-1.15,1.38
17.845948219299316,-0.54,-0.77,-0.73,1.19
17.846314907073975,-0.19,-1.58,-0.43,1.64
17.846726894378662,0.2,-2.39,-0.13,2.4
17.847113132476807,0.31,-2.69,-0.55,2.76
17.847501039505005,0.57,-3.16,-0.66,3.27
17.847875118255615,0.72,-3.43,-0.86,3.6
17.853318214416504,0.71,-3.56,-1.06,3.78
17.958292961120605,0.58,-3.78,-1.09,3.97
17.958681106567383,0.4,-3.93,-1.02,4.07
17.959042072296143,0.29,-3.99,-0.8,4.07
17.960172176361084,0.27,-4.13,-0.48,4.16
17.96053409576416,0.42,-4.25,-0.23,4.27
17.96089506149292,0.65,-4.29,-0.05,4.33
17.961250066757202,0.85,-4.17,0.07,4.25
17.961605072021484,1.04,-3.88,0.17,4.02
17.961957931518555,1.09,-3.42,0.34,3.6
17.9623122215271,1.11,-2.92,0.55,3.17
17.962834119796753,1.1,-2.45,0.79,2.79
18.076003074645996,1.03,-1.97,1.01,2.44
18.076378107070923,0.83,-1.41,1.07,1.95
18.077453136444092,0.85,-0.82,0.82,1.43
18.077823162078857,0.82,-0.27,0.58,1.04
18.07817792892456,0.84,0.43,0.57,1.1
18.078533172607422,1.03,1.26,0.79,1.8
18.078886032104492,1.17,2.05,0.84,2.5
18.079241037368774,1.24,2.68,1.22,3.19
18.07959222793579,1.34,2.97,1.44,3.56
18.079941034317017,1.22,3.25,0.96,3.6
18.080286026000977,0.95,3.43,0.76,3.63
18.08295202255249,0.8,3.9,1.48,4.24
18.301270008087158,0.79,4.39,2.82,5.27
18.301664113998413,0.79,4.62,3.72,5.98
18.30208110809326,0.63,4.61,3.36,5.73
18.302474975585938,0.47,4.29,2.29,4.88
18.30286407470703,0.05,3.65,1.01,3.78
18.303263187408447,-0.41,2.84,-0.39,2.89
18.30367112159729,-0.8,1.88,-1.43,2.49
18.304025173187256,-1.04,0.85,-1.89,2.31
18.304386138916016,-1.15,-0.14,-1.98,2.29
18.304744005203247,-1.26,-0.76,-2.07,2.53
18.305800914764404,-1.27,-1.1,-2.29,2.84
18.306159019470215,-0.97,-1.34,-2.34,2.86
18.306518077850342,-0.61,-1.2,-2.36,2.71
18.414148092269897,-0.52,-1.09,-2.31,2.6
18.414987087249756,-0.38,-0.37,-2.01,2.07
18.415394067764282,-0.82,-0.07,-1.25,1.49
18.41579818725586,-1.1,0.47,-0.27,1.22
18.416192054748535,-1.25,1.27,0.45,1.83
18.416584968566895,-1.21,2.18,0.79,2.61
18.41697597503662,-1.25,3.16,0.86,3.5
18.418159008026123,-1.21,3.75,0.54,3.97
18.418553113937378,-0.87,3.67,-0.2,3.77
18.418950080871582,-0.49,2.82,-0.66,2.93
18.41930103302002,-0.34,1.5,-0.76,1.71
18.41965913772583,-0.25,-0.03,-0.49,0.55
18.420016050338745,-0.14,-1.33,-0.27,1.36
18.42037010192871,-0.04,-2.26,-0.23,2.27
18.42072606086731,0.01,-2.92,-0.3,2.93
18.421080112457275,0.06,-3.28,-0.45,3.31
18.421432971954346,0.11,-3.32,-0.51,3.36
18.422450065612793,0.08,-3.19,-0.45,3.22
18.42280912399292,-0.02,-3.08,-0.4,3.1
18.423163890838623,-0.08,-3.01,-0.55,3.06
18.42351722717285,-0.19,-3.05,-0.71,3.13
18.534354209899902,-0.36,-3.1,-0.7,3.19
18.534739017486572,-0.51,-3.1,-0.55,3.18
18.535130977630615,-0.68,-3.17,-0.14,3.24
18.535523891448975,-0.81,-3.1,0.25,3.21
18.53591012954712,-0.84,-2.92,0.43,3.06
18.536301136016846,-0.88,-2.84,0.46,3.0
18.537455081939697,-0.94,-2.76,0.41,2.94
18.53784704208374,-0.97,-2.6,0.39,2.8
18.53823709487915,-1.1,-2.26,0.54,2.57
18.53864097595215,-1.26,-1.76,0.64,2.25
18.538986206054688,-1.26,-1.2,0.57,1.83
18.650037050247192,-1.21,-0.48,0.66,1.45
18.650431156158447,-1.12,0.46,1.47,1.9
18.65078902244568,-1.12,1.37,2.29,2.89
18.651159048080444,-1.11,1.8,2.28,3.1
18.65152406692505,-1.02,1.84,1.4,2.52
18.652640104293823,-0.84,2.07,0.57,2.3
18.65301513671875,-0.87,2.56,0.75,2.8
18.65337896347046,-1.08,3.26,1.86,3.9
18.653759956359863,-1.1,3.94,3.45,5.35
18.65411400794983,-0.82,4.08,4.07,5.82
18.654463052749634,-0.61,3.9,2.91,4.9
18.654815196990967,-0.42,3.53,0.76,3.63
18.766798973083496,0.09,3.03,-1.43,3.35
18.76717710494995,0.45,1.95,-2.32,3.06
18.767541885375977,0.71,0.8,-2.28,2.51
18.768659114837646,0.81,-0.13,-2.18,2.32
18.769020080566406,1.16,-0.82,-3.48,3.75
18.76938009262085,1.51,-0.87,-4.09,4.44
18.769740104675293,1.72,-0.32,-3.54,3.94
18.770092964172363,1.94,0.63,-2.04,2.88
18.77044701576233,2.17,1.54,-0.79,2.77
18.770796060562134,2.33,2.16,-0.72,3.25
18.771148204803467,2.49,2.78,-0.68,3.79
18.77218723297119,2.52,3.72,-0.21,4.49
18.879962921142578,1.96,4.64,-0.09,5.03
18.881059169769287,1.45,4.92,0.43,5.14
18.881421089172363,0.56,4.84,-0.14,4.87
18.881782054901123,0.06,4.06,-0.79,4.13
18.88213801383972,-0.28,2.72,-1.07,2.93
18.882492065429688,-0.56,1.18,-0.84,1.55
18.88284206390381,-0.63,-0.21,-0.42,0.78
18.883170127868652,-0.63,-1.41,-0.14,1.55
18.883517026901245,-0.44,-2.37,0.19,2.41
18.88386297225952,-0.35,-2.73,-0.3,2.76
18.884217023849487,-0.17,-3.24,-0.59,3.29
19.104820013046265,-0.02,-3.57,-0.76,3.65
19.105196952819824,0.01,-3.69,-0.93,3.8
19.105557918548584,0.15,-3.87,-0.95,3.98
19.105900049209595,0.33,-4.04,-0.95,4.16
19.10625410079956,0.46,-4.23,-0.99,4.36
19.106582164764404,0.52,-4.41,-0.99,4.54
19.10693120956421,0.58,-4.51,-0.91,4.63
19.10728120803833,0.64,-4.62,-0.72,4.71
19.107632160186768,0.66,-4.68,-0.48,4.75
19.10797905921936,0.7,-4.51,-0.25,4.57
19.215919017791748,0.74,-4.17,0.0,4.23
19.216297149658203,0.71,-3.76,0.23,3.83
19.216651916503906,0.69,-3.26,0.35,3.35
19.217013120651245,0.55,-2.74,0.34,2.81
19.217368125915527,0.51,-2.04,0.29,2.12
19.21772289276123,0.44,-1.17,0.18,1.26
19.21808099746704,0.59,-0.34,0.11,0.68
19.21843409538269,0.79,0.5,0.22,0.96
19.218785047531128,1.0,1.33,0.57,1.75
19.219130992889404,1.18,2.02,0.84,2.48
19.22020196914673,1.25,2.46,1.02,2.94
19.220556020736694,1.3,2.7,1.1,3.19
19.22090196609497,1.34,2.89,0.51,3.22
19.22127389907837,1.3,3.15,0.25,3.41
19.221625089645386,1.29,3.65,1.11,4.02
19.221975088119507,1.17,4.3,2.57,5.14
19.222323894500732,0.83,4.55,3.47,5.78
19.222670078277588,0.37,4.62,3.32,5.7
19.223016023635864,-0.09,4.64,2.7,5.36
19.223368167877197,-0.74,4.38,1.8,4.79
19.224356174468994,-1.02,3.88,0.44,4.03
19.224714040756226,-0.85,3.0,-0.65,3.18
19.225067138671875,-0.78,1.79,-1.41,2.4
19.225414037704468,-0.65,0.66,-2.2,2.38
19.334800004959106,-0.6,-0.32,-2.71,2.79
19.335154056549072,-0.6,-1.07,-2.37,2.66
19.335515022277832,-0.79,-1.23,-2.19,2.63
19.33587908744812,-0.93,-1.57,-2.1,2.78
19.336236000061035,-1.02,-1.55,-1.76,2.55
19.33659315109253,-1.31,-1.38,-1.54,2.44
19.337657928466797,-1.51,-1.11,-0.93,2.09
19.338014125823975,-1.82,-0.44,-0.15,1.87
19.338370084762573,-2.15,0.67,0.55,2.31
19.33872413635254,-2.2,1.84,1.06,3.05
19.339075088500977,-2.0,2.98,1.1,3.75
19.341497898101807,-1.5,3.55,0.55,3.89
19.45589303970337,-0.91,3.28,-0.11,3.4
19.45629906654358,-0.45,2.56,-0.81,2.72
19.456700086593628,0.01,1.45,-1.27,1.92
19.45709204673767,0.41,0.13,-1.24,1.31
19.458241939544678,0.59,-1.14,-0.82,1.52
19.458602905273438,0.58,-2.27,-0.38,2.37
19.4589581489563,0.5,-3.14,-0.2,3.18
19.459314107894897,0.38,-3.71,-0.27,3.73
19.45966911315918,0.13,-4.02,-0.41,4.04
19.57406997680664,-0.01,-4.01,-0.46,4.03
19.574488162994385,-0.11,-3.81,-0.5,3.84
19.574882984161377,-0.13,-3.57,-0.61,3.62
19.575273036956787,-0.21,-3.36,-0.63,3.42
19.575640201568604,-0.29,-3.1,-0.63,3.17
19.69125008583069,-0.23,-2.85,-0.63,2.92
19.69170618057251,-0.24,-2.66,-0.49,2.71
19.692097187042236,-0.35,-2.5,-0.28,2.53
19.692471027374268,-0.48,-2.25,0.0,2.3
19.692849159240723,-0.73,-2.11,0.33,2.25
19.693220138549805,-0.92,-1.91,0.51,2.18
19.69358205795288,-1.0,-1.74,0.5,2.06
19.694467067718506,-0.95,-1.76,0.79,2.15
19.69484806060791,-1.03,-1.25,0.68,1.75
19.69521999359131,-1.09,-0.79,0.62,1.48
19.69637107849121,-1.08,-0.09,0.52,1.2
19.696744918823242,-1.09,0.83,0.97,1.67
19.697132110595703,-1.07,1.78,1.7,2.68
19.697501182556152,-1.2,2.27,1.86,3.17
19.69789409637451,-1.04,2.19,1.09,2.65
19.698244094848633,-0.64,1.95,0.19,2.06
19.698599100112915,-0.41,1.98,0.1,2.02
19.698950052261353,-0.39,2.33,1.12,2.61
19.69930410385132,-0.53,2.64,2.45,3.64
19.6996591091156,-0.55,2.87,3.35,4.44
19.700658082962036,-0.63,2.98,3.69,4.78
19.70105791091919,-0.69,2.82,2.82,4.04
19.821320056915283,-0.64,2.52,0.78,2.71
19.82169008255005,-0.42,2.07,-1.13,2.39
19.822053909301758,-0.12,1.34,-2.17,2.55
19.822416067123413,0.21,0.63,-2.14,2.24
19.82276701927185,0.51,0.08,-2.24,2.29
19.823116064071655,0.81,-0.24,-3.01,3.12
19.823471069335938,1.14,-0.16,-3.73,3.9
19.823823928833008,1.31,0.08,-2.73,3.02
19.824909210205078,1.82,1.15,-1.58,2.67
19.825265884399414,1.81,1.37,-0.94,2.45
19.825622081756592,1.99,1.44,-1.16,2.71
19.825971126556396,2.25,1.86,-1.47,3.26
19.943746089935303,2.33,2.51,-1.15,3.61
19.944161891937256,2.24,3.53,-0.15,4.18
19.944890022277832,1.91,4.23,0.64,4.68
19.94525718688965,1.26,4.33,0.55,4.54
19.945629119873047,0.7,3.91,0.25,3.98
19.945988178253174,0.12,3.08,-0.31,3.09
19.94708013534546,-0.35,1.73,-0.67,1.88
19.947440147399902,-0.53,0.38,-0.7,0.95
19.947810173034668,-0.49,-0.83,-0.45,1.06
19.948167085647583,-0.41,-1.84,-0.27,1.9
19.948527097702026,-0.26,-2.55,-0.31,2.58
19.94888710975647,-0.1,-3.01,-0.49,3.05
19.951026916503906,-0.06,-3.32,-0.76,3.4
19.960908889770508,0.09,-3.6,-0.9,3.71
20.07352590560913,0.04,-3.55,-1.01,3.69
20.073895931243896,0.12,-3.59,-1.31,3.82
20.0750150680542,0.28,-3.92,-1.12,4.08
20.07537603378296,0.41,-4.07,-1.04,4.22
20.075735092163086,0.45,-4.14,-0.92,4.26
20.076094150543213,0.61,-4.32,-0.78,4.43
20.07645893096924,0.63,-4.35,-0.58,4.43
20.07681107521057,0.66,-4.12,-0.42,4.19
20.077167987823486,0.55,-3.8,-0.16,3.84
20.077517986297607,0.61,-3.47,0.1,3.52
20.19440007209778,0.71,-3.23,0.12,3.3
20.19524097442627,0.84,-2.84,0.12,2.96
20.19637703895569,0.94,-2.37,0.3,2.56
20.196741104125977,0.96,-1.86,0.52,2.15
20.197102069854736,0.99,-1.24,0.53,1.67
20.197460174560547,1.06,-0.53,0.51,1.29
20.197817087173462,1.1,0.23,0.71,1.32
20.198169231414795,1.08,0.96,1.02,1.76
20.19852304458618,1.07,1.64,1.14,2.26
20.19887113571167,1.21,2.21,1.44,2.9
20.199223041534424,1.38,2.54,1.26,3.15
20.199570178985596,1.41,2.9,0.63,3.28
20.200550079345703,1.41,3.35,0.64,3.69
20.200905084609985,1.27,3.98,1.62,4.48
20.210617065429688,1.03,4.51,3.07,5.55
20.32541513442993,0.8,4.74,3.92,6.2
20.325779914855957,0.48,4.7,3.56,5.91
20.32613515853882,0.1,4.52,2.51,5.17
20.32648801803589,-0.34,4.23,1.15,4.39
20.326847076416016,-0.65,3.56,-0.33,3.63
20.327203035354614,-0.76,2.64,-1.28,3.03
20.327553033828735,-0.77,1.74,-1.67,2.53
20.449114084243774,-0.76,0.92,-2.03,2.35
20.449519157409668,-0.81,0.18,-2.3,2.44
20.449909210205078,-0.73,-0.39,-2.22,2.36
20.450282096862793,-0.66,-0.69,-2.13,2.33
20.450653076171875,-0.62,-0.84,-2.11,2.35
20.451021194458008,-0.82,-1.06,-2.39,2.74
20.451383113861084,-1.01,-1.04,-2.16,2.6
20.451745986938477,-1.4,-0.83,-1.38,2.13
20.45211410522461,-1.76,-0.35,-0.5,1.86
20.452482223510742,-1.93,0.33,0.18,1.96
20.453596115112305,-2.06,1.08,0.62,2.4
20.45396614074707,-2.02,2.16,1.04,3.13
20.45433521270752,-1.76,3.23,0.73,3.75
20.45470404624939,-0.96,3.43,0.04,3.56
20.45506191253662,-0.47,3.17,-0.72,3.28
20.455410957336426,-0.24,2.24,-1.0,2.46
20.45576500892639,-0.19,0.96,-0.96,1.37
20.46021795272827,-0.09,-0.37,-0.49,0.62
20.577503204345703,-0.01,-1.69,-0.19,1.7
20.577879905700684,0.1,-2.73,-0.22,2.74
20.694730043411255,-0.01,-3.37,-0.45,3.39
20.69513988494873,-0.09,-3.79,-0.53,3.82
20.695505142211914,-0.28,-3.72,-0.75,3.8
20.696365118026733,-0.27,-3.65,-0.86,3.75
20.696737051010132,-0.36,-3.45,-0.8,3.55
20.697076082229614,-0.3,-3.21,-0.8,3.32
20.697428226470947,-0.25,-3.07,-0.72,3.16
20.69778299331665,-0.24,-3.0,-0.66,3.08
20.698133945465088,-0.22,-2.94,-0.54,2.99
20.698488235473633,-0.24,-2.89,-0.31,2.91
20.69959020614624,-0.29,-2.76,-0.01,2.77
20.69994807243347,-0.41,-2.58,0.32,2.63
20.70030403137207,-0.6,-2.42,0.54,2.55
20.700660228729248,-0.74,-2.3,0.48,2.46
20.701014041900635,-0.83,-2.19,0.3,2.36
20.701362133026123,-0.9,-1.98,0.33,2.19
20.701714992523193,-0.98,-1.67,0.57,2.01
20.70206594467163,-1.07,-1.27,0.7,1.8
20.702413082122803,-1.04,-0.64,0.8,1.45
20.702760219573975,-1.12,0.26,1.51,1.89
20.703740119934082,-1.18,1.23,2.24,2.81
20.704077005386353,-1.11,1.91,2.24,3.14
20.710097074508667,-0.95,2.06,1.45,2.69
20.835389137268066,-0.71,2.23,0.6,2.41
20.835796117782593,-0.69,2.6,0.59,2.75
20.836191177368164,-0.98,2.99,1.38,3.43
20.836575984954834,-1.09,3.56,2.73,4.61
20.836963176727295,-1.06,3.85,3.81,5.51
20.83732318878174,-1.01,3.85,3.09,5.03
20.837708950042725,-0.68,3.45,1.3,3.74
20.838876008987427,-0.13,2.86,-0.48,2.9
20.839235067367554,0.32,2.14,-1.29,2.51
20.8395938873291,0.65,1.33,-1.42,2.05
20.839946031570435,0.92,0.72,-1.8,2.14
20.8403000831604,1.08,0.41,-2.72,2.95
20.840651035308838,1.48,0.5,-3.5,3.83
20.972147941589355,1.58,0.74,-3.37,3.79
20.972556114196777,1.54,1.14,-2.79,3.38
20.972949981689453,1.64,1.4,-2.16,3.05
20.973340034484863,1.67,1.54,-1.86,2.93
20.97448205947876,1.87,1.75,-1.42,2.92
20.974853992462158,2.19,2.09,-0.49,3.06
20.975223064422607,2.27,2.69,0.63,3.57
20.975586891174316,1.97,3.15,0.95,3.83
20.97594690322876,1.46,3.38,0.51,3.71
20.976306915283203,0.83,3.43,-0.18,3.53
20.976668119430542,0.33,3.06,-0.57,3.13
20.97703504562378,-0.16,2.29,-0.76,2.41
20.977396965026855,-0.59,1.33,-0.93,1.72
20.9796040058136,-0.78,0.1,-1.0,1.27
21.2216739654541,-0.89,-1.03,-0.79,1.57
21.22205400466919,-0.82,-1.89,-0.58,2.14
21.222418069839478,-0.64,-2.56,-0.57,2.69
21.22277808189392,-0.36,-3.04,-0.48,3.09
21.223140239715576,0.01,-3.51,-0.34,3.52
21.223494052886963,0.17,-3.53,-0.83,3.63
21.223849058151245,0.5,-3.92,-1.05,4.08
21.22419810295105,0.6,-4.13,-1.18,4.33
21.22455406188965,0.64,-4.29,-1.22,4.5
21.22489595413208,0.62,-4.34,-1.02,4.5
21.2259681224823,0.51,-4.4,-0.73,4.48
21.22632598876953,0.41,-4.35,-0.45,4.39
21.22668218612671,0.43,-4.14,-0.2,4.16
21.227034091949463,0.5,-3.91,0.04,3.94
21.22738790512085,0.53,-3.53,0.25,3.57
21.227735996246338,0.59,-3.05,0.52,3.14
21.228086948394775,0.67,-2.6,0.65,2.76
21.228434085845947,0.72,-2.11,0.54,2.29
21.22878909111023,0.67,-1.63,0.44,1.81
21.229161024093628,0.66,-1.17,0.37,1.39
21.230144023895264,0.76,-0.64,0.22,1.01
21.354242086410522,0.91,-0.11,0.25,0.95
21.354619026184082,1.09,0.48,0.52,1.29
21.354979038238525,1.25,1.08,0.92,1.89
21.35533308982849,1.44,1.58,1.19,2.44
21.35568618774414,1.48,2.17,1.42,2.98
21.356037139892578,1.38,2.51,1.38,3.17
21.356380939483643,1.23,2.67,0.66,3.01
21.356730937957764,1.13,2.9,0.37,3.13
21.35707712173462,0.99,3.28,1.1,3.59
21.358150005340576,0.77,3.74,2.32,4.46
21.35850501060486,0.51,4.03,2.9,4.99
21.35887622833252,0.22,4.07,2.76,4.92
21.359228134155273,-0.18,4.0,2.07,4.5
21.35957407951355,-0.47,3.75,1.05,3.92
21.359929084777832,-0.59,3.22,0.16,3.27
21.36027717590332,-0.51,2.47,-0.31,2.54
21.360634088516235,-0.39,1.47,-0.77,1.7
21.489086151123047,-0.3,0.51,-1.67,1.77
21.489460945129395,-0.22,-0.22,-2.42,2.43
21.490549087524414,-0.18,-0.71,-2.59,2.69
21.490907192230225,-0.2,-0.91,-2.52,2.68
21.491268157958984,-0.26,-1.01,-2.49,2.69
21.491602897644043,-0.45,-1.06,-2.49,2.74
21.491951942443848,-1.03,-0.78,-1.81,2.22
21.49230194091797,-1.6,-0.4,-1.09,1.97
21.492638111114502,-1.6,0.39,-0.27,1.66
21.49298405647278,-1.9,1.39,0.54,2.41
21.493337154388428,-2.12,2.46,0.99,3.39
21.49368906021118,-2.07,3.36,0.81,4.02
21.49467420578003,-1.9,3.53,0.11,4.01
21.62507390975952,-1.57,3.15,-0.55,3.56
21.625444889068604,-1.01,2.36,-0.99,2.75
21.625810146331787,-0.5,1.35,-0.63,1.57
21.62617301940918,-0.29,0.11,-0.18,0.35
21.626530170440674,-0.11,-1.13,-0.04,1.13
21.62688398361206,-0.06,-2.21,-0.14,2.21
21.627241134643555,-0.04,-3.0,-0.35,3.02
21.627589225769043,-0.14,-3.44,-0.56,3.48
21.62793803215027,-0.26,-3.72,-0.57,3.77
21.629015922546387,-0.41,-3.71,-0.56,3.77
21.629374027252197,-0.45,-3.62,-0.63,3.7
21.629728078842163,-0.44,-3.47,-0.68,3.56
21.630083084106445,-0.4,-3.32,-0.78,3.43
21.630430221557617,-0.32,-3.16,-0.72,3.25
21.75910520553589,-0.23,-3.02,-0.6,3.08
21.759477138519287,-0.06,-2.81,-0.52,2.85
21.75984001159668,0.03,-2.66,-0.41,2.69
21.760197162628174,0.02,-2.61,-0.2,2.61
21.760555028915405,-0.09,-2.59,0.11,2.59
21.761643886566162,-0.28,-2.49,0.33,2.52
21.762001037597656,-0.5,-2.36,0.44,2.45
21.762357234954834,-0.83,-2.16,0.43,2.35
21.76271390914917,-0.93,-1.83,0.41,2.09
21.763066053390503,-1.02,-1.42,0.49,1.81
21.763399124145508,-1.02,-0.87,0.33,1.38
21.763747215270996,-0.98,-0.09,0.54,1.12
21.76407289505005,-0.98,0.98,1.3,1.9
21.894358158111572,-1.05,1.98,2.02,3.01
21.894731044769287,-1.08,2.39,1.8,3.18
21.89581298828125,-0.81,2.49,1.19,2.87
21.89617395401001,-0.42,2.39,0.69,2.52
21.89653205871582,-0.26,2.69,0.78,2.81
21.89686608314514,-0.26,3.12,1.79,3.6
21.897214889526367,-0.36,3.57,3.08,4.72
21.897569179534912,-0.53,3.72,3.9,5.41
21.897923946380615,-0.76,3.53,3.61,5.1
22.035099029541016,-0.94,3.02,2.13,3.81
22.035531044006348,-0.75,2.55,0.27,2.67
22.035906076431274,-0.36,1.85,-0.99,2.12
22.03701114654541,0.14,1.07,-1.43,1.79
22.03738498687744,0.58,0.43,-1.06,1.28
22.03775691986084,1.22,0.02,-1.87,2.23
22.038142204284668,1.59,-0.34,-2.7,3.15
22.03850793838501,1.68,-0.35,-3.15,3.58
22.038877964019775,1.69,-0.08,-2.61,3.11
22.039246082305908,1.61,0.38,-1.86,2.48
22.03961205482483,1.84,0.83,-1.41,2.46
22.03997802734375,1.89,1.01,-1.56,2.65
22.04034423828125,2.14,1.5,-1.66,3.09
22.041359901428223,2.17,2.03,-1.15,3.18
22.04172992706299,2.04,2.73,0.12,3.41
22.042102098464966,1.69,3.35,0.81,3.83
22.042470932006836,1.12,3.55,0.54,3.76
22.042829036712646,0.44,3.26,0.0,3.28
22.043190002441406,-0.37,2.74,-0.71,2.85
22.048607110977173,-0.92,1.7,-1.08,2.21
22.179033041000366,-1.18,0.47,-1.46,1.93
22.17940402030945,-1.27,-0.69,-1.36,1.98
22.179765224456787,-0.97,-1.75,-0.63,2.09
22.180849075317383,-0.81,-2.35,-0.43,2.52
22.1812162399292,-0.39,-2.9,-0.34,2.94
22.181572914123535,0.08,-3.44,-0.43,3.46
22.181931018829346,0.29,-3.71,-0.77,3.8
22.182286024093628,0.42,-3.89,-1.0,4.03
22.314013957977295,0.38,-3.63,-1.21,3.84
22.314395904541016,0.53,-3.54,-1.17,3.76
22.314752101898193,0.68,-3.56,-1.01,3.76
22.315108060836792,0.84,-3.5,-0.91,3.71
22.31546902656555,0.81,-3.48,-0.74,3.64
22.447213172912598,0.86,-3.41,-0.58,3.56
22.447607040405273,0.92,-3.3,-0.41,3.45
22.447975158691406,0.95,-3.08,-0.13,3.22
22.448334217071533,1.05,-2.72,0.28,2.92
22.44869089126587,1.12,-2.41,0.66,2.73
22.44904613494873,1.03,-2.11,0.67,2.44
22.449399948120117,1.01,-1.81,0.63,2.16
22.45008420944214,1.0,-1.36,0.56,1.77
22.4504451751709,1.07,-0.8,0.53,1.43
22.450813055038452,1.15,-0.17,0.51,1.26
22.451903104782104,1.22,0.56,0.58,1.46
22.452258110046387,1.24,1.24,0.92,1.98
22.45261812210083,1.2,1.82,1.02,2.4
22.452986240386963,1.17,2.11,1.01,2.61
22.453341960906982,1.19,2.16,0.89,2.62
22.453704118728638,1.11,2.26,0.5,2.56
22.45405101776123,1.03,2.34,0.3,2.57
22.454395055770874,0.93,2.58,0.89,2.88
22.4547381401062,0.79,2.92,2.13,3.69
22.45508623123169,0.62,3.26,3.04,4.5
22.45605993270874,0.35,3.4,3.11,4.62
22.456414222717285,-0.03,3.47,2.67,4.37
22.45676612854004,-0.47,3.57,1.93,4.08
22.457112073898315,-0.79,3.52,0.69,3.67
22.457465171813965,-1.12,3.28,-0.62,3.52
22.457834005355835,-1.16,2.85,-1.24,3.31
22.45818519592285,-1.06,1.97,-1.67,2.79
22.458549976348877,-1.08,1.08,-1.97,2.49
22.599460124969482,-0.99,0.33,-1.68,1.97
22.599831104278564,-0.76,-0.27,-1.85,2.01
22.742507934570312,-0.83,-0.83,-1.8,2.14
22.742919921875,-0.9,-1.09,-2.1,2.53
22.74331521987915,-1.12,-1.05,-1.94,2.47
22.743710041046143,-1.47,-0.97,-1.65,2.41
22.744091987609863,-1.73,-0.53,-1.06,2.09
22.744476079940796,-2.06,0.12,-0.56,2.13
22.744863986968994,-1.9,0.87,0.0,2.08
22.745219230651855,-1.87,1.87,0.62,2.71
22.74557113647461,-1.45,2.7,0.7,3.14
22.745923042297363,-0.81,2.93,0.16,3.04
22.74699902534485,-0.44,2.56,-0.71,2.69
22.74737310409546,-0.2,1.54,-1.17,1.94
22.747709035873413,-0.02,0.35,-1.17,1.22
22.748064041137695,0.1,-0.85,-0.74,1.13
22.74842119216919,0.15,-2.0,-0.23,2.01
22.748793125152588,-0.06,-2.9,-0.01,2.9
22.749142169952393,0.13,-3.59,-0.47,3.62
22.749489068984985,-0.06,-3.93,-0.51,3.96
22.749853134155273,-0.15,-3.86,-0.6,3.9
22.75020122528076,-0.17,-3.6,-0.67,3.66
22.88577890396118,-0.27,-3.2,-0.68,3.28
22.886192083358765,-0.33,-2.69,-0.86,2.84
22.886591911315918,-0.31,-2.28,-0.84,2.44
22.886996030807495,-0.27,-2.05,-0.64,2.16
22.88736915588379,-0.19,-1.85,-0.43,1.9
22.887731075286865,-0.22,-1.64,-0.07,1.65
22.88809299468994,-0.3,-1.53,0.12,1.56
22.888450145721436,-0.46,-1.51,0.17,1.58
22.888803958892822,-0.71,-1.53,0.18,1.69
22.889153003692627,-1.02,-1.45,0.36,1.8
22.89020800590515,-1.2,-1.41,0.61,1.94
22.890564918518066,-1.34,-1.37,0.67,2.03
22.890926122665405,-1.43,-1.29,0.69,2.04
22.891281127929688,-1.29,-1.09,0.65,1.8
22.891634941101074,-1.17,-0.58,0.52,1.4
22.891988039016724,-1.09,0.23,0.8,1.37
22.892333030700684,-1.01,1.15,1.56,2.18
22.892681121826172,-1.06,1.86,1.81,2.8
22.89302921295166,-0.95,2.04,1.13,2.51
22.893380165100098,-0.62,2.0,0.13,2.09
22.894339084625244,-0.4,2.11,-0.19,2.15
22.8976092338562,-0.34,2.41,0.67,2.52
23.042624950408936,-0.34,2.88,2.2,3.64
23.043021202087402,-0.33,3.0,3.4,4.54
23.043411016464233,-0.41,2.89,3.29,4.39
23.043793201446533,-0.55,2.51,2.09,3.31
23.044172048568726,-0.76,2.32,0.76,2.55
23.044607162475586,-0.52,2.17,-0.18,2.23
23.044994115829468,-0.17,1.69,-0.61,1.8
23.045388221740723,0.23,1.07,-1.01,1.48
23.046514987945557,0.54,0.44,-1.72,1.85
23.046921014785767,0.79,-0.01,-2.74,2.85
23.04731011390686,1.02,-0.05,-2.91,3.08
23.04771614074707,1.26,0.23,-2.4,2.72
23.048070907592773,1.29,0.61,-1.4,1.99
23.048423051834106,1.44,1.09,-1.25,2.19
23.048774003982544,1.69,1.4,-1.35,2.57
23.18596911430359,1.87,1.79,-1.36,2.92
23.18633794784546,2.17,2.33,-0.86,3.29
23.186703205108643,2.19,2.83,-0.29,3.59
23.1877760887146,2.06,3.32,-0.04,3.9
23.18813419342041,1.74,3.31,0.05,3.73
23.188488960266113,0.98,3.24,-0.3,3.39
23.18884515762329,0.32,2.57,-0.56,2.64
23.189198970794678,-0.25,1.61,-0.73,1.78
23.1895489692688,-0.65,0.45,-0.71,1.06
23.18990206718445,-0.86,-0.77,-0.76,1.38
23.190249919891357,-0.9,-1.86,-0.82,2.22
23.190603017807007,-0.77,-2.69,-0.52,2.84
23.190956115722656,-0.59,-3.04,-0.74,3.18
23.191933155059814,-0.25,-3.54,-0.79,3.63
23.197405099868774,0.04,-3.62,-0.89,3.72
23.343560218811035,0.23,-3.65,-1.08,3.81
23.34397006034851,0.47,-3.68,-1.14,3.88
23.34436798095703,0.59,-3.62,-1.07,3.82
23.344754219055176,0.5,-3.54,-0.89,3.68
23.34514617919922,0.48,-3.55,-0.7,3.65
23.345535039901733,0.39,-3.53,-0.52,3.58
23.345923900604248,0.31,-3.43,-0.36,3.46
23.346282958984375,0.31,-3.24,-0.14,3.25
23.34739398956299,0.41,-2.95,0.25,2.98
23.34777021408081,0.53,-2.6,0.59,2.71
23.348138093948364,0.77,-2.18,0.7,2.41
23.348499059677124,0.83,-1.86,0.54,2.1
23.348865032196045,0.89,-1.4,0.25,1.67
23.34922504425049,0.71,-1.18,0.3,1.4
23.34959316253662,0.68,-0.66,0.5,1.07
23.49589705467224,0.71,-0.11,0.65,0.96
23.49630308151245,0.8,0.28,0.96,1.28
23.49669599533081,0.92,0.67,1.16,1.62
23.497870922088623,1.08,1.05,1.08,1.85
23.498263120651245,1.3,1.39,0.87,2.09
23.498651027679443,1.4,1.71,0.83,2.36
23.49903917312622,1.43,1.87,0.81,2.48
23.49941921234131,1.46,1.98,0.43,2.49
23.49980401992798,1.38,2.25,0.4,2.66
23.50018811225891,1.39,2.71,0.96,3.19
23.500572204589844,1.16,3.17,1.72,3.78
23.500947952270508,0.9,3.35,2.19,4.1
23.50132989883423,0.72,3.24,2.31,4.04
23.64967918395996,0.44,2.97,2.13,3.68
23.65004801750183,0.16,2.73,1.86,3.3
23.650407075881958,-0.1,2.4,1.72,2.95
23.650769233703613,-0.38,2.14,1.14,2.45
23.651121139526367,-0.41,1.47,0.64,1.65
23.651480197906494,-0.49,0.82,-0.04,0.95
23.651859045028687,-0.53,0.27,-0.91,1.08
23.65276002883911,-0.61,-0.22,-1.62,1.74
23.653162956237793,-0.69,-0.44,-2.1,2.25
23.653553009033203,-0.42,-0.73,-2.32,2.46
23.65470600128174,-0.25,-1.04,-2.23,2.47
23.655098915100098,-0.08,-1.22,-2.22,2.53
23.655487060546875,-0.14,-1.26,-2.11,2.46
23.65587091445923,-0.3,-1.34,-1.68,2.16
23.656259059906006,-0.71,-1.12,-1.27,1.83
23.65663719177246,-1.06,-0.65,-0.73,1.44
23.657005071640015,-1.42,0.21,0.05,1.43
23.657366037368774,-1.63,1.5,0.77,2.34
23.666845083236694,-1.84,2.91,1.03,3.59
23.805938005447388,-1.69,3.97,0.85,4.39
23.807027101516724,-1.41,4.25,0.39,4.49
23.807387113571167,-1.22,3.86,-0.13,4.05
23.807745933532715,-1.01,2.87,-0.89,3.17
23.80810308456421,-0.59,1.54,-1.05,1.95
23.80845808982849,-0.18,-0.11,-0.67,0.7
23.808810234069824,0.04,-1.62,-0.02,1.62
23.809165000915527,0.19,-2.69,-0.07,2.69
23.809494972229004,0.27,-3.59,-0.07,3.6
23.80984401702881,0.33,-4.17,-0.32,4.19
23.81019115447998,0.4,-4.4,-0.54,4.45
23.81116008758545,0.44,-4.43,-0.61,4.49
23.811516046524048,0.36,-4.09,-0.57,4.14
23.81187105178833,0.22,-3.7,-0.53,3.74
23.81658911705017,0.25,-3.56,-0.43,3.59
23.957509994506836,0.2,-3.35,-0.38,3.37
23.957876205444336,-0.09,-3.22,-0.5,3.25
23.958234071731567,-0.14,-2.89,-0.36,2.91
23.958590984344482,-0.33,-2.58,-0.03,2.6
23.95894718170166,-0.44,-2.22,0.38,2.29
23.95930290222168,-0.43,-1.88,0.61,2.02
23.960355043411255,-0.61,-1.53,0.61,1.75
23.960712909698486,-0.75,-1.05,0.67,1.45
23.961062908172607,-0.91,-0.68,0.77,1.37
23.96141004562378,-1.07,-0.28,0.82,1.37
23.961759090423584,-1.27,0.33,0.52,1.41
23.96211290359497,-1.47,0.99,0.69,1.9
23.962461948394775,-1.71,1.85,1.31,2.83
23.96279001235962,-1.71,2.26,1.56,3.23
23.96645212173462,-1.48,2.09,1.17,2.81
24.116465091705322,-1.01,1.95,0.41,2.23
24.117558002471924,-0.46,1.81,0.2,1.87
24.117949962615967,-0.18,2.04,0.8,2.19
24.118343114852905,-0.29,2.35,1.98,3.08
24.11873197555542,-0.47,2.79,2.98,4.1
24.11911916732788,-0.63,3.06,3.61,4.77
24.11949920654297,-0.88,3.35,3.33,4.8
24.27108907699585,-0.81,3.34,2.22,4.09
24.271997928619385,-0.42,3.05,0.46,3.11
24.272385120391846,0.0,2.34,-0.81,2.47
24.272756099700928,0.52,1.53,-1.06,1.93
24.273818016052246,1.04,0.85,-1.06,1.71
24.27417802810669,1.31,0.23,-1.71,2.16
24.27453899383545,1.45,-0.23,-2.59,2.97
24.27489709854126,1.49,-0.43,-2.75,3.15
24.275230884552002,1.49,-0.33,-2.35,2.8
24.275581121444702,1.57,-0.03,-2.07,2.59
24.275938987731934,1.72,0.21,-1.92,2.58
24.2762930393219,1.85,0.58,-1.97,2.76
24.27664613723755,2.0,1.06,-1.41,2.66
24.276998043060303,2.11,1.54,-0.64,2.68
24.277996063232422,2.06,2.3,0.15,3.09
24.278350114822388,1.96,2.68,0.71,3.39
24.278701066970825,1.48,2.89,0.59,3.3
24.279054164886475,0.94,2.72,-0.13,2.88
24.27940607070923,0.4,2.24,-0.58,2.34
24.279755115509033,-0.17,1.24,-1.04,1.62
24.28010892868042,-0.59,0.19,-1.22,1.36
24.280461072921753,-0.83,-0.95,-1.04,1.63
24.280808925628662,-0.76,-1.94,-0.59,2.16
24.28116202354431,-0.61,-2.56,-0.25,2.64
24.286375999450684,-0.46,-2.97,-0.08,3.0
24.434897899627686,-0.21,-3.22,-0.38,3.24
24.435346126556396,0.01,-3.4,-0.47,3.43
24.43578290939331,0.45,-3.59,-0.5,3.65
24.436213970184326,0.71,-3.71,-0.59,3.82
24.436642169952393,0.94,-3.84,-0.69,4.01
24.43706202507019,1.24,-3.94,-0.5,4.16
24.43781304359436,1.4,-3.9,-0.48,4.17
24.43817710876465,1.3,-3.64,-0.26,3.87
24.43853521347046,1.08,-3.38,0.01,3.54
24.439589977264404,0.96,-3.12,0.27,3.27
24.43994903564453,0.9,-2.86,0.49,3.03
24.440306186676025,0.98,-2.49,0.6,2.74
24.44066309928894,0.95,-2.14,0.61,2.41
24.441018104553223,1.0,-1.73,0.39,2.03
24.44137191772461,1.07,-1.19,0.32,1.63
24.445966005325317,0.92,-0.74,0.41,1.24
24.592170238494873,0.76,-0.17,0.43,0.88
24.592543125152588,0.66,0.49,0.4,0.91
24.592902183532715,0.5,1.12,0.46,1.3
24.593975067138672,0.49,1.76,0.61,1.92
24.594332218170166,0.69,2.26,0.73,2.47
24.594688892364502,0.96,2.62,0.91,2.93
24.595072031021118,1.13,2.87,0.8,3.18
24.595427989959717,1.39,3.22,0.26,3.51
24.595774173736572,1.77,3.54,0.36,3.97
24.596124172210693,1.85,3.92,1.35,4.53
24.59647011756897,1.57,4.15,2.61,5.14
24.596814155578613,1.17,4.29,3.12,5.43
24.597163200378418,0.65,4.05,2.68,4.89
24.598144054412842,0.03,3.73,1.28,3.94
24.59850311279297,-0.55,3.43,-0.47,3.5
24.744222164154053,-1.04,2.89,-1.53,3.43
24.744596004486084,-1.15,2.02,-1.78,2.92
24.744935989379883,-1.15,1.15,-2.16,2.7
24.74529218673706,-1.11,0.23,-2.63,2.86
24.745649099349976,-0.89,-0.46,-2.46,2.65
24.74600315093994,-0.72,-0.78,-1.88,2.15
24.74633002281189,-0.72,-0.89,-1.35,1.77
24.746685028076172,-0.84,-0.91,-1.16,1.69
24.747756958007812,-1.3,-0.54,-0.93,1.68
24.748115062713623,-1.58,-0.18,-0.14,1.59
24.74847412109375,-1.92,0.41,0.35,1.99
24.748827934265137,-2.05,1.27,0.61,2.48
24.749181032180786,-2.16,2.17,0.89,3.18
24.74952793121338,-1.97,2.85,0.84,3.56
24.7498779296875,-1.41,3.01,0.26,3.33
24.895570039749146,-0.8,2.29,-0.25,2.43
24.8959379196167,-0.32,1.3,-1.04,1.69
24.89629602432251,0.25,-0.12,-1.39,1.41
24.89736795425415,0.63,-1.54,-1.27,2.09
24.897727012634277,0.72,-2.75,-1.0,3.01
24.89808201789856,0.66,-3.7,-0.54,3.79
24.898438930511475,0.58,-4.06,-0.84,4.18
24.898775100708008,0.58,-4.43,-0.7,4.52
24.89912509918213,0.42,-4.44,-0.36,4.47
24.8994779586792,0.04,-4.04,-0.2,4.04
24.89983105659485,-0.31,-3.61,-0.26,3.63
24.900184154510498,-0.61,-3.29,-0.49,3.38
24.900537967681885,-0.72,-3.11,-0.52,3.23
24.901501178741455,-0.62,-3.15,-0.49,3.24
24.901838064193726,-0.64,-3.08,-0.49,3.18
24.905433177947998,-0.68,-2.89,-0.31,2.98
25.067769050598145,-0.85,-2.63,0.23,2.77
25.06822109222412,-0.92,-2.3,0.84,2.61
25.06865406036377,-1.1,-1.89,1.04,2.42
25.069085121154785,-1.37,-1.49,0.99,2.25
25.069505214691162,-1.49,-1.2,1.04,2.17
25.069931030273438,-1.65,-0.71,1.02,2.06
25.07035493850708,-1.55,-0.34,1.01,1.88
25.07164192199707,-1.53,0.09,0.74,1.7
25.072071075439453,-1.39,0.49,0.59,1.58
25.07249689102173,-1.18,0.92,1.26,1.95
25.242876052856445,-1.03,1.26,1.91,2.5
25.243325233459473,-0.92,1.2,1.72,2.29
25.243760108947754,-0.59,1.09,0.75,1.44
25.244190216064453,-0.06,1.13,-0.02,1.13
25.244614124298096,0.22,1.34,0.41,1.41
25.245037078857422,0.44,2.03,1.95,2.84
25.245458126068115,0.48,2.96,3.7,4.76
25.24673104286194,0.35,3.58,4.15,5.49
25.24715805053711,-0.1,3.65,2.88,4.65
25.24758505821228,-0.41,3.71,1.21,3.92
25.24801015853882,-0.42,3.7,0.28,3.73
25.248428106307983,-0.46,3.31,-0.12,3.34
25.24885320663452,-0.07,2.6,-0.39,2.63
25.249274015426636,0.45,1.67,-0.86,1.93
25.24969720840454,0.74,0.85,-1.52,1.89
25.250118017196655,0.84,0.59,-2.85,3.02
25.250535011291504,1.04,0.32,-3.04,3.22
25.251689910888672,1.04,0.29,-2.54,2.75
25.252079010009766,1.14,0.14,-2.22,2.49
25.252461910247803,1.37,0.02,-2.41,2.77
25.252851963043213,1.5,-0.03,-2.66,3.05
25.253237009048462,1.89,0.02,-2.03,2.77
25.253621101379395,1.81,0.42,-0.86,2.04
25.254005908966064,1.75,0.96,-0.02,1.99
25.2550950050354,1.45,1.61,0.73,2.28
25.417009115219116,1.07,2.23,0.79,2.59
25.417453050613403,0.62,2.54,0.25,2.62
25.418757915496826,0.2,2.48,-0.65,2.57
25.419193029403687,-0.18,2.16,-1.19,2.47
25.419620990753174,-0.33,1.29,-1.26,1.83
25.420042037963867,-0.47,0.25,-1.08,1.2
25.420461177825928,-0.46,-0.81,-0.69,1.15
25.421063899993896,-0.3,-1.81,-0.1,1.83
25.42150592803955,-0.02,-2.69,-0.13,2.69
25.42189311981201,0.19,-3.28,-0.18,3.29
25.422245979309082,0.27,-3.77,-0.36,3.79
25.42259407043457,0.46,-4.01,-0.68,4.09
25.423595905303955,0.71,-3.84,-0.98,4.02
25.579570055007935,0.75,-3.77,-0.96,3.96
25.58004093170166,0.73,-3.63,-0.71,3.77
25.580482006072998,0.72,-3.41,-0.37,3.5
25.58091115951538,0.7,-3.24,-0.21,3.32
25.581317901611328,0.7,-2.97,-0.18,3.05
25.581735134124756,0.77,-2.73,-0.15,2.84
25.58206796646118,0.77,-2.54,-0.13,2.65
25.582422018051147,0.81,-2.18,-0.1,2.32
25.58277201652527,0.93,-1.83,0.14,2.05
25.583910942077637,1.1,-1.61,0.32,1.97
25.584290981292725,1.28,-1.37,0.43,1.92
25.584651947021484,1.55,-1.18,0.58,2.03
25.58500909805298,1.69,-0.84,0.85,2.06
25.585368156433105,1.63,-0.38,0.97,1.93
25.585978031158447,1.52,0.17,1.08,1.87
25.586345195770264,1.3,0.78,1.12,1.88
25.58669424057007,1.1,1.52,1.06,2.15
25.58704900741577,0.88,2.08,1.13,2.52
25.587400913238525,0.75,2.43,0.73,2.64
25.58841609954834,0.67,2.68,0.37,2.78
25.732288122177124,0.55,2.96,0.65,3.08
25.732685089111328,0.45,3.32,1.49,3.66
25.73304510116577,0.36,3.56,2.14,4.16
25.733402013778687,0.12,3.57,1.99,4.08
25.733744144439697,-0.03,3.57,1.63,3.92
25.734121084213257,-0.18,3.54,1.46,3.83
25.734479904174805,-0.38,3.48,0.81,3.59
25.734838008880615,-0.56,3.17,-0.18,3.22
25.735193014144897,-0.82,2.58,-1.03,2.89
25.736286163330078,-1.01,1.81,-1.73,2.69
25.736643075942993,-1.19,1.0,-2.26,2.74
25.736998081207275,-1.25,0.3,-2.34,2.66
25.737351894378662,-1.4,-0.35,-2.12,2.56
25.737700939178467,-1.28,-0.94,-2.45,2.91
25.738051891326904,-1.33,-1.22,-2.25,2.88
25.883334159851074,-1.53,-1.1,-1.67,2.51
25.883713006973267,-1.57,-0.73,-0.83,1.92
25.884100914001465,-1.69,-0.08,-0.02,1.69
25.88446307182312,-1.81,0.66,0.75,2.06
25.88554310798645,-1.82,1.7,1.1,2.72
25.885897159576416,-1.73,2.93,0.85,3.5
25.88625717163086,-1.23,3.86,0.1,4.05
25.88661289215088,-0.73,4.0,-0.62,4.11
25.886967182159424,-0.44,3.32,-0.83,3.45
25.88731622695923,-0.18,2.09,-0.63,2.19
25.88767099380493,-0.17,0.67,-0.07,0.69
25.888018131256104,-0.23,-0.9,0.33,0.98
25.888372898101807,0.03,-2.26,0.15,2.26
25.88872194290161,-0.23,-3.28,0.11,3.28
25.88973093032837,-0.19,-3.89,-0.32,3.9
26.03453493118286,-0.02,-4.32,-0.68,4.37
26.034913063049316,-0.07,-4.58,-0.89,4.66
26.035276889801025,-0.11,-4.63,-0.95,4.72
26.035638093948364,-0.08,-4.54,-0.97,4.64
26.03599500656128,-0.07,-4.43,-1.06,4.55
26.036352157592773,0.04,-4.06,-1.02,4.18
26.036708116531372,0.05,-3.88,-0.84,3.97
26.037065982818604,-0.06,-3.67,-0.63,3.72
26.037417888641357,-0.08,-3.45,-0.28,3.46
26.038504123687744,-0.12,-3.11,0.14,3.11
26.03886103630066,-0.23,-2.7,0.57,2.76
26.039215087890625,-0.33,-2.27,0.89,2.46
26.03956890106201,-0.59,-1.85,0.81,2.1
26.039921045303345,-0.77,-1.65,0.92,2.04
26.040295124053955,-0.95,-0.88,0.97,1.61
26.183226108551025,-1.16,-0.03,1.26,1.71
26.183617115020752,-1.42,0.74,1.42,2.14
26.183985233306885,-1.71,1.53,1.58,2.78
26.184344053268433,-1.7,2.29,1.87,3.41
26.185439109802246,-1.65,2.54,1.82,3.53
26.185798168182373,-1.36,2.25,1.19,2.88
26.186155080795288,-0.65,1.96,0.64,2.16
26.186506032943726,-0.13,1.99,0.76,2.13
26.18686294555664,-0.02,2.29,1.32,2.64
26.187217235565186,-0.13,2.88,2.21,3.63
26.18756914138794,-0.1,3.35,3.3,4.7
26.187915086746216,-0.28,3.4,2.96,4.51
26.18826389312744,-0.43,3.24,1.71,3.68
26.18861722946167,-0.42,3.1,0.6,3.18
26.189616203308105,-0.23,2.88,0.12,2.89
26.345251083374023,0.33,2.38,-0.09,2.4
26.345643997192383,0.44,1.52,-0.92,1.83
26.346022129058838,0.94,0.72,-1.81,2.16
26.346395015716553,1.37,0.22,-2.62,2.96
26.346763134002686,1.65,-0.2,-3.1,3.51
26.347130060195923,1.72,-0.15,-2.8,3.28
26.347511053085327,1.78,-0.23,-1.95,2.65
26.34787106513977,2.14,0.1,-1.76,2.77
26.348225116729736,2.26,0.19,-2.04,3.05
26.34931993484497,2.22,0.56,-1.84,2.93
26.349682092666626,2.17,1.2,-1.24,2.77
26.350036144256592,2.03,2.12,-0.32,2.95
26.350389003753662,1.84,2.94,0.34,3.48
26.3507399559021,1.42,3.48,0.33,3.77
26.35108995437622,0.99,3.43,-0.24,3.57
26.351445198059082,0.44,2.97,-0.77,3.09
26.353905200958252,-0.18,2.16,-0.84,2.32
26.501593112945557,-0.71,1.07,-0.59,1.41
26.5019690990448,-1.12,-0.34,-0.45,1.25
26.5030620098114,-1.27,-1.62,-0.3,2.08
26.503443241119385,-1.14,-2.97,-0.35,3.2
26.50380516052246,-0.83,-3.5,-0.37,3.61
26.50416111946106,-0.69,-3.85,-0.56,3.95
26.504515171051025,-0.03,-4.5,-0.85,4.57
26.50486421585083,-0.26,-4.32,-0.65,4.37
26.50521206855774,-0.1,-4.21,-0.6,4.25
26.50556516647339,0.36,-4.04,-0.73,4.12
26.505920886993408,0.55,-3.85,-0.45,3.91
26.50624990463257,0.64,-3.85,-0.23,3.9
26.507266998291016,0.84,-3.72,-0.03,3.81
26.507623195648193,1.03,-3.44,0.24,3.59
26.507978916168213,1.21,-3.14,0.34,3.38
26.663514137268066,1.27,-2.66,0.44,2.98
26.66395092010498,1.33,-2.13,0.65,2.59
26.66437602043152,1.17,-1.6,0.91,2.18
26.66480016708374,1.03,-1.16,0.9,1.79
26.665224075317383,0.89,-1.05,0.72,1.55
26.665653228759766,0.81,-0.79,0.69,1.32
26.66600799560547,0.92,-0.31,0.61,1.14
26.667110919952393,1.01,0.06,0.39,1.08
26.667466163635254,1.17,0.45,0.27,1.28
26.66781997680664,1.36,1.05,0.55,1.8
26.66816997528076,1.31,1.37,1.27,2.28
26.6685209274292,1.71,2.03,1.33,2.96
26.66887092590332,1.68,2.09,0.62,2.75
26.669219970703125,1.39,2.08,0.12,2.5
26.669569969177246,1.07,2.38,0.05,2.6
26.669918060302734,0.57,2.89,0.82,3.05
26.673501014709473,0.14,3.26,1.91,3.78
26.820763111114502,-0.12,3.29,2.41,4.08
26.821133136749268,-0.31,3.24,2.12,3.88
26.821494102478027,-0.38,3.29,1.74,3.74
26.821852207183838,-0.59,3.0,0.99,3.21
26.822207927703857,-0.58,2.38,0.0,2.44
26.82256317138672,-0.48,2.39,-0.4,2.47
26.82294011116028,-0.26,1.81,-0.87,2.02
26.823296070098877,-0.5,1.05,-1.44,1.85
26.823663234710693,-0.95,-0.1,-1.83,2.06
26.82401204109192,-1.02,-0.09,-2.12,2.35
26.82504892349243,-1.06,0.01,-2.17,2.41
26.82540512084961,-1.48,-0.22,-3.06,3.4
26.825759887695312,-1.62,-0.24,-2.65,3.11
26.826112031936646,-1.73,-0.1,-1.71,2.43
26.82646417617798,-1.87,0.03,-0.7,1.99
26.971742153167725,-2.07,0.35,0.09,2.1
26.97213101387024,-2.03,1.0,0.87,2.42
26.972495079040527,-2.0,2.09,1.39,3.2
26.97287607192993,-1.53,3.28,1.21,3.81
26.973238945007324,-1.08,4.01,0.73,4.21
26.974329948425293,-0.65,3.32,-0.14,3.38
26.974689960479736,-0.5,2.54,-0.99,2.77
26.975043058395386,-0.52,1.17,-0.6,1.41
26.975398063659668,-0.37,-0.13,-0.21,0.44
26.97575616836548,-0.02,-1.31,-0.58,1.43
26.976120948791504,0.02,-2.43,-0.23,2.44
26.97647190093994,-0.06,-3.03,-0.18,3.03
26.976827144622803,-0.11,-3.4,-0.23,3.4
26.977174043655396,-0.16,-3.61,-0.48,3.64
26.977529048919678,-0.3,-3.84,-0.69,3.91
27.27650213241577,-0.37,-3.93,-0.66,4.0
27.276878118515015,-0.46,-3.94,-0.68,4.02
27.27726411819458,-0.41,-4.0,-0.71,4.08
27.277605056762695,-0.17,-4.0,-0.65,4.05
27.277974128723145,-0.27,-4.05,-0.6,4.1
27.278330087661743,-0.38,-3.98,-0.59,4.04
27.278685092926025,-0.53,-3.84,-0.32,3.88
27.2794132232666,-0.76,-3.39,0.35,3.49
27.279781103134155,-1.01,-2.76,1.03,3.11
27.28014898300171,-1.27,-2.15,1.13,2.74
27.281245231628418,-1.23,-1.47,0.87,2.1
27.28158402442932,-1.23,-0.77,0.71,1.61
27.28196620941162,-1.01,-0.19,0.76,1.27
27.282305240631104,-1.01,0.06,0.63,1.19
27.282670974731445,-0.94,0.41,0.8,1.3
27.283026218414307,-1.22,0.75,1.15,1.83
27.283380031585693,0.4,2.75,1.07,2.97
27.28373622894287,-0.96,1.99,1.58,2.71
27.284090995788574,-0.35,2.24,0.75,2.38
27.284442901611328,0.19,2.47,0.07,2.47
27.285439014434814,0.25,2.76,0.49,2.81
27.285799980163574,0.0,2.95,2.04,3.58
27.286155223846436,0.03,3.15,2.97,4.32
27.28650999069214,-0.05,2.91,2.71,3.97
27.286864042282104,-0.16,2.64,1.49,3.03
27.287210941314697,-0.18,2.4,0.0,2.4
27.287559032440186,-0.1,2.18,-0.72,2.29
27.287911891937256,0.13,2.04,-0.76,2.18
27.288259029388428,0.44,1.84,-1.25,2.26
27.288613080978394,0.62,1.27,-1.65,2.17
27.28960418701172,1.11,1.75,-2.91,3.57
27.293041229248047,1.26,1.52,-2.82,3.44
27.441025018692017,1.46,1.5,-2.16,3.0
27.441399097442627,1.85,1.57,-1.89,3.07
27.44176197052002,2.24,1.46,-1.96,3.31
27.442139148712158,2.42,1.55,-1.93,3.46
27.442498207092285,2.77,1.91,-0.89,3.48
27.44286298751831,2.52,2.33,-0.08,3.43
27.443222045898438,2.21,2.8,0.85,3.66
27.44358205795288,1.67,2.91,0.95,3.48
27.44465708732605,0.83,2.97,0.19,3.08
27.44501805305481,-0.06,2.33,-0.72,2.43
27.445373058319092,-0.48,1.25,-1.2,1.79
27.445728063583374,-0.78,0.16,-1.29,1.51
27.59174108505249,-0.74,-0.9,-1.1,1.6
27.592307090759277,-0.45,-1.87,-0.84,2.09
27.5926730632782,-0.11,-2.66,-0.67,2.74
27.59303307533264,0.22,-3.29,-0.72,3.37
27.593390941619873,0.43,-3.68,-1.22,3.9
27.59374189376831,0.92,-4.0,-1.02,4.22
27.594834089279175,1.09,-4.04,-1.03,4.3
27.595170974731445,0.94,-4.04,-0.96,4.25
27.595524072647095,0.84,-4.27,-0.95,4.45
27.595879077911377,0.51,-4.52,-0.94,4.64
27.596235036849976,-0.05,-4.87,-0.87,4.94
27.752185106277466,-0.3,-4.87,-0.44,4.89
27.75313401222229,0.0,-4.67,-0.01,4.67
27.75357723236084,0.02,-4.21,0.28,4.21
27.75401210784912,0.25,-3.76,0.48,3.79
27.754437923431396,0.91,-3.02,0.91,3.28
27.755572080612183,1.66,-1.66,0.95,2.53
27.755933046340942,2.55,-0.68,0.69,2.72
27.75628900527954,0.54,-1.22,0.94,1.63
27.756646156311035,1.03,-0.42,0.68,1.3
27.756994009017944,1.01,0.38,0.53,1.2
27.757346153259277,1.21,0.83,0.62,1.59
27.75769305229187,0.86,1.59,0.79,1.97
27.758024215698242,1.37,1.56,0.79,2.22
27.758373022079468,1.44,1.79,0.63,2.38
27.758724212646484,1.53,2.03,0.62,2.61
27.759747982025146,2.05,2.56,0.73,3.35
27.7600998878479,1.74,3.08,0.23,3.54
27.760451078414917,0.91,3.79,0.31,3.91
27.760797023773193,1.7,3.65,1.67,4.35
27.761146068572998,0.72,4.01,1.84,4.47
27.761492013931274,0.13,4.64,1.14,4.77
27.761859893798828,-0.05,4.5,0.78,4.56
27.762214183807373,-0.85,4.01,0.5,4.12
27.76257300376892,-1.34,3.63,-0.41,3.89
27.908968925476074,-1.64,3.18,-1.53,3.89
27.910072088241577,-1.61,2.47,-1.77,3.43
27.910439014434814,-1.32,1.65,-1.24,2.45
27.910801887512207,-1.36,0.89,-1.32,2.09
27.911164045333862,-1.39,0.26,-1.81,2.29
27.911519050598145,-1.42,-0.38,-1.99,2.47
27.91189408302307,-1.78,-0.93,-2.01,2.84
27.912248134613037,-1.97,-1.42,-1.39,2.79
27.91260004043579,-2.13,-1.49,-0.71,2.69
27.91295099258423,-1.93,-1.11,-0.32,2.24
27.913324117660522,-1.88,-0.24,-0.36,1.92
28.06046199798584,-1.2,0.15,0.28,1.24
28.060837030410767,-0.81,1.18,0.81,1.64
28.061192989349365,-0.68,2.08,0.5,2.24
28.06155300140381,-0.36,2.18,-0.09,2.21
28.061930179595947,0.09,1.71,-0.31,1.74
28.06231689453125,-0.08,1.35,-0.76,1.55
28.06266689300537,0.0,0.2,-0.61,0.64
28.063021183013916,-0.18,-1.0,-0.31,1.06
28.06337594985962,-0.38,-2.11,0.04,2.14
28.063724994659424,-0.46,-3.11,0.08,3.14
28.211121082305908,-0.39,-3.91,-0.08,3.93
28.211513996124268,-0.65,-4.28,-0.3,4.33
28.211879014968872,-0.55,-4.47,-0.47,4.52
28.212241172790527,-0.35,-4.37,-0.43,4.4
28.212614059448242,-0.33,-4.1,-0.41,4.13
28.212966918945312,-0.34,-3.91,-0.37,3.94
28.213324069976807,-0.49,-3.61,-0.33,3.65
28.213682174682617,-0.62,-3.16,-0.24,3.22
28.214037895202637,-0.69,-2.76,-0.18,2.85
28.214393138885498,-0.7,-2.52,0.05,2.61
28.372183084487915,-0.85,-2.22,0.3,2.39
28.372594118118286,-0.98,-1.97,0.54,2.26
28.37299108505249,-1.01,-1.82,0.76,2.21
28.373382091522217,-1.22,-1.58,0.85,2.16
28.37377119064331,-1.06,-1.71,1.32,2.4
28.374163150787354,-1.5,-0.73,0.96,1.92
28.374560117721558,-1.57,-0.54,0.52,1.73
28.374948024749756,-0.95,-0.79,0.82,1.48
28.37533211708069,-1.08,-0.06,0.85,1.37
28.375715017318726,-1.83,1.36,0.76,2.4
28.376869201660156,-1.09,1.23,1.83,2.45
28.377260208129883,-1.19,1.43,1.84,2.61
28.37764811515808,-0.99,1.27,1.04,1.91
28.378035068511963,-0.47,1.15,0.36,1.29
28.37842106819153,-0.16,1.4,0.31,1.44
28.378804206848145,0.07,1.48,1.29,1.96
28.379188060760498,-0.13,1.38,2.01,2.44
28.37958312034607,-0.39,1.27,1.84,2.26
28.37996506690979,-0.36,1.23,2.14,2.49
28.380351066589355,-0.54,1.16,1.76,2.17
28.381450176239014,-0.48,1.08,-0.31,1.22
28.381840229034424,-0.07,1.19,-2.31,2.59
28.539818048477173,0.59,1.76,-1.98,2.71
28.540224075317383,1.31,2.38,-1.1,2.93
28.540622234344482,1.96,2.79,-1.51,3.72
28.541032075881958,2.42,2.93,-1.54,4.1
28.541420936584473,2.54,3.04,-1.56,4.25
28.541810035705566,2.52,2.99,-2.26,4.51
28.542190074920654,2.6,2.85,-2.53,4.61
28.54257822036743,2.53,2.94,-1.99,4.35
28.543731212615967,2.55,2.85,-0.31,3.83
28.54412007331848,1.72,3.53,0.46,3.95
28.544509887695312,1.25,3.87,1.02,4.19
28.544897079467773,0.97,4.11,0.91,4.31
28.545263051986694,0.53,4.65,0.53,4.71
28.5456280708313,0.44,4.47,0.26,4.49
28.54599404335022,0.12,3.94,-0.49,3.97
28.54635715484619,-0.25,3.09,-1.44,3.41
28.546725034713745,-0.15,1.45,-1.57,2.14
28.547088146209717,-0.09,-0.07,-0.76,0.76
28.548096179962158,0.04,-1.45,-0.28,1.47
28.548470973968506,0.37,-2.66,-0.11,2.68
28.54883909225464,0.63,-3.76,-0.42,3.83
28.707674026489258,1.12,-4.85,-0.34,4.98
28.708086013793945,1.08,-5.31,-0.87,5.48
28.708477020263672,0.91,-5.73,-1.26,5.93
28.70886993408203,1.09,-6.23,-1.02,6.4
28.70926308631897,0.62,-6.14,-1.05,6.25
28.709667205810547,0.35,-6.03,-1.07,6.13
28.710057020187378,0.3,-5.96,-1.01,6.05
28.71126699447632,0.5,-5.73,-0.53,5.77
28.71165895462036,0.54,-5.28,-0.16,5.3
28.712062120437622,0.53,-4.73,-0.08,4.76
28.712451934814453,0.57,-4.08,-0.03,4.11
28.712838172912598,0.72,-3.38,0.06,3.45
28.7132248878479,0.66,-2.64,0.08,2.72
28.713611125946045,0.58,-1.63,-0.39,1.77
28.71400022506714,1.05,-1.12,0.17,1.54
28.71438503265381,1.01,-0.12,0.25,1.04
28.714783191680908,0.79,1.0,0.13,1.28
28.71587610244751,0.96,1.98,0.89,2.37
28.867836952209473,1.23,2.78,1.65,3.45
28.868247032165527,1.39,3.29,1.35,3.81
28.868618965148926,1.78,3.43,0.71,3.92
28.86898899078369,1.93,3.61,0.23,4.09
28.86937403678894,1.77,3.71,-0.27,4.11
28.869757175445557,1.66,3.74,-0.1,4.09
28.87014102935791,1.41,3.77,0.82,4.1
28.87052011489868,0.97,3.84,2.0,4.43
28.870914936065674,0.54,3.76,2.61,4.6
28.872057914733887,0.16,3.53,2.71,4.45
28.87244701385498,-0.05,3.35,2.38,4.1
28.872829914093018,-0.39,3.11,1.59,3.51
28.873220920562744,-0.74,2.92,0.43,3.04
28.87360405921936,-1.19,2.64,-0.24,2.9
28.873990058898926,-1.35,2.39,-0.34,2.76
28.87437605857849,-1.26,1.89,-1.03,2.49
28.87476921081543,-1.17,1.28,-2.46,3.0
28.875153064727783,-0.72,0.28,-2.62,2.73
28.87553310394287,-0.73,-0.05,-2.88,2.97
28.88166093826294,-0.89,-0.54,-2.84,3.02
29.02338409423828,-0.81,-1.3,-2.27,2.73
29.023737907409668,-0.81,-2.08,-1.03,2.45
29.024096965789795,-1.1,-2.06,-0.57,2.4
29.024456024169922,-1.19,-1.75,-0.24,2.12
29.024816036224365,-1.22,-0.82,0.02,1.47
29.02516794204712,-1.36,0.48,0.25,1.46
29.02552318572998,-1.57,1.87,0.5,2.49
29.025875091552734,-1.6,3.08,0.38,3.49
29.026231050491333,-1.62,3.67,-0.22,4.01
29.02730703353882,-1.41,3.55,-0.69,3.88
29.027666091918945,-1.16,2.71,-0.66,3.02
29.028025150299072,-0.99,1.47,-0.11,1.77
29.02837896347046,-0.88,0.12,0.28,0.93
29.02873420715332,-0.83,-1.17,0.21,1.44
29.031037092208862,-0.74,-2.2,0.01,2.32
29.18202805519104,-0.53,-2.8,-0.34,2.86
29.182416915893555,-0.42,-3.16,-0.37,3.2
29.182799100875854,-0.22,-3.18,-0.41,3.21
29.183165073394775,-0.07,-3.03,-0.56,3.08
29.336793899536133,-0.03,-2.83,-0.66,2.9
29.337242126464844,0.1,-2.7,-0.87,2.83
29.337677001953125,0.42,-3.01,-0.76,3.13
29.33810520172119,0.16,-3.13,-0.6,3.19
29.338531970977783,0.05,-3.16,-0.36,3.18
29.338958024978638,-0.2,-3.44,-0.14,3.44
29.339384078979492,-0.45,-3.33,0.24,3.36
29.339757919311523,-0.58,-3.14,0.49,3.23
29.34011220932007,-1.02,-3.0,0.55,3.21
29.340464115142822,-1.34,-2.68,0.54,3.04
29.341546058654785,-1.52,-2.25,0.53,2.76
29.34190320968628,-1.59,-1.62,0.41,2.3
29.3422589302063,-1.51,-0.89,0.35,1.78
29.342615127563477,-1.42,-0.17,0.5,1.51
29.34296989440918,-1.24,0.51,0.72,1.52
29.343322038650513,-1.04,1.09,1.11,1.87
29.34367322921753,-0.98,1.5,1.49,2.33
29.34402894973755,-1.05,1.55,1.27,2.26
29.3443820476532,-0.97,1.49,0.7,1.91
29.344754219055176,-0.67,1.7,0.4,1.87
29.34584403038025,-0.43,2.15,0.82,2.34
29.346231937408447,-0.24,2.65,1.72,3.16
29.346618175506592,-0.09,3.18,2.91,4.31
29.347003936767578,-0.14,3.57,3.23,4.81
29.34738802909851,-0.22,3.27,2.41,4.06
29.347765922546387,-0.34,2.77,1.54,3.18
29.34815216064453,-0.66,2.84,0.49,2.95
29.350543975830078,-0.4,2.34,0.25,2.38
29.492018222808838,0.1,1.79,-0.11,1.79
29.49238920211792,0.6,1.12,-1.24,1.77
29.493470191955566,1.08,0.44,-2.36,2.63
29.49383020401001,1.44,0.03,-3.01,3.33
29.49419116973877,1.71,-0.07,-2.63,3.13
29.494549036026,1.87,-0.11,-2.16,2.85
29.494904041290283,1.99,0.0,-2.44,3.14
29.49525809288025,1.98,0.1,-2.41,3.12
29.495612144470215,2.11,0.61,-1.53,2.67
29.49596118927002,2.21,1.27,-0.68,2.63
29.49631905555725,2.22,2.17,0.02,3.1
29.496669054031372,1.93,3.07,0.25,3.63
29.497658014297485,1.49,3.94,0.1,4.21
29.498013019561768,0.81,4.26,-0.26,4.34
29.50047492980957,0.37,4.27,-0.75,4.35
29.653034210205078,-0.04,3.62,-0.81,3.7
29.653441905975342,-0.22,2.57,-0.36,2.6
29.653834104537964,-0.2,1.27,-0.05,1.28
29.654221057891846,-0.24,0.01,-0.4,0.46
29.654603958129883,-0.16,-1.08,-0.51,1.2
29.654994010925293,-0.06,-2.01,-0.64,2.11
29.655375957489014,0.11,-2.79,-0.66,2.86
29.656455039978027,0.3,-3.4,-0.91,3.53
29.656811237335205,0.53,-3.88,-1.2,4.09
29.65714406967163,0.85,-4.2,-1.2,4.45
29.657498121261597,1.0,-4.45,-1.09,4.68
29.65785312652588,0.95,-4.59,-1.06,4.8
29.658201217651367,0.85,-4.57,-1.07,4.76
29.658552169799805,0.64,-4.54,-1.02,4.69
29.658902168273926,0.43,-4.37,-0.97,4.49
29.660290241241455,0.36,-4.15,-0.86,4.25
29.809664011001587,0.45,-3.83,-0.69,3.91
29.810818195343018,0.63,-3.48,-0.37,3.55
29.811182022094727,0.78,-3.15,0.03,3.24
29.811540126800537,0.85,-2.82,0.25,2.95
29.811898231506348,0.87,-2.47,0.19,2.62
29.812252044677734,0.92,-1.92,0.12,2.13
29.812608003616333,0.98,-1.23,0.28,1.59
29.8129620552063,1.03,-0.49,0.47,1.23
29.813313961029053,0.99,0.27,0.63,1.2
29.813663959503174,1.06,1.05,0.76,1.67
29.81401491165161,1.05,1.68,0.9,2.17
29.815027236938477,1.1,2.17,0.76,2.54
29.81537914276123,1.16,2.41,0.41,2.7
29.815730094909668,1.31,2.18,0.65,2.62
29.816082000732422,1.42,2.14,0.41,2.6
29.962563037872314,1.13,2.19,0.45,2.5
29.96293020248413,1.02,2.27,0.87,2.63
29.963292121887207,0.83,2.65,1.64,3.22
29.963648080825806,0.59,2.95,2.26,3.76
29.96400213241577,0.43,2.99,2.64,4.01
29.96435022354126,0.07,3.07,2.75,4.12
29.965464115142822,-0.16,3.09,2.38,3.9
29.965824127197266,-0.43,3.13,1.71,3.59
29.966177940368652,-0.65,3.1,0.86,3.28
29.966533184051514,-0.71,2.83,0.17,2.92
29.966883182525635,-0.62,2.39,-0.32,2.48
29.967237949371338,-0.55,1.66,-0.64,1.86
29.967586040496826,-0.52,0.71,-1.08,1.39
29.967934131622314,-0.43,-0.13,-1.49,1.55
29.96828603744507,-0.31,-0.74,-1.92,2.08
30.112947940826416,-0.34,-1.19,-2.16,2.48
30.11404323577881,-0.49,-1.47,-2.47,2.91
30.114407062530518,-0.7,-1.51,-2.57,3.06
30.114765167236328,-1.0,-1.53,-2.27,2.91
30.115135192871094,-1.32,-1.57,-1.89,2.78
30.115489959716797,-1.36,-1.24,-1.28,2.24
30.115845203399658,-1.79,-0.48,-0.3,1.87
30.116197109222412,-1.8,0.34,0.15,1.83
30.1165509223938,-1.88,1.31,0.58,2.36
30.11690402030945,-1.95,2.49,0.69,3.23
30.117249011993408,-1.5,3.28,0.37,3.62
30.118240118026733,-0.97,3.5,-0.13,3.63
30.118595123291016,-0.53,3.09,-0.25,3.14
30.118947982788086,-0.12,2.24,-0.08,2.24
30.119301080703735,0.16,1.02,0.16,1.04
30.275967121124268,0.13,-0.16,0.33,0.38
30.27681803703308,0.06,-1.38,0.09,1.38
30.277262210845947,-0.01,-2.72,0.02,2.72
