time,ax,ay,az,atotal
0.012230873107910156,-0.16,0.45,-0.14,0.49
0.018582820892333984,0.07,-0.22,0.02,0.23
0.02892279624938965,-0.09,-0.01,-0.08,0.12
0.04355669021606445,0.08,0.01,-0.09,0.12
0.04860973358154297,0.02,-0.13,-0.1,0.16
0.05876588821411133,-0.09,-0.09,-0.06,0.14
0.06853675842285156,-0.12,-0.02,0.0,0.12
0.07872772216796875,-0.11,-0.02,-0.06,0.12
0.09417867660522461,-0.08,-0.02,-0.04,0.09
0.09858989715576172,-0.05,-0.04,0.01,0.06
0.10868072509765625,-0.03,-0.01,0.01,0.03
0.11866092681884766,-0.05,0.01,-0.04,0.06
0.12854385375976562,-0.05,0.05,-0.04,0.08
0.14539098739624023,0.0,0.04,-0.05,0.06
0.14822769165039062,0.0,0.01,-0.03,0.03
0.1587388515472412,-0.04,0.02,0.0,0.04
0.1685500144958496,-0.02,0.02,0.02,0.03
0.17849969863891602,-0.01,0.02,0.02,0.03
0.1972060203552246,0.01,0.02,0.03,0.03
0.19829893112182617,-0.01,-0.01,0.0,0.01
0.20870089530944824,-0.04,-0.02,-0.03,0.05
0.21845483779907227,-0.06,-0.03,-0.06,0.09
0.22868585586547852,-0.07,-0.04,-0.07,0.1
0.24814486503601074,-0.07,-0.01,-0.06,0.09
0.24872398376464844,-0.08,0.0,-0.06,0.1
0.2586648464202881,-0.05,-0.02,-0.02,0.05
0.2684938907623291,-0.04,-0.04,0.02,0.06
0.2785029411315918,-0.02,-0.04,-0.06,0.07
0.29692602157592773,-0.01,-0.03,-0.11,0.11
0.29821085929870605,0.03,-0.06,-0.04,0.07
0.30853271484375,0.0,-0.06,0.0,0.06
0.31835174560546875,-0.1,-0.01,-0.11,0.14
0.32856273651123047,-0.12,-0.02,0.1,0.15
0.34769773483276367,-0.11,-0.03,0.03,0.11
0.3483428955078125,-0.09,-0.02,-0.01,0.09
0.35857295989990234,0.0,-0.02,0.12,0.12
0.36833667755126953,0.01,-0.01,0.12,0.12
0.37854671478271484,0.0,-0.05,0.0,0.05
0.3973269462585449,0.03,-0.07,0.01,0.07
0.3980870246887207,0.04,-0.06,0.1,0.12
0.40839672088623047,0.01,-0.02,0.02,0.03
0.41867685317993164,-0.02,0.01,-0.04,0.04
0.4282188415527344,-0.02,0.0,-0.04,0.04
0.4477198123931885,-0.05,-0.01,-0.04,0.06
0.4483358860015869,-0.09,-0.01,-0.01,0.09
0.45833683013916016,-0.09,-0.02,0.01,0.09
0.46839189529418945,-0.06,-0.03,0.04,0.07
0.47888684272766113,-0.05,-0.05,0.04,0.08
0.49845170974731445,-0.04,-0.03,0.04,0.06
0.4990849494934082,-0.08,-0.02,0.01,0.08
0.508253812789917,-0.06,-0.01,0.01,0.06
0.5185599327087402,-0.03,0.0,0.01,0.03
0.5284028053283691,-0.08,-0.02,-0.02,0.08
0.548670768737793,-0.08,-0.04,-0.07,0.11
0.5492959022521973,-0.07,-0.05,-0.04,0.09
0.5583028793334961,-0.11,-0.08,0.1,0.16
0.5688867568969727,-0.1,-0.06,-0.02,0.11
0.5783658027648926,-0.09,-0.05,-0.13,0.16
0.5973520278930664,-0.13,-0.07,-0.09,0.17
0.5980057716369629,-0.11,-0.12,-0.03,0.16
0.6081337928771973,-0.1,-0.16,-0.03,0.19
0.6187939643859863,-0.12,-0.22,-0.01,0.25
0.6282367706298828,-0.15,-0.28,0.04,0.32
0.646751880645752,-0.18,-0.3,0.06,0.35
0.6477658748626709,-0.27,-0.2,0.1,0.35
0.6581308841705322,-0.25,-0.14,0.18,0.33
0.6680178642272949,-0.26,-0.1,0.25,0.37
0.677973747253418,-0.26,-0.06,0.26,0.37
0.6973457336425781,-0.23,-0.05,0.23,0.32
0.6979358196258545,-0.29,-0.05,0.22,0.36
0.7081148624420166,-0.31,-0.1,0.25,0.41
0.7179868221282959,-0.33,-0.19,0.28,0.47
0.7281436920166016,-0.37,-0.28,0.29,0.54
0.7479100227355957,-0.37,-0.31,0.26,0.54
0.7485458850860596,-0.41,-0.37,0.22,0.59
0.758173942565918,-0.43,-0.43,0.19,0.63
0.7679347991943359,-0.46,-0.47,0.19,0.68
0.7786626815795898,-0.43,-0.52,0.17,0.69
0.7978677749633789,-0.44,-0.57,0.2,0.74
0.7984519004821777,-0.52,-0.57,0.23,0.8
0.8080949783325195,-0.57,-0.53,0.25,0.81
0.8178958892822266,-0.62,-0.48,0.28,0.83
0.8287177085876465,-0.65,-0.45,0.31,0.84
0.8471918106079102,-0.68,-0.43,0.32,0.86
0.8477718830108643,-0.68,-0.42,0.35,0.87
0.8580517768859863,-0.67,-0.4,0.41,0.88
0.8679027557373047,-0.7,-0.34,0.36,0.85
0.8786108493804932,-0.71,-0.3,0.28,0.82
0.8982858657836914,-0.67,-0.31,0.32,0.8
0.8990528583526611,-0.66,-0.31,0.3,0.78
0.9079527854919434,-0.69,-0.29,0.15,0.76
0.9177088737487793,-0.74,-0.29,0.32,0.85
0.928499698638916,-0.76,-0.33,0.34,0.89
0.9475858211517334,-0.75,-0.32,0.22,0.84
0.9482028484344482,-0.69,-0.33,0.36,0.84
0.9579188823699951,-0.57,-0.41,0.48,0.85
0.967803955078125,-0.55,-0.44,0.46,0.84
0.9776897430419922,-0.55,-0.45,0.48,0.85
1.0003879070281982,-0.49,-0.46,0.51,0.84
1.0010018348693848,-0.45,-0.45,0.45,0.77
1.0077710151672363,-0.39,-0.51,0.32,0.71
1.017683982849121,-0.25,-0.66,0.05,0.7
1.0277378559112549,-0.21,-0.85,-0.29,0.92
1.0476868152618408,-0.21,-1.1,-0.53,1.23
1.0483107566833496,-0.15,-1.4,-0.69,1.56
1.0577497482299805,-0.12,-1.67,-0.62,1.78
1.0676078796386719,-0.07,-1.78,-0.39,1.82
1.0776429176330566,0.13,-1.69,-0.01,1.69
1.098660945892334,0.45,-1.35,0.53,1.51
1.0992858409881592,0.84,-0.91,1.1,1.65
1.1077499389648438,1.16,-0.34,1.7,2.08
1.117480754852295,1.7,0.34,2.16,2.76
1.1275997161865234,2.22,0.93,2.35,3.36
1.1487758159637451,1.94,1.15,2.16,3.12
1.149418830871582,1.66,1.17,1.89,2.77
1.1575407981872559,1.39,1.05,1.73,2.45
1.1674599647521973,1.24,0.78,1.77,2.29
1.177577018737793,0.64,0.25,1.6,1.74
1.19826078414917,0.24,-0.3,1.44,1.49
1.1988840103149414,0.28,-0.77,1.36,1.58
1.207472801208496,0.47,-1.15,1.21,1.73
1.217411994934082,-0.24,-1.69,0.81,1.88
1.2275099754333496,-0.36,-2.1,0.62,2.21
1.2490298748016357,-0.31,-2.29,0.49,2.36
1.2496519088745117,-0.29,-2.33,0.39,2.38
1.2572758197784424,-0.36,-2.23,0.38,2.29
1.2674469947814941,-0.26,-2.17,0.48,2.23
1.2774488925933838,-0.14,-2.15,0.54,2.22
1.2981986999511719,-0.07,-2.02,0.64,2.12
1.2988297939300537,0.16,-1.82,0.79,1.99
1.307229995727539,0.18,-1.72,0.89,1.94
1.3173270225524902,0.14,-1.73,0.98,1.99
1.3271808624267578,0.21,-1.73,1.07,2.04
1.3482248783111572,0.33,-1.71,1.15,2.08
1.3488507270812988,0.49,-1.68,1.26,2.15
1.3571147918701172,0.6,-1.64,1.44,2.26
1.3673110008239746,0.61,-1.58,1.53,2.28
1.377274990081787,0.57,-1.47,1.53,2.19
1.398270845413208,0.56,-1.37,1.5,2.1
1.3988957405090332,0.61,-1.29,1.47,2.04
1.4070408344268799,0.62,-1.23,1.44,1.99
1.4171767234802246,0.61,-1.15,1.45,1.94
1.427203893661499,0.64,-1.06,1.47,1.92
1.4489526748657227,0.65,-1.01,1.51,1.92
1.449577808380127,0.66,-0.99,1.57,1.96
1.456974983215332,0.72,-0.96,1.64,2.03
1.4670677185058594,0.75,-0.94,1.77,2.13
1.4771709442138672,0.84,-0.94,1.96,2.33
1.4992058277130127,0.91,-0.88,2.08,2.43
1.4998338222503662,0.86,-0.79,2.16,2.45
1.5069389343261719,0.77,-0.74,2.28,2.51
1.5170707702636719,0.73,-0.71,2.36,2.57
1.5271728038787842,0.7,-0.65,2.41,2.59
1.5491487979888916,0.77,-0.55,2.53,2.7
1.549787998199463,0.87,-0.41,2.58,2.75
1.5568599700927734,0.94,-0.2,2.61,2.78
1.5669827461242676,0.91,0.03,2.75,2.89
1.5770177841186523,0.94,0.27,3.0,3.15
1.599254846572876,1.04,0.53,3.21,3.41
1.5998687744140625,0.99,0.76,3.2,3.43
1.6069469451904297,1.13,0.96,3.18,3.5
1.6169488430023193,1.29,1.15,3.21,3.64
1.627025842666626,1.28,1.38,3.29,3.79
1.6495709419250488,1.17,1.66,3.34,3.9
1.6502158641815186,1.06,2.1,3.21,3.97
1.6567339897155762,0.92,2.66,2.82,3.98
1.666963815689087,0.83,3.25,2.34,4.08
1.6769828796386719,0.85,3.66,1.84,4.18
1.6993989944458008,0.9,3.72,1.5,4.11
1.7000188827514648,0.98,3.41,1.15,3.72
1.7067689895629883,0.81,2.8,0.48,2.95
1.7168598175048828,0.48,2.1,-0.47,2.2
1.726968765258789,0.08,1.38,-1.15,1.79
1.736757755279541,-0.46,0.83,-1.48,1.75
1.749673843383789,-1.01,0.31,-1.65,1.95
1.7567996978759766,-1.42,-0.1,-1.73,2.24
1.766860008239746,-1.77,-0.29,-1.76,2.51
1.7768707275390625,-1.98,-0.19,-1.78,2.66
1.7867698669433594,-2.12,0.14,-1.68,2.7
1.800055980682373,-1.92,0.29,-1.42,2.4
1.8067538738250732,-1.6,0.36,-0.96,1.9
1.8167338371276855,-1.35,0.25,-0.53,1.47
1.826873779296875,-1.05,-0.03,-0.1,1.05
1.8366978168487549,-0.64,-0.34,0.28,0.77
1.8503968715667725,-0.33,-0.64,0.31,0.78
1.8564977645874023,-0.13,-0.98,0.23,1.01
1.8667359352111816,0.07,-1.4,0.09,1.4
1.876788854598999,0.09,-1.82,-0.15,1.82
1.8866188526153564,0.0,-2.11,-0.4,2.14
1.899904727935791,-0.06,-2.35,-0.61,2.42
1.9064249992370605,-0.21,-2.63,-0.76,2.74
1.916644811630249,-0.38,-2.91,-0.87,3.06
1.9267728328704834,-0.48,-3.22,-0.99,3.4
1.9364948272705078,-0.54,-3.5,-1.08,3.7
1.95009183883667,-0.61,-3.69,-1.14,3.9
1.9564518928527832,-0.72,-3.84,-1.14,4.06
1.9665169715881348,-0.77,-3.88,-1.14,4.11
1.9766838550567627,-0.74,-3.81,-1.08,4.02
1.9865260124206543,-0.67,-3.7,-0.96,3.88
2.000027894973755,-0.69,-3.51,-0.8,3.66
2.00636887550354,-0.73,-3.25,-0.57,3.37
2.0165557861328125,-0.7,-2.94,-0.16,3.02
2.0266757011413574,-0.78,-2.57,0.25,2.69
2.0371317863464355,-0.81,-2.16,0.61,2.38
2.0510568618774414,-0.76,-1.72,0.94,2.1
2.0564279556274414,-0.71,-1.33,1.35,2.02
2.066481828689575,-0.65,-0.95,1.68,2.03
2.0764846801757812,-0.66,-0.53,1.75,1.94
2.0863747596740723,-0.88,-0.18,1.8,2.01
2.1004998683929443,-0.76,0.02,1.91,2.05
2.1061840057373047,-0.67,0.15,2.22,2.32
2.1163687705993652,-0.82,0.31,2.56,2.7
2.1264798641204834,-0.93,0.55,2.63,2.84
2.1363449096679688,-0.94,0.9,2.57,2.88
2.1502699851989746,-1.0,1.17,2.62,3.03
2.156223773956299,-0.93,1.34,2.86,3.29
2.1663589477539062,-0.88,1.47,3.0,3.45
2.176370859146118,-0.83,1.48,3.03,3.47
2.186367988586426,-0.75,1.45,2.94,3.36
2.2005999088287354,-0.65,1.35,2.85,3.21
2.205972671508789,-0.43,1.19,3.02,3.27
2.2162747383117676,-0.32,1.15,3.42,3.62
2.2263708114624023,-0.26,1.28,3.85,4.06
2.236177921295166,-0.26,1.75,4.11,4.47
2.250771999359131,-0.28,2.55,3.81,4.59
2.2560198307037354,-0.16,3.51,2.7,4.43
2.2662248611450195,0.16,4.49,1.07,4.61
2.276392936706543,0.58,4.95,-0.56,5.01
2.2862348556518555,0.75,4.75,-1.79,5.13
2.300635814666748,0.85,4.13,-2.7,5.0
2.3059258460998535,0.8,3.51,-3.17,4.79
2.3161118030548096,1.24,2.59,-3.14,4.25
2.3261919021606445,2.15,1.09,-2.92,3.78
2.336099863052368,3.02,-0.55,-2.6,4.02
2.351001739501953,2.61,-1.57,-1.97,3.62
2.3559107780456543,1.75,-1.02,-0.54,2.09
2.3661599159240723,2.28,-0.6,-0.2,2.36
2.37619686126709,2.57,-0.62,-0.42,2.67
2.386145830154419,2.17,-0.15,-0.27,2.19
2.400594711303711,1.51,0.37,0.01,1.55
2.4058098793029785,0.72,0.62,0.32,1.0
2.4160208702087402,0.03,0.3,0.24,0.38
2.4262008666992188,-0.3,-0.39,-0.14,0.51
2.4360148906707764,-0.43,-0.97,-0.46,1.15
2.451417922973633,-0.61,-1.53,-0.62,1.75
2.455739974975586,-0.56,-2.14,-0.68,2.31
2.4660418033599854,-0.23,-2.78,-0.72,2.88
2.476024866104126,0.06,-3.34,-0.81,3.43
2.4860997200012207,0.26,-3.84,-1.0,3.97
2.501832962036133,0.39,-4.22,-1.21,4.4
2.5057318210601807,0.48,-4.4,-1.3,4.61
2.516089916229248,0.59,-4.34,-1.34,4.58
2.5260238647460938,0.64,-4.09,-1.38,4.36
2.536660671234131,0.57,-3.79,-1.27,4.03
2.5523247718811035,0.49,-3.5,-1.0,3.67
2.5558648109436035,0.47,-3.21,-0.69,3.31
2.5661728382110596,0.52,-2.89,-0.38,2.96
2.5758328437805176,0.58,-2.57,-0.08,2.63
2.58597469329834,0.71,-2.29,0.22,2.4
2.602001905441284,0.85,-2.04,0.47,2.25
2.605923891067505,1.01,-1.69,0.66,2.07
2.6159868240356445,1.24,-1.2,0.86,1.92
2.625762939453125,1.46,-0.59,1.18,1.96
2.6357648372650146,1.52,0.06,1.43,2.08
2.6517739295959473,1.35,0.72,1.73,2.3
2.6558117866516113,1.33,1.22,2.1,2.76
2.665940761566162,1.34,1.37,2.33,3.01
2.6756467819213867,1.22,1.27,2.51,3.06
2.6857666969299316,1.06,1.2,2.45,2.92
2.701873779296875,0.81,1.28,2.18,2.65
2.7059688568115234,0.58,1.46,1.9,2.46
2.7158918380737305,0.46,1.61,1.88,2.51
2.7257347106933594,0.44,1.82,2.24,2.91
2.7356138229370117,0.61,2.5,2.86,3.84
2.7518467903137207,0.7,4.09,3.94,5.72
2.7560319900512695,0.37,5.98,5.05,7.83
2.7658028602600098,-0.18,7.55,2.78,8.04
2.7755579948425293,-0.65,7.99,-1.09,8.09
2.7855868339538574,-0.86,7.4,-3.16,8.09
2.8012218475341797,-0.18,5.96,-3.76,7.04
2.806184768676758,1.87,3.93,-4.55,6.29
2.8158059120178223,-0.81,3.03,-3.44,4.65
2.8256688117980957,-4.06,2.25,-1.07,4.76
2.8355579376220703,-5.91,1.16,0.26,6.02
2.8515067100524902,-6.63,0.55,0.65,6.68
2.8560898303985596,-4.82,0.28,0.44,4.84
2.865691900253296,-2.79,-0.21,0.09,2.79
2.8754286766052246,-1.75,0.07,0.9,1.96
2.885502815246582,-0.43,0.53,1.38,1.53
2.9017138481140137,0.68,0.5,0.39,0.92
2.9052298069000244,1.54,0.0,-1.14,1.91
2.9153847694396973,1.86,-0.8,-1.81,2.71
2.925565719604492,1.31,-1.54,-1.67,2.62
2.9353036880493164,0.59,-2.44,-1.5,2.92
2.9513487815856934,0.29,-3.51,-1.41,3.79
2.955169677734375,0.0,-4.44,-1.41,4.65
2.965463876724243,-0.04,-5.25,-1.77,5.54
2.9753689765930176,-0.26,-5.78,-2.31,6.22
2.9853458404541016,-0.26,-5.92,-2.45,6.41
3.000809907913208,-0.62,-5.89,-2.46,6.41
3.0051779747009277,-0.84,-5.68,-2.47,6.25
3.015263795852661,-0.81,-5.3,-2.4,5.87
3.0253586769104004,-0.74,-4.96,-2.23,5.48
3.0353569984436035,-0.68,-4.63,-1.9,5.05
3.051821708679199,-0.57,-4.15,-1.33,4.39
3.0551047325134277,-0.54,-3.55,-0.62,3.64
3.0654349327087402,-0.75,-2.92,-0.03,3.01
3.0753560066223145,-1.1,-2.18,0.43,2.47
3.0853309631347656,-1.47,-1.46,0.88,2.25
3.101972818374634,-1.63,-0.95,1.14,2.2
3.1049118041992188,-1.58,-0.55,1.02,1.95
3.115396022796631,-1.47,-0.09,0.76,1.65
3.125131845474243,-1.57,0.63,0.68,1.82
3.1352148056030273,-1.72,1.46,0.98,2.45
3.1519107818603516,-1.34,1.84,1.48,2.71
3.1548547744750977,-1.02,1.86,2.22,3.07
3.1653037071228027,-0.72,1.72,2.79,3.35
3.1750760078430176,-0.49,1.55,2.86,3.28
3.185168743133545,-0.55,1.38,2.78,3.15
3.2017459869384766,-0.71,1.14,2.93,3.22
3.20479679107666,-0.97,0.91,3.25,3.51
3.215254783630371,-1.29,1.06,3.66,4.02
3.225156784057617,-1.39,1.84,4.17,4.76
3.235116958618164,-1.4,3.39,4.52,5.82
3.2526607513427734,-1.36,5.29,4.25,6.92
3.2548089027404785,-1.34,7.06,3.63,8.05
3.265289783477783,1.1,7.71,1.65,7.96
3.2749178409576416,3.33,7.35,-1.43,8.19
3.285118818283081,4.07,6.17,-3.88,8.34
3.3018698692321777,3.18,5.06,-4.44,7.44
3.304823875427246,2.01,4.15,-3.89,6.03
3.315220832824707,2.25,2.37,-3.76,4.98
3.324950695037842,1.28,0.34,-3.21,3.47
3.335024833679199,0.34,-0.69,-0.84,1.13
3.351982831954956,0.88,-1.01,1.19,1.79
3.354747772216797,1.8,-0.71,1.29,2.32
3.3651418685913086,2.5,-0.36,0.09,2.52
3.3748669624328613,2.28,0.22,-0.66,2.38
3.3849267959594727,1.87,0.91,-0.73,2.2
3.4019548892974854,1.12,1.36,-0.49,1.82
3.404573917388916,0.02,1.29,-0.3,1.32
3.414793014526367,-0.95,0.66,-0.05,1.15
3.4248178005218506,-0.89,-0.48,-0.58,1.16
3.4349498748779297,-0.32,-1.64,-1.75,2.41
3.4523539543151855,0.22,-2.83,-2.72,3.93
3.4545319080352783,0.26,-3.75,-2.71,4.63
3.4647037982940674,0.05,-4.4,-1.84,4.76
3.4747047424316406,0.17,-5.0,-1.13,5.12
3.484807014465332,0.32,-5.53,-1.17,5.66
3.5016427040100098,0.25,-5.84,-1.68,6.08
3.504591941833496,0.12,-5.83,-2.11,6.2
3.514727830886841,-0.06,-5.7,-2.2,6.11
3.524740695953369,-0.1,-5.48,-2.05,5.85
3.5347347259521484,-0.04,-5.16,-1.81,5.46
3.552046775817871,-0.07,-4.62,-1.47,4.84
3.5544567108154297,-0.12,-3.86,-0.92,3.96
3.564631938934326,0.1,-3.06,-0.32,3.07
3.5746359825134277,0.49,-2.25,0.14,2.3
3.5847718715667725,0.97,-1.42,0.46,1.78
3.6013827323913574,1.47,-0.55,0.59,1.67
3.6045618057250977,1.69,0.23,0.63,1.81
3.61446475982666,1.63,0.89,0.77,2.01
3.6245648860931396,1.45,1.42,1.09,2.3
3.6345996856689453,1.32,1.65,1.51,2.59
3.651878833770752,1.42,1.5,1.82,2.75
3.6543798446655273,1.57,1.3,2.08,2.91
3.6644906997680664,1.36,1.14,2.46,3.03
3.6743826866149902,1.03,1.14,2.63,3.04
3.6845970153808594,0.88,1.29,2.36,2.82
3.702152729034424,0.7,1.41,1.95,2.5
3.7043778896331787,0.41,1.54,2.06,2.6
3.714366912841797,0.41,1.86,2.55,3.18
3.7244157791137695,0.36,2.92,3.26,4.39
3.7345356941223145,0.57,4.76,4.4,6.5
3.7525219917297363,0.49,6.49,3.5,7.38
3.7542788982391357,-0.38,7.2,0.61,7.23
3.7643778324127197,-1.46,7.03,-1.85,7.41
3.774411678314209,-2.1,5.89,-3.51,7.17
3.784653902053833,-2.08,4.71,-3.99,6.51
3.8028109073638916,1.74,4.61,-3.13,5.83
3.804304838180542,-0.33,3.37,-3.61,4.94
3.8142848014831543,-4.36,1.9,-1.88,5.11
3.8244738578796387,-5.97,1.01,0.78,6.1
3.8345227241516113,-5.89,1.01,2.44,6.45
3.8527417182922363,-3.84,1.11,2.1,4.51
3.854109764099121,-2.05,1.05,1.22,2.6
3.8642778396606445,-1.19,1.25,1.02,2.0
3.874560832977295,-0.18,1.29,0.53,1.4
3.8844878673553467,1.13,1.16,-0.29,1.64
3.902737855911255,2.22,0.9,-1.12,2.64
3.904057025909424,1.92,0.19,-1.72,2.58
3.9141528606414795,0.67,-0.67,-1.76,1.99
3.9246668815612793,0.25,-1.58,-1.57,2.24
3.9343438148498535,0.03,-2.78,-1.51,3.16
3.9529337882995605,-0.29,-3.95,-1.6,4.27
3.9539599418640137,-0.52,-4.92,-1.87,5.28
3.964056968688965,-0.74,-5.63,-2.2,6.08
3.974738836288452,-0.87,-6.04,-2.48,6.58
3.984379768371582,-0.71,-6.11,-2.6,6.67
4.002968788146973,-0.24,-5.69,-2.49,6.21
4.003911972045898,-0.46,-5.3,-2.48,5.86
4.014034748077393,-0.41,-4.97,-2.37,5.52
4.024878978729248,-0.2,-4.59,-2.19,5.08
4.034318923950195,-0.18,-4.14,-1.98,4.59
4.053813934326172,-0.26,-3.67,-1.58,4.0
4.054490804672241,-0.32,-3.17,-1.16,3.39
4.064034938812256,-0.55,-2.66,-0.74,2.81
4.075002908706665,-1.01,-2.19,-0.2,2.41
4.084249973297119,-1.37,-1.66,0.38,2.18
4.103234767913818,-1.58,-1.07,0.67,2.02
4.10390567779541,-1.7,-0.33,0.76,1.89
4.11392879486084,-1.78,0.57,0.83,2.04
4.1238179206848145,-1.89,1.43,1.14,2.62
4.137251853942871,-1.4,1.78,1.64,2.79
4.143848896026611,-0.98,1.78,1.98,2.83
4.153862953186035,-0.58,1.68,2.13,2.77
4.163933753967285,-0.28,1.64,2.1,2.67
4.1740028858184814,-0.45,1.38,2.18,2.61
4.1888108253479,-0.7,0.99,2.51,2.78
4.193778991699219,-1.04,0.98,2.93,3.25
4.203848838806152,-1.47,1.7,3.48,4.14
4.214033842086792,-1.73,2.99,4.06,5.33
4.2239837646484375,-2.02,4.49,4.55,6.7
4.238961696624756,-2.33,6.38,4.81,8.32
4.24363374710083,-0.58,7.24,3.29,7.97
4.253695964813232,1.37,7.29,0.4,7.42
4.263973712921143,3.43,6.63,-2.37,7.83
4.273849010467529,4.63,5.19,-4.47,8.26
4.288827896118164,3.95,4.01,-5.1,7.59
4.293576717376709,3.02,3.1,-4.72,6.4
4.303717851638794,1.53,2.15,-3.06,4.04
4.314069747924805,0.66,0.83,-0.45,1.15
4.323868751525879,0.56,-0.25,1.89,1.98
4.339873790740967,1.62,-0.87,2.31,2.95
4.343704700469971,2.93,-0.58,1.09,3.17
4.35366678237915,3.54,-0.39,-0.03,3.56
4.3638739585876465,3.15,0.03,-0.36,3.17
4.373744964599609,1.66,0.97,-0.17,1.93
4.388770818710327,0.39,1.68,0.01,1.72
4.393568992614746,-1.11,1.39,-0.16,1.78
4.403588771820068,-1.68,0.08,-1.01,1.96
4.413756847381592,-1.57,-1.19,-2.05,2.84
4.4237236976623535,-0.99,-2.42,-2.45,3.58
4.438817024230957,-0.14,-3.63,-2.13,4.21
4.44361686706543,-0.13,-4.62,-1.56,4.87
4.453511714935303,-0.25,-5.28,-1.21,5.42
4.463857889175415,-0.05,-5.68,-1.43,5.85
4.473611831665039,-0.07,-6.01,-1.88,6.29
4.489264011383057,-0.04,-6.17,-2.13,6.52
4.493347883224487,-0.35,-6.01,-2.32,6.45
4.503427982330322,-0.7,-5.58,-2.38,6.1
4.513656854629517,-0.64,-4.94,-2.17,5.43
4.523644924163818,-0.48,-4.29,-1.97,4.74
4.538951873779297,-0.16,-3.59,-1.71,3.97
4.543447017669678,0.27,-2.97,-1.21,3.21
4.553383827209473,0.68,-2.36,-0.55,2.51
4.563661813735962,1.26,-1.7,0.21,2.12
4.573539733886719,1.75,-1.08,0.87,2.23
4.589026927947998,2.04,-0.56,1.11,2.38
4.593202829360962,2.18,0.11,1.17,2.47
4.60332179069519,2.01,0.94,1.34,2.59
4.613572835922241,1.52,1.7,1.61,2.79
4.623481750488281,1.14,2.03,1.87,2.98
4.638988971710205,1.38,2.0,2.12,3.22
4.643383026123047,1.39,1.8,2.5,3.37
4.65321683883667,1.22,1.5,2.68,3.3
4.663478851318359,0.92,1.44,2.57,3.08
4.673439979553223,0.79,1.43,2.49,2.97
4.689056873321533,0.73,1.39,2.47,2.92
4.693042755126953,0.61,1.52,2.83,3.26
4.70322585105896,0.6,2.07,3.5,4.11
4.713428974151611,0.71,3.06,3.93,5.03
4.723351001739502,0.99,4.39,4.58,6.42
4.738803863525391,0.82,5.78,4.11,7.13
4.743017673492432,-0.14,6.47,1.3,6.6
4.753139972686768,-0.87,6.91,-2.14,7.28
4.763261795043945,-1.17,6.63,-4.23,7.95
4.773336887359619,-2.55,4.86,-4.64,7.18
4.788274765014648,0.14,3.97,-3.3,5.16
4.792951822280884,1.36,2.81,-2.6,4.06
4.803080797195435,-1.89,1.24,-1.51,2.71
4.813110828399658,-3.61,0.04,0.19,3.61
4.8231587409973145,-4.18,-0.31,1.33,4.39
4.838412761688232,-3.67,0.42,1.74,4.08
4.842893838882446,-2.48,0.81,1.01,2.79
4.853155851364136,-1.87,1.18,0.6,2.29
4.863059997558594,-0.96,1.76,0.46,2.05
4.873197793960571,0.11,2.09,0.07,2.09
4.888568878173828,1.26,2.03,-0.72,2.49
4.892959833145142,1.48,1.31,-1.51,2.48
4.9030656814575195,0.88,0.17,-1.8,2.01
4.913025856018066,0.95,-0.97,-1.56,2.06
4.92304801940918,0.55,-2.31,-1.27,2.69
4.938520908355713,-0.05,-3.63,-1.19,3.82
4.943167686462402,-0.36,-4.66,-1.45,4.89
4.953099727630615,-0.53,-5.42,-1.87,5.75
4.963245868682861,-0.58,-5.85,-2.2,6.27
4.973001003265381,-0.34,-6.0,-2.41,6.47
4.98902702331543,-0.42,-6.07,-2.64,6.63
4.993106842041016,-0.34,-5.94,-2.76,6.55
5.003054857254028,-0.31,-5.51,-2.82,6.19
5.012890815734863,-0.2,-4.91,-2.7,5.6
5.023040771484375,-0.02,-4.43,-2.34,5.01
5.038520812988281,-0.05,-4.05,-1.9,4.47
5.043205738067627,-0.15,-3.63,-1.48,3.92
5.052880764007568,-0.25,-3.13,-0.94,3.27
5.062873840332031,-0.48,-2.59,-0.3,2.65
5.072945833206177,-0.74,-2.1,0.36,2.25
5.088533878326416,-0.98,-1.59,0.85,2.05
5.093335866928101,-1.12,-0.93,1.04,1.78
5.102857828140259,-1.11,-0.19,1.15,1.6
5.112563848495483,-1.2,0.63,1.44,1.97
5.1229188442230225,-1.83,1.47,1.98,3.07
5.138852834701538,-1.36,1.95,2.31,3.31
5.143395900726318,-0.75,2.06,2.32,3.19
5.152719020843506,-0.1,2.2,2.22,3.12
5.162572860717773,-0.26,2.31,1.94,3.02
5.172736883163452,-0.66,2.28,1.98,3.09
5.188817024230957,-1.11,1.94,2.46,3.32
5.192525863647461,-1.5,1.63,3.36,4.02
5.202783823013306,-1.68,1.81,4.4,5.04
5.212533950805664,-1.56,2.67,5.15,6.0
5.222851753234863,-1.4,4.27,5.23,6.89
5.239123821258545,-1.48,6.35,4.97,8.19
5.242578983306885,-1.11,7.17,3.32,7.97
5.252631902694702,1.19,6.71,0.28,6.82
5.262449741363525,3.1,6.07,-2.71,7.33
5.272799015045166,4.77,5.41,-4.04,8.26
5.288959980010986,3.1,4.53,-3.9,6.73
5.292444705963135,2.25,3.02,-3.4,5.07
5.302595853805542,1.19,0.84,-2.5,2.89
5.312463760375977,0.07,-1.19,-0.67,1.36
5.322772026062012,0.13,-2.41,0.92,2.58
5.339382886886597,1.02,-2.32,1.09,2.75
5.342313766479492,2.04,-1.39,0.42,2.5
5.3525919914245605,2.81,-0.56,-0.34,2.88
5.362311840057373,3.0,0.4,-0.95,3.17
5.372663974761963,2.66,1.47,-1.27,3.29
5.3892388343811035,2.08,2.24,-1.16,3.26
5.392391681671143,1.39,2.21,-0.91,2.76
5.402596950531006,0.19,1.14,-0.93,1.48
5.412453889846802,-0.92,-0.15,-1.05,1.4
5.422635793685913,-0.84,-1.31,-1.2,1.96
5.439520835876465,-0.38,-2.55,-1.38,2.92
5.442174911499023,-0.25,-3.71,-1.51,4.01
5.45237398147583,-0.22,-4.48,-1.39,4.69
5.462214946746826,0.07,-4.86,-1.4,5.05
5.472559928894043,0.45,-5.17,-1.54,5.41
5.489544868469238,0.2,-5.56,-1.86,5.86
5.492096900939941,0.17,-5.61,-2.04,5.97
5.50230073928833,-0.04,-5.3,-2.07,5.69
5.512216806411743,-0.22,-4.92,-1.86,5.26
5.522436857223511,-0.27,-4.47,-1.61,4.75
5.53996467590332,-0.16,-3.93,-1.29,4.13
5.542114734649658,0.1,-3.35,-0.87,3.46
5.55222487449646,0.49,-2.78,-0.47,2.86
5.562085866928101,0.8,-2.25,-0.09,2.38
5.572467803955078,1.15,-1.64,0.32,2.02
5.58993673324585,1.51,-0.92,0.73,1.91
5.592017889022827,1.67,-0.16,1.05,1.97
5.602231979370117,1.75,0.55,1.3,2.24
5.612121820449829,1.62,1.13,1.41,2.42
5.622392892837524,1.48,1.57,1.44,2.59
5.640399932861328,1.56,1.72,1.45,2.73
5.641963958740234,1.43,1.53,1.67,2.67
5.652148723602295,1.02,1.29,2.17,2.72
5.66194486618042,0.77,1.25,2.51,2.9
5.6723668575286865,0.61,1.26,2.37,2.75
5.690591812133789,0.45,1.24,2.07,2.45
5.691880702972412,0.38,1.05,2.09,2.36
5.702071905136108,0.32,1.24,2.35,2.67
5.711870908737183,0.59,2.19,2.87,3.65
5.722259998321533,1.15,3.82,3.95,5.61
5.740350723266602,0.42,5.74,3.61,6.79
5.741821765899658,-0.13,7.47,1.18,7.56
5.752017021179199,0.93,8.0,-0.87,8.1
5.761768817901611,-3.19,6.07,-3.44,7.67
5.772239685058594,-3.83,5.53,-3.99,7.82
5.79036283493042,-0.32,5.57,-2.92,6.29
5.791756868362427,-0.09,4.89,-2.92,5.69
5.801963806152344,-1.43,3.85,-3.05,5.11
5.8118157386779785,-4.64,1.78,-1.67,5.24
5.822160720825195,-6.9,0.04,0.77,6.94
5.840523719787598,-5.19,-0.4,2.45,5.75
5.841692924499512,-2.58,-0.34,2.42,3.55
5.851923942565918,-0.98,-0.15,2.01,2.24
5.861684799194336,0.17,0.16,1.09,1.11
5.87211799621582,0.82,0.53,-0.13,0.98
5.890550851821899,1.72,0.75,-1.42,2.35
5.891664981842041,2.58,0.44,-2.11,3.36
5.901831865310669,2.22,-0.4,-2.07,3.06
5.911684989929199,1.06,-1.47,-1.76,2.52
5.921976804733276,0.1,-2.53,-1.36,2.87
5.940706729888916,-0.43,-3.6,-1.25,3.83
5.941712856292725,-0.42,-4.52,-1.6,4.81
5.951824903488159,-0.63,-5.21,-2.27,5.71
5.961557865142822,-0.92,-5.72,-2.71,6.39
5.972030878067017,-1.03,-5.95,-2.78,6.64
5.990969896316528,-0.98,-5.85,-2.73,6.52
5.991633892059326,-0.55,-5.49,-2.46,6.04
6.001788854598999,-0.42,-5.15,-2.34,5.67
6.0114970207214355,-0.61,-4.83,-2.22,5.35
6.021908760070801,-0.56,-4.4,-1.89,4.82
6.041100978851318,-0.4,-3.94,-1.41,4.2
6.041761875152588,-0.39,-3.39,-0.83,3.51
6.051692962646484,-0.6,-2.73,-0.33,2.81
6.061516761779785,-0.96,-2.07,0.13,2.28
6.0719499588012695,-1.36,-1.4,0.47,2.0
6.091179847717285,-1.58,-0.73,0.63,1.85
6.091839790344238,-1.6,-0.02,0.64,1.72
6.1015777587890625,-1.56,0.79,0.71,1.88
6.1113739013671875,-1.9,1.6,1.06,2.7
6.121891975402832,-1.76,2.09,1.47,3.1
6.141065835952759,-1.06,2.19,1.7,2.96
6.141707897186279,-0.76,2.0,1.73,2.75
6.151518821716309,-0.63,1.92,1.95,2.8
6.161424875259399,-0.52,1.85,2.35,3.03
6.171889781951904,-0.82,1.53,2.41,2.97
6.191131830215454,-1.05,1.32,2.62,3.11
6.191758871078491,-1.45,1.59,3.4,4.02
6.201429843902588,-1.56,2.34,4.47,5.28
6.2114996910095215,-1.47,3.5,5.07,6.33
6.221596717834473,-1.18,4.88,4.59,6.8
6.2417638301849365,-1.06,6.08,3.29,6.99
6.242406845092773,0.17,6.8,1.24,6.91
6.251436710357666,2.57,6.47,-1.81,7.19
6.261651992797852,4.11,5.33,-4.21,7.93
6.27173376083374,3.21,3.97,-4.87,7.05
6.291290760040283,1.89,3.16,-3.9,5.36
6.291923999786377,1.33,1.91,-2.71,3.57
6.301340818405151,0.69,0.22,-1.36,1.54
6.311787843704224,0.42,-0.82,0.43,1.01
6.321630954742432,1.3,-1.04,1.55,2.27
6.341187953948975,2.55,-0.39,1.3,2.88
6.341695785522461,3.46,0.39,0.22,3.48
6.3512187004089355,3.52,1.0,-0.61,3.7
6.361742973327637,2.73,1.89,-0.69,3.39
6.3713250160217285,1.65,2.69,-0.34,3.17
6.391358852386475,0.3,2.56,-0.08,2.57
6.3918797969818115,-0.9,1.44,-0.44,1.75
6.401697874069214,-0.82,-0.07,-1.42,1.64
6.411121845245361,-0.57,-1.43,-2.03,2.54
6.421262741088867,-0.48,-2.63,-1.68,3.15
6.441867828369141,-0.76,-3.53,-0.79,3.69
6.4425208568573,-0.61,-4.31,-0.5,4.38
6.451182842254639,-0.22,-4.98,-0.93,5.07
6.461098670959473,-0.05,-5.53,-1.52,5.73
6.47144889831543,-0.05,-5.86,-2.04,6.2
6.491743803024292,-0.19,-6.02,-2.43,6.49
6.492373943328857,-0.12,-5.88,-2.56,6.41
6.501133918762207,-0.05,-5.45,-2.55,6.01
6.511049747467041,0.14,-4.8,-2.42,5.37
6.521408796310425,0.24,-4.2,-2.21,4.75
6.542105674743652,0.44,-3.63,-1.9,4.12
6.5427327156066895,0.69,-3.06,-1.48,3.46
6.551056861877441,0.96,-2.45,-0.93,2.79
6.56109094619751,1.32,-1.89,-0.28,2.32
6.571119785308838,1.54,-1.49,0.18,2.15
6.5920000076293945,1.64,-1.05,0.52,2.01
6.592634677886963,1.86,-0.38,0.76,2.04
6.601172924041748,2.06,0.46,0.97,2.32
6.610948801040649,1.86,1.13,1.37,2.57
6.621097803115845,1.47,1.42,1.85,2.75
6.641978740692139,1.38,1.51,2.23,3.02
6.642620801925659,1.21,1.58,2.48,3.17
6.650959014892578,0.87,1.55,2.7,3.23
6.6611127853393555,0.8,1.62,2.76,3.29
6.670979022979736,0.9,1.78,2.67,3.33
6.691988945007324,0.95,1.83,2.62,3.33
6.692608833312988,0.96,2.07,2.98,3.75
6.701140880584717,0.92,2.75,3.49,4.53
6.710890769958496,0.68,3.87,4.01,5.61
6.720823764801025,0.6,5.27,4.75,7.12
6.742158889770508,0.5,6.56,4.25,7.83
6.742808818817139,-0.23,7.18,1.51,7.34
6.750839710235596,-0.73,6.99,-1.7,7.23
6.760865688323975,-0.99,5.71,-3.76,6.9
6.770799875259399,-1.89,4.39,-3.86,6.14
6.791872978210449,0.34,4.03,-2.08,4.54
6.792406797409058,0.35,2.95,-1.84,3.49
6.800873756408691,-2.62,1.52,-1.68,3.46
6.810818672180176,-4.6,0.14,-0.61,4.64
6.820827007293701,-4.92,-0.39,0.22,4.94
6.841782808303833,-4.04,0.16,0.73,4.1
6.842309951782227,-2.74,0.41,0.65,2.84
6.85084080696106,-1.72,0.56,0.44,1.86
6.8607587814331055,-0.79,0.91,0.47,1.29
6.870753765106201,0.25,1.01,0.15,1.05
6.891974925994873,1.38,0.81,-0.66,1.73
6.892469882965088,2.13,0.3,-1.6,2.68
6.900738716125488,1.85,-0.78,-2.23,3.0
6.910599708557129,1.29,-1.92,-2.21,3.19
6.920693874359131,0.57,-2.99,-1.8,3.53
6.942103862762451,-0.15,-3.95,-1.47,4.21
6.94262170791626,-0.39,-4.76,-1.57,5.02
6.950596809387207,-0.53,-5.38,-2.06,5.78
6.9606099128723145,-0.72,-5.82,-2.52,6.38
6.970634937286377,-0.54,-5.95,-2.69,6.55
6.9929280281066895,-0.34,-5.74,-2.67,6.33
6.9934937953948975,-0.47,-5.28,-2.66,5.93
7.000574827194214,-0.33,-4.67,-2.4,5.26
7.0106120109558105,-0.29,-4.06,-2.09,4.57
7.020604848861694,-0.35,-3.59,-1.82,4.04
7.042299747467041,-0.35,-3.26,-1.48,3.59
7.04283881187439,-0.32,-2.93,-0.99,3.1
7.050444841384888,-0.54,-2.53,-0.44,2.62
7.060544967651367,-0.88,-2.01,0.01,2.19
7.0705108642578125,-1.26,-1.52,0.32,2.0
7.092455863952637,-1.49,-0.98,0.54,1.86
7.092953681945801,-1.61,-0.3,0.76,1.8
7.100473880767822,-1.66,0.45,1.04,2.0
7.110500812530518,-1.47,1.19,1.41,2.35
7.120477676391602,-1.26,1.66,1.88,2.8
7.1423187255859375,-1.14,1.95,2.18,3.13
7.142800807952881,-0.87,2.14,2.15,3.15
7.150468826293945,-0.48,2.17,2.1,3.05
7.160373687744141,-0.37,2.01,2.28,3.06
7.170347690582275,-0.64,1.76,2.4,3.04
7.193436861038208,-0.89,1.53,2.67,3.2
7.193933963775635,-0.94,1.41,3.16,3.58
7.200356960296631,-1.12,1.84,3.84,4.4
7.210305690765381,-1.3,2.62,4.46,5.33
7.220332860946655,-1.06,3.53,4.68,5.95
7.242924690246582,-0.83,4.57,4.27,6.3
7.243443012237549,-1.39,5.26,3.17,6.29
7.250269889831543,0.37,5.47,1.11,5.59
7.260236740112305,2.96,5.31,-1.5,6.26
7.270267009735107,4.04,4.74,-3.55,7.16
7.293531894683838,2.72,3.87,-4.3,6.39
7.29404878616333,1.8,3.13,-3.94,5.34
7.300110816955566,1.37,2.0,-3.53,4.28
7.31017279624939,0.49,0.53,-2.57,2.66
7.32021689414978,0.0,-0.58,-0.69,0.9
7.343135833740234,0.77,-1.12,0.73,1.54
7.34365177154541,1.84,-0.98,0.85,2.25
7.3501598834991455,2.64,-0.54,0.07,2.69
7.3601179122924805,2.91,0.05,-0.54,2.96
7.370147705078125,2.69,0.91,-0.81,2.95
7.393610954284668,1.68,1.82,-0.69,2.57
7.394146919250488,0.5,2.07,-0.43,2.17
7.400094985961914,-0.23,1.32,-0.4,1.39
7.4100518226623535,-1.13,0.12,-0.71,1.33
7.420118808746338,-1.19,-1.05,-1.12,1.94
7.443351745605469,-0.58,-2.17,-1.31,2.6
7.443856716156006,-0.29,-3.22,-1.27,3.47
7.450157880783081,-0.14,-3.94,-1.08,4.08
7.459935903549194,0.13,-4.41,-1.03,4.53
7.470103740692139,0.27,-4.79,-1.35,4.98
7.493600845336914,-0.1,-5.18,-1.88,5.51
7.494120836257935,-0.18,-5.34,-2.12,5.74
7.500146865844727,-0.33,-5.28,-2.07,5.68
7.5099358558654785,-0.46,-4.94,-1.87,5.3
7.5200958251953125,-0.45,-4.5,-1.62,4.8
7.543534755706787,-0.37,-4.07,-1.35,4.3
7.544045925140381,-0.25,-3.62,-1.1,3.79
7.5498528480529785,0.0,-3.12,-0.85,3.23
7.559832811355591,0.36,-2.55,-0.42,2.6
7.569893836975098,0.64,-1.93,0.18,2.04
7.59346079826355,1.01,-1.26,0.8,1.8
7.5939507484436035,1.49,-0.61,1.24,2.03
7.5997467041015625,1.71,0.05,1.44,2.23
7.609737873077393,1.78,0.66,1.48,2.4
7.619840860366821,1.78,1.16,1.45,2.57
7.629690885543823,1.59,1.41,1.32,2.5
7.644168853759766,1.75,1.7,1.35,2.78
7.64988899230957,1.58,1.87,1.76,3.01
7.660037994384766,1.01,1.88,2.15,3.02
7.669749736785889,0.67,1.97,2.27,3.07
7.680015802383423,0.65,2.22,2.37,3.31
7.6955180168151855,0.64,2.38,2.52,3.52
7.6996660232543945,0.36,2.32,2.76,3.62
7.709644794464111,0.67,2.72,3.43,4.42
7.7197558879852295,1.32,3.79,4.72,6.19
7.729846000671387,0.96,5.35,4.74,7.21
7.745553016662598,0.41,6.77,2.55,7.24
7.749724864959717,-0.26,7.23,-0.57,7.25
7.759624004364014,-0.49,7.19,-3.01,7.81
7.7696967124938965,-1.16,6.13,-4.32,7.58
7.779574871063232,-1.69,4.78,-4.2,6.58
7.794397830963135,0.74,4.0,-2.65,4.85
7.799689769744873,-0.78,2.25,-1.91,3.05
7.809548854827881,-3.55,0.13,-0.88,3.65
7.819639682769775,-4.88,-1.69,0.48,5.18
7.829826831817627,-4.25,-1.98,1.3,4.86
7.845592021942139,-2.7,-1.21,1.03,3.13
7.84971284866333,-2.32,-0.65,0.39,2.44
7.859496831893921,-1.86,0.16,0.04,1.86
7.869556903839111,-0.74,0.73,-0.44,1.12
7.879680871963501,0.46,0.98,-1.07,1.52
7.89439582824707,1.57,1.02,-1.64,2.48
7.899419784545898,1.77,0.3,-2.04,2.71
7.909465789794922,1.14,-0.93,-2.11,2.57
7.919474840164185,0.67,-1.92,-1.88,2.76
7.9293718338012695,0.3,-2.87,-1.73,3.36
7.944652795791626,-0.09,-3.73,-1.81,4.14
7.949498891830444,-0.52,-4.5,-2.02,4.95
7.959390878677368,-0.65,-5.04,-2.19,5.53
7.969433784484863,-0.56,-5.31,-2.29,5.8
7.9793219566345215,-0.1,-5.37,-2.21,5.8
7.9945127964019775,-0.2,-5.32,-2.24,5.77
7.999181747436523,-0.33,-5.09,-2.23,5.56
8.009320735931396,-0.22,-4.67,-2.0,5.08
8.019377708435059,-0.15,-4.22,-1.7,4.55
8.029347896575928,-0.14,-3.73,-1.35,3.96
8.044637680053711,-0.29,-3.16,-0.95,3.31
8.049299716949463,-0.57,-2.58,-0.42,2.67
8.059314727783203,-0.89,-2.05,0.15,2.23
8.069355010986328,-1.22,-1.65,0.69,2.16
8.079327821731567,-1.34,-1.31,1.07,2.15
8.094928741455078,-1.45,-0.89,1.04,1.99
8.099210739135742,-1.51,-0.32,0.94,1.8
8.109218835830688,-1.62,0.39,0.96,1.92
8.119167804718018,-1.53,1.07,1.32,2.28
8.129059791564941,-1.23,1.55,1.91,2.75
8.144320011138916,-0.74,1.88,2.26,3.03
8.14902400970459,-0.54,2.04,2.19,3.04
8.159199714660645,-0.59,2.09,1.96,2.92
8.169212818145752,-0.71,1.99,1.93,2.86
8.179158687591553,-0.87,1.67,2.4,3.05
8.194898843765259,-1.08,1.36,3.22,3.65
8.199151992797852,-1.23,1.56,4.04,4.5
8.209065914154053,-1.36,2.49,4.62,5.42
8.219003677368164,-1.38,3.78,4.76,6.23
8.228947877883911,-1.09,5.35,4.28,6.93
8.242844820022583,-1.12,6.47,2.92,7.18
8.248781681060791,0.89,6.79,0.58,6.87
8.259041786193848,2.91,6.3,-2.17,7.27
8.268911838531494,3.92,5.19,-4.01,7.64
8.279032707214355,3.05,3.96,-4.55,6.75
8.293920993804932,2.11,2.96,-3.81,5.26
8.298743724822998,1.12,1.54,-2.47,3.11
8.308810710906982,0.28,-0.13,-0.96,1.0
8.319053888320923,-0.16,-1.2,0.6,1.35
8.328962802886963,0.43,-1.3,1.39,1.95
8.344725847244263,1.48,-0.8,0.77,1.85
8.348701000213623,2.34,-0.26,-0.25,2.36
8.35884690284729,2.77,0.61,-0.97,2.99
8.369011878967285,2.42,1.54,-1.43,3.2
8.378947734832764,1.89,2.02,-1.46,3.12
8.395237922668457,1.33,1.67,-1.07,2.38
8.398653984069824,0.19,0.58,-0.8,1.0
8.408989906311035,-0.65,-0.55,-0.63,1.05
8.418933868408203,-0.8,-1.7,-0.66,1.99
8.428837776184082,-0.53,-2.84,-0.95,3.04
8.44595980644226,-0.64,-3.79,-1.19,4.02
8.448741912841797,-0.5,-4.39,-1.18,4.57
8.458979845046997,-0.08,-4.75,-1.2,4.89
8.468719959259033,0.4,-5.01,-1.35,5.2
8.4787917137146,0.11,-5.36,-1.78,5.64
8.49572467803955,0.11,-5.38,-2.0,5.74
8.498989820480347,0.15,-5.14,-1.96,5.5
8.508840799331665,0.11,-4.82,-1.9,5.18
8.518658876419067,0.23,-4.3,-1.87,4.69
8.528729915618896,0.43,-3.74,-1.7,4.13
8.546177864074707,0.53,-3.2,-1.35,3.51
8.548925876617432,0.63,-2.74,-0.85,2.93
8.558825969696045,0.77,-2.31,-0.3,2.45
8.568538904190063,0.94,-1.85,0.13,2.07
8.57859992980957,1.16,-1.34,0.34,1.8
8.596765995025635,1.34,-0.7,0.53,1.6
8.598991870880127,1.43,0.04,0.89,1.68
8.608847856521606,1.36,0.81,1.29,2.04
8.618634700775146,1.32,1.54,1.69,2.64
8.62859296798706,1.39,1.97,1.9,3.06
8.645755767822266,1.5,2.07,1.9,3.18
8.649057865142822,1.39,2.06,2.08,3.24
8.658646821975708,1.07,1.95,2.46,3.31
8.668501853942871,0.75,1.83,2.64,3.29
8.678599834442139,0.57,1.89,2.56,3.23
8.695022821426392,0.67,2.01,2.64,3.38
8.698250770568848,0.89,2.57,3.13,4.14
8.708427906036377,1.12,3.48,4.11,5.5
8.718262672424316,0.75,4.72,4.58,6.61
8.728439807891846,-0.02,5.98,2.92,6.65
8.745133876800537,-0.37,6.71,-0.13,6.72
8.748416900634766,0.31,6.65,-2.37,7.06
8.758460998535156,-2.18,4.9,-4.3,6.87
8.768335819244385,-2.48,4.12,-3.74,6.09
8.778471946716309,-0.86,3.54,-1.82,4.07
8.7962327003479,-0.5,2.53,-0.6,2.64
8.798341751098633,-2.31,1.34,-0.48,2.71
8.808498859405518,-4.02,0.11,-0.13,4.02
8.818327903747559,-5.26,-0.5,0.43,5.3
8.828413963317871,-4.15,-0.03,0.85,4.23
8.84633183479309,-2.56,0.45,0.79,2.71
8.84811782836914,-1.58,0.79,0.76,1.92
8.85851001739502,-0.57,0.98,0.29,1.17
8.868206024169922,0.49,0.97,-0.66,1.27
8.878341674804688,1.45,0.65,-1.65,2.29
8.896212816238403,1.69,-0.17,-2.12,2.71
8.898036003112793,1.24,-1.17,-2.12,2.72
8.908154010772705,0.66,-2.15,-1.8,2.88
8.918566703796387,0.0,-3.09,-1.67,3.51
8.928241729736328,-0.42,-3.94,-1.74,4.32
8.945482730865479,-0.62,-4.64,-1.87,5.04
8.947937965393066,-0.65,-5.14,-2.14,5.6
8.958200931549072,-0.68,-5.44,-2.4,5.98
8.968250751495361,-0.68,-5.41,-2.49,5.99
8.978205680847168,-0.6,-5.1,-2.44,5.68
8.996588706970215,-0.49,-4.69,-2.27,5.23
8.997959852218628,-0.34,-4.2,-1.99,4.66
9.008296966552734,-0.24,-3.73,-1.69,4.1
9.01807188987732,-0.21,-3.32,-1.38,3.6
9.028156757354736,-0.29,-2.89,-1.01,3.07
9.046758890151978,-0.44,-2.36,-0.47,2.44
9.04782485961914,-0.64,-1.88,0.12,1.98
9.058039903640747,-0.92,-1.46,0.56,1.81
9.06801986694336,-1.07,-1.2,0.75,1.77
9.078084945678711,-1.12,-1.01,0.81,1.71
9.096162796020508,-1.28,-0.64,0.79,1.63
9.09794569015503,-1.56,-0.06,0.68,1.7
9.108065843582153,-1.77,0.68,0.88,2.09
9.117990016937256,-1.75,1.35,1.44,2.63
9.128100872039795,-1.52,1.68,2.06,3.06
9.146121978759766,-1.2,1.8,2.3,3.15
9.147732734680176,-0.95,1.98,2.11,3.04
9.157933712005615,-0.88,2.03,1.91,2.92
9.167812824249268,-0.82,1.77,1.91,2.73
9.177904844284058,-0.81,1.49,2.14,2.73
9.196452856063843,-1.23,1.3,2.82,3.33
9.19772982597351,-1.51,1.59,3.81,4.39
9.207874774932861,-1.36,2.37,4.34,5.12
9.217808723449707,-1.31,3.51,4.21,5.63
9.227887868881226,-1.0,4.78,3.67,6.1
9.246504783630371,-0.08,5.43,2.28,5.88
9.247642993927002,1.54,5.71,-0.02,5.91
9.257876873016357,3.02,5.72,-2.25,6.84
9.267812728881836,3.51,5.0,-3.73,7.15
9.277861833572388,3.13,4.21,-4.24,6.74
9.294729709625244,1.62,3.28,-3.81,5.28
9.297707796096802,-0.08,1.69,-3.05,3.48
9.307755947113037,0.17,-0.13,-2.02,2.03
9.317620754241943,1.9,-1.02,0.37,2.18
9.327643871307373,2.46,-0.97,1.82,3.21
9.345204830169678,2.2,-0.57,1.05,2.5
9.347423791885376,2.58,0.1,0.17,2.58
9.357712745666504,2.57,1.24,-0.19,2.85
9.367486000061035,1.94,2.38,-0.48,3.1
9.37752890586853,0.96,2.82,-0.64,3.04
9.395667791366577,0.32,2.17,-0.72,2.3
9.397496700286865,-0.25,0.96,-1.05,1.44
9.407609939575195,-0.8,-0.34,-1.28,1.54
9.417446851730347,-0.62,-1.58,-1.04,1.99
9.427542686462402,-0.21,-2.62,-0.72,2.72
9.446844816207886,-0.15,-3.43,-0.67,3.49
9.447466850280762,0.08,-3.97,-0.9,4.07
9.45754885673523,0.36,-4.42,-1.22,4.59
9.467505931854248,0.21,-4.91,-1.63,5.17
9.477725982666016,-0.1,-5.38,-1.96,5.72
9.496661901473999,-0.06,-5.58,-2.03,5.93
9.497340679168701,-0.06,-5.4,-1.95,5.74
9.507514953613281,-0.14,-4.79,-1.94,5.16
9.517375946044922,-0.2,-4.11,-1.74,4.46
9.527582883834839,-0.12,-3.55,-1.41,3.82
9.54686188697815,0.03,-3.04,-1.05,3.21
9.547392845153809,0.25,-2.63,-0.52,2.69
9.55749797821045,0.46,-2.26,0.13,2.3
9.567393779754639,0.72,-1.9,0.72,2.15
9.577468872070312,1.07,-1.48,1.02,2.09
9.596643924713135,1.38,-1.05,1.06,2.03
9.597258806228638,1.52,-0.52,0.96,1.87
9.607347011566162,1.85,0.19,1.02,2.12
9.617389678955078,1.9,0.98,1.22,2.46
9.627570867538452,1.93,1.7,1.48,2.96
9.647190809249878,1.88,2.0,1.63,3.19
9.647650718688965,1.53,2.0,1.68,3.02
9.65738582611084,1.15,1.98,1.6,2.79
9.667484760284424,0.89,2.05,1.49,2.68
9.677459716796875,0.74,2.0,1.66,2.7
9.696587800979614,0.66,1.79,2.07,2.81
9.69707179069519,0.56,1.78,2.59,3.19
9.70737886428833,0.73,2.27,3.11,3.91
9.717581748962402,1.13,3.41,3.89,5.29
9.727287769317627,1.14,5.2,4.11,6.72
9.746687889099121,-0.05,6.0,1.75,6.25
9.747228860855103,-0.88,6.13,-1.52,6.37
9.757239818572998,-0.92,6.34,-3.73,7.41
9.76765775680542,-1.24,5.77,-4.56,7.45
9.777288913726807,-0.42,4.83,-3.6,6.03
9.796623706817627,0.77,3.94,-1.97,4.47
9.797152996063232,-1.19,2.46,-1.2,2.98
9.807153701782227,-3.47,0.83,-0.72,3.63
9.817729949951172,-5.49,-0.53,0.21,5.51
9.827178001403809,-5.43,-0.58,1.48,5.65
9.847179889678955,-3.15,-0.16,1.48,3.48
9.847725868225098,-2.06,-0.07,0.84,2.22
9.857105731964111,-1.33,0.23,0.52,1.44
9.867108821868896,-0.35,0.58,-0.05,0.67
9.881371021270752,0.55,0.79,-0.86,1.29
9.886873722076416,1.39,0.65,-1.57,2.19
9.896994829177856,1.91,0.06,-1.84,2.65
9.907076835632324,1.6,-0.99,-1.73,2.55
9.91713285446167,0.91,-2.05,-1.6,2.75
9.931888818740845,0.52,-2.98,-1.57,3.4
9.936927795410156,0.21,-3.8,-1.69,4.16
9.946928977966309,-0.01,-4.45,-1.9,4.83
9.957067012786865,-0.12,-4.91,-2.12,5.34
9.967099905014038,-0.28,-5.22,-2.24,5.68
9.98182487487793,-0.3,-5.39,-2.25,5.84
9.987005710601807,-0.07,-5.34,-2.17,5.76
9.996973991394043,0.17,-5.02,-2.03,5.41
10.006875991821289,-0.34,-4.69,-2.03,5.12
10.017082691192627,-0.42,-4.26,-1.88,4.67
10.03202199935913,-0.3,-3.85,-1.57,4.16
10.03683090209961,-0.26,-3.44,-1.05,3.6
10.046792984008789,-0.37,-2.97,-0.48,3.03
10.056928873062134,-0.53,-2.42,0.07,2.47
10.066929817199707,-0.85,-1.77,0.63,2.06
10.082403898239136,-1.19,-1.23,1.16,2.06
10.086777687072754,-1.37,-0.82,1.37,2.1
10.096751689910889,-1.44,-0.34,1.4,2.03
10.106830835342407,-1.35,0.28,1.2,1.82
10.116911888122559,-1.18,0.87,1.18,1.88
10.132441997528076,-1.21,1.33,1.49,2.33
10.136929988861084,-1.02,1.67,1.97,2.77
10.146690845489502,-0.61,1.96,2.23,3.03
10.156736850738525,-0.47,2.25,2.08,3.09
10.16681981086731,-0.71,2.31,2.02,3.14
10.181934833526611,-0.86,2.13,2.34,3.27
10.18686294555664,-0.94,1.89,2.92,3.6
10.196625709533691,-1.19,1.82,3.66,4.25
10.206734895706177,-1.44,2.32,4.48,5.24
10.216729879379272,-1.16,3.38,5.01,6.15
10.232536792755127,-1.21,4.42,4.51,6.42
10.236798763275146,-0.99,5.14,2.94,6.0
10.246577739715576,-0.71,5.69,1.16,5.85
10.256629943847656,0.84,5.75,-1.12,5.91
10.266671895980835,2.8,5.47,-3.23,6.94
10.282596826553345,3.78,4.73,-4.07,7.29
10.286670684814453,2.36,3.21,-4.13,5.73
10.296680927276611,0.98,1.9,-3.31,3.94
10.306785821914673,0.08,0.54,-1.89,1.96
10.316673755645752,-0.21,-0.84,-0.65,1.08
10.332405805587769,-0.17,-1.76,0.11,1.77
10.33644986152649,0.27,-1.66,0.39,1.72
10.34648084640503,1.01,-0.74,0.29,1.28
10.356444835662842,1.68,0.28,-0.14,1.7
10.366575717926025,2.05,1.33,-0.69,2.53
10.382311820983887,1.97,2.07,-1.06,3.04
10.38633394241333,1.89,2.42,-1.0,3.22
10.396455764770508,1.69,2.14,-0.8,2.84
10.406531810760498,0.66,1.05,-0.83,1.49
10.416605949401855,-0.37,-0.12,-1.01,1.08
10.432451725006104,-0.65,-1.1,-1.14,1.71
10.43647575378418,-0.24,-2.06,-1.09,2.34
10.446353912353516,-0.04,-3.0,-1.05,3.17
10.456393718719482,-0.06,-3.68,-0.89,3.78
10.466481685638428,0.04,-4.19,-0.78,4.26
10.482382774353027,0.16,-4.54,-0.82,4.61
10.48628568649292,0.19,-4.9,-0.92,4.98
10.496337890625,0.08,-5.13,-1.01,5.22
10.506340980529785,0.02,-5.09,-1.0,5.18
10.516461849212646,-0.12,-4.8,-0.91,4.88
10.532303810119629,-0.26,-4.39,-0.87,4.48
10.536293983459473,-0.16,-3.73,-0.89,3.83
10.546190738677979,0.07,-3.13,-0.88,3.25
10.556267738342285,0.4,-2.73,-0.78,2.86
10.566375732421875,0.62,-2.32,-0.64,2.48
10.582270860671997,0.78,-1.84,-0.39,2.03
10.586076736450195,1.0,-1.31,-0.06,1.64
10.596220970153809,1.25,-0.79,0.21,1.49
10.606169700622559,1.29,-0.21,0.44,1.37
10.616352796554565,1.23,0.37,0.6,1.41
10.632656812667847,1.23,0.84,0.68,1.63
10.636147022247314,1.39,1.18,0.95,2.05
10.646155834197998,1.45,1.46,1.46,2.52
10.65621280670166,1.33,1.6,2.03,2.9
10.666241884231567,0.98,1.68,2.32,3.02
10.682824850082397,0.71,1.79,2.3,2.99
10.686012744903564,0.54,1.83,2.31,2.99
10.69621467590332,0.24,1.82,2.54,3.13
10.706106901168823,-0.16,2.05,2.75,3.43
10.716156005859375,0.16,2.8,3.15,4.21
10.732901811599731,1.06,4.05,3.95,5.75
10.736124992370605,1.29,5.54,3.74,6.8
10.746091842651367,0.23,6.31,1.28,6.44
10.756314754486084,-0.43,6.78,-1.6,6.97
10.76613187789917,-0.45,6.79,-3.52,7.66
10.782755851745605,-2.77,4.99,-4.88,7.5
10.786189794540405,-3.19,3.51,-4.35,6.43
10.796067714691162,-1.04,2.72,-2.48,3.82
10.805922985076904,0.11,1.91,-0.77,2.06
10.815961837768555,-1.79,0.39,-0.05,1.83
10.83299970626831,-3.46,-1.04,0.25,3.62
10.83630895614624,-3.76,-0.75,0.68,3.89
10.845939874649048,-2.59,0.31,0.99,2.79
10.855883836746216,-1.92,0.73,0.83,2.21
10.865984916687012,-1.36,1.01,0.3,1.72
10.883303880691528,-0.71,1.08,-0.3,1.32
10.886360883712769,0.26,1.04,-0.82,1.34
10.895989894866943,1.06,0.64,-1.38,1.85
10.905752897262573,0.91,-0.32,-1.94,2.16
10.915933847427368,0.57,-1.26,-2.13,2.53
10.933305740356445,0.34,-2.15,-1.96,2.92
10.936444759368896,0.03,-3.07,-1.77,3.54
10.945875883102417,-0.21,-3.92,-1.76,4.3
10.955743789672852,-0.41,-4.58,-1.96,4.99
10.965878963470459,-0.59,-5.14,-2.19,5.61
10.983953952789307,-0.48,-5.45,-2.36,5.95
10.985572814941406,-0.24,-5.52,-2.42,6.03
10.99587082862854,0.12,-5.31,-2.34,5.8
11.00589370727539,0.2,-4.94,-2.18,5.4
11.015830993652344,-0.25,-4.44,-2.05,4.89
11.03409194946289,-0.2,-3.77,-1.55,4.08
11.035568714141846,-0.28,-3.2,-0.92,3.34
11.045862674713135,-0.48,-2.79,-0.29,2.84
11.055835723876953,-0.61,-2.44,0.21,2.52
11.065740823745728,-0.7,-2.08,0.51,2.25
11.083655834197998,-0.72,-1.79,0.64,2.03
11.08546495437622,-0.81,-1.43,0.65,1.76
11.09572172164917,-0.96,-0.95,0.63,1.49
11.105845928192139,-1.17,-0.31,0.53,1.32
11.115685939788818,-1.38,0.33,0.55,1.52
11.13375186920166,-1.44,0.84,1.0,1.94
11.135441780090332,-1.18,1.39,1.61,2.43
11.145658016204834,-1.02,1.93,1.99,2.95
11.155740737915039,-1.08,2.19,1.93,3.11
11.165620803833008,-1.14,2.11,1.61,2.88
11.184258937835693,-1.05,1.96,1.61,2.74
11.185391902923584,-1.07,1.79,1.97,2.86
11.195536851882935,-1.18,1.79,2.77,3.5
11.205475807189941,-1.46,2.14,3.96,4.73
11.21565580368042,-1.37,2.75,4.75,5.65
11.23438286781311,-0.96,3.62,4.58,5.91
11.235347747802734,-0.72,4.83,3.65,6.09
11.245512008666992,-0.3,5.84,2.35,6.3
11.255529880523682,0.61,6.19,0.8,6.27
11.265405893325806,1.93,6.19,-1.0,6.56
11.284075736999512,2.98,5.21,-2.82,6.63
11.285266876220703,2.97,3.83,-3.82,6.17
11.295475006103516,2.49,2.69,-3.92,5.36
11.305388927459717,1.31,1.48,-3.27,3.82
11.315457820892334,-0.13,0.25,-1.78,1.8
11.333817958831787,-0.55,-1.08,-0.21,1.23
11.335255861282349,0.02,-1.62,0.72,1.77
11.345364809036255,0.7,-0.96,0.81,1.43
11.355348825454712,1.07,-0.1,0.39,1.14
11.365428924560547,1.34,0.87,-0.14,1.6
11.384259700775146,1.38,1.83,-0.86,2.44
11.3851158618927,1.38,2.26,-1.42,3.0
11.395381927490234,1.66,1.92,-1.29,2.84
11.405295848846436,1.37,0.98,-0.9,1.9
11.415328025817871,0.24,-0.09,-0.68,0.72
11.43436574935913,-0.46,-1.04,-0.57,1.27
11.435366868972778,-0.52,-1.91,-0.66,2.08
11.445350885391235,-0.57,-2.89,-0.9,3.08
11.455139875411987,-0.71,-3.86,-1.14,4.08
11.465250968933105,-0.43,-4.52,-1.26,4.71
11.484641790390015,0.11,-4.79,-1.31,4.96
11.48517894744873,0.01,-4.99,-1.58,5.23
11.495261907577515,-0.06,-4.98,-1.79,5.29
11.505011796951294,-0.05,-4.78,-1.74,5.08
11.515305995941162,-0.09,-4.46,-1.62,4.74
11.534451007843018,-0.09,-4.04,-1.52,4.31
11.534940719604492,0.08,-3.55,-1.4,3.81
11.545140743255615,0.34,-3.11,-1.23,3.36
11.554951906204224,0.48,-2.67,-1.02,2.89
11.565096855163574,0.7,-2.21,-0.83,2.46
11.584074020385742,0.96,-1.81,-0.56,2.12
11.585218906402588,1.12,-1.53,-0.1,1.89
11.595088005065918,1.23,-1.28,0.54,1.85
11.604897022247314,1.35,-0.84,1.33,2.07
11.614974975585938,1.42,-0.27,1.89,2.37
11.63452672958374,1.47,0.18,2.1,2.56
11.635030746459961,1.57,0.5,1.92,2.53
11.645001888275146,1.89,1.0,1.56,2.64
11.654858827590942,1.89,1.53,1.16,2.69
11.665058851242065,1.47,2.02,1.05,2.7
11.684597969055176,1.07,2.3,1.21,2.81
11.685130834579468,0.85,2.32,1.43,2.85
11.69502592086792,0.81,2.22,1.69,2.9
11.704830884933472,0.65,1.88,1.96,2.79
11.715044021606445,0.43,1.53,2.56,3.01
11.734519004821777,0.26,1.62,3.46,3.82
11.735041856765747,0.22,2.31,3.85,4.49
11.744995832443237,0.97,3.45,3.74,5.17
11.754724025726318,1.28,4.64,2.9,5.61
11.764925956726074,0.52,5.6,1.55,5.83
11.78465485572815,-1.15,5.83,-0.7,5.98
11.78519082069397,-1.86,5.25,-2.73,6.2
11.794895887374878,-1.31,3.86,-3.8,5.57
11.804608821868896,-1.81,2.52,-3.7,4.82
11.814899921417236,-1.49,1.73,-2.5,3.38
11.834926843643188,0.05,1.55,-0.75,1.72
11.835464000701904,-2.77,0.5,-0.49,2.85
11.84479284286499,-4.14,0.02,-0.33,4.15
11.85450267791748,-3.7,0.54,0.18,3.74
11.864827871322632,-2.18,0.76,0.56,2.37
11.884791851043701,-1.35,0.76,0.4,1.6
11.885325908660889,-1.04,0.91,0.22,1.39
11.894702911376953,-0.53,0.84,-0.13,1.0
11.904481887817383,0.28,0.38,-0.72,0.86
11.914925813674927,1.01,-0.31,-1.32,1.69
11.935060024261475,1.11,-1.11,-1.76,2.35
11.935585975646973,0.76,-2.04,-1.8,2.82
11.944907903671265,0.33,-2.87,-1.58,3.29
11.954506874084473,-0.04,-3.53,-1.55,3.85
11.96489667892456,-0.3,-4.05,-1.78,4.43
11.985118865966797,-0.49,-4.42,-2.06,4.9
11.985651969909668,-0.62,-4.59,-2.29,5.16
11.994582891464233,-0.74,-4.56,-2.38,5.19
12.004526853561401,-0.79,-4.54,-2.27,5.13
12.014827728271484,-0.59,-4.4,-2.02,4.87
12.03594183921814,-0.21,-3.98,-1.79,4.36
12.036473751068115,-0.28,-3.64,-1.73,4.03
12.044578790664673,-0.4,-3.42,-1.66,3.82
12.054590702056885,-0.4,-3.13,-1.38,3.44
12.064565896987915,-0.44,-2.93,-0.91,3.09
12.08517074584961,-0.5,-2.79,-0.4,2.86
12.085600852966309,-0.68,-2.58,0.06,2.66
12.094530820846558,-0.9,-2.25,0.49,2.47
12.104728698730469,-1.24,-1.91,0.71,2.38
12.114559888839722,-1.53,-1.36,0.75,2.18
12.135466814041138,-1.73,-0.63,0.75,1.98
12.13599181175232,-1.76,0.11,1.02,2.03
12.144534826278687,-1.62,0.71,1.4,2.25
12.154798984527588,-1.52,1.39,1.71,2.67
12.164571762084961,-1.36,2.12,1.91,3.16
12.185330867767334,-1.17,2.41,1.88,3.27
12.185758829116821,-0.99,2.25,1.72,3.0
12.194433689117432,-0.82,2.01,1.79,2.81
12.204838752746582,-0.74,1.8,2.24,2.96
12.21454381942749,-1.03,1.73,3.1,3.69
12.235511779785156,-1.51,2.15,4.36,5.09
12.235939979553223,-1.56,3.06,5.28,6.29
12.24440884590149,-1.15,4.31,5.4,7.0
12.254876852035522,-0.76,5.31,4.51,7.0
12.264403820037842,-0.2,6.5,2.88,7.11
12.285460948944092,0.72,7.05,0.48,7.1
12.285883903503418,2.03,6.82,-2.13,7.42
12.294363021850586,3.04,5.78,-4.07,7.69
12.304210901260376,2.98,3.91,-4.69,6.79
12.314324855804443,2.05,2.38,-3.9,5.0
12.335446834564209,0.63,0.78,-2.01,2.24
12.335871696472168,-0.01,-0.72,0.0,0.72
12.344318866729736,-0.05,-1.85,0.81,2.02
12.354262828826904,0.27,-2.03,0.64,2.14
12.364277839660645,0.83,-0.95,0.41,1.32
12.386082887649536,1.27,0.11,0.23,1.29
12.386623859405518,1.76,1.12,-0.36,2.11
12.394354820251465,1.91,1.99,-1.15,2.98
12.404191970825195,2.24,2.49,-1.61,3.71
12.414434909820557,2.02,1.97,-1.6,3.24
12.436097860336304,0.89,0.65,-1.44,1.81
12.436606884002686,0.0,-0.35,-1.18,1.23
12.44420576095581,-0.32,-1.22,-0.94,1.57
12.454226016998291,-0.27,-2.17,-0.98,2.39
12.464148998260498,-0.44,-3.12,-1.32,3.41
12.486458778381348,-0.32,-3.94,-1.4,4.19
12.486973762512207,-0.09,-4.65,-1.48,4.88
12.494117736816406,0.01,-5.2,-1.69,5.46
12.503919839859009,0.09,-5.51,-1.86,5.81
12.514165878295898,0.41,-5.4,-1.78,5.7
12.536180019378662,0.19,-5.1,-1.76,5.39
12.536681890487671,-0.01,-4.61,-1.78,4.94
12.543954849243164,0.01,-3.95,-1.75,4.32
12.55403184890747,0.06,-3.43,-1.79,3.86
12.56399393081665,0.26,-2.97,-1.71,3.43
12.58620285987854,0.42,-2.7,-1.4,3.07
12.586727857589722,0.57,-2.33,-0.96,2.58
12.593982696533203,0.76,-1.92,-0.38,2.09
12.603917837142944,1.08,-1.58,0.29,1.93
12.614059925079346,1.18,-1.27,0.73,1.88
12.635838985443115,1.16,-0.8,0.94,1.69
12.636254787445068,1.09,-0.22,1.1,1.56
12.64391279220581,1.1,0.37,1.36,1.78
12.653884887695312,1.29,1.0,1.71,2.36
12.663925886154175,1.34,1.59,2.1,2.95
12.685926914215088,1.22,1.96,2.4,3.33
12.686337947845459,1.2,2.08,2.53,3.48
12.693988800048828,1.23,2.03,2.52,3.46
12.703773975372314,1.1,1.94,2.38,3.26
12.713855743408203,0.72,1.79,2.31,3.0
12.736353874206543,0.51,1.63,2.57,3.08
12.736795902252197,0.47,1.78,2.94,3.46
12.743746757507324,0.42,2.37,3.33,4.1
12.753711700439453,0.95,3.59,3.89,5.37
12.763753890991211,1.0,4.93,3.93,6.38
12.786444902420044,0.23,5.99,2.25,6.4
12.78688097000122,-0.54,6.49,-0.33,6.52
12.793731689453125,0.44,6.27,-1.82,6.54
12.803571701049805,-1.92,4.45,-3.68,6.08
12.813601970672607,-3.05,3.72,-3.63,6.02
12.837138891220093,-1.17,3.5,-2.19,4.29
12.83756971359253,-1.34,2.77,-1.54,3.44
12.8436439037323,-2.54,2.08,-1.28,3.52
12.853606700897217,-3.63,1.31,-0.75,3.93
12.863876819610596,-5.31,0.59,0.08,5.34
12.886155843734741,-4.08,0.45,1.14,4.26
12.886623859405518,-1.91,0.54,1.23,2.33
12.893706798553467,-1.16,0.56,0.67,1.45
12.903368949890137,-0.48,0.57,-0.06,0.74
12.913634777069092,0.55,0.3,-0.8,1.01
12.936620712280273,1.78,-0.25,-1.51,2.34
12.937137842178345,2.19,-1.19,-2.17,3.3
12.94344186782837,1.6,-2.2,-2.37,3.6
12.953451871871948,0.84,-3.05,-2.09,3.79
12.96344780921936,0.04,-3.91,-1.82,4.31
12.987326860427856,-0.24,-4.54,-1.84,4.9
12.987811803817749,-0.14,-4.96,-2.14,5.4
12.993395805358887,-0.3,-5.2,-2.49,5.77
13.003286838531494,-0.66,-5.08,-2.68,5.78
13.0133798122406,-0.77,-4.84,-2.59,5.54
13.037511825561523,-0.67,-4.52,-2.35,5.13
13.037983894348145,-0.52,-4.11,-2.04,4.61
13.04327392578125,-0.37,-3.64,-1.71,4.03
13.053363800048828,0.0,-3.14,-1.34,3.41
13.06345272064209,-0.46,-2.85,-1.18,3.11
13.086679935455322,-0.55,-2.62,-0.86,2.81
13.087114810943604,-0.47,-2.42,-0.44,2.5
13.093435764312744,-0.61,-2.14,-0.02,2.22
13.103354930877686,-0.91,-1.76,0.38,2.01
13.113371849060059,-1.17,-1.36,0.68,1.91
13.137217998504639,-1.34,-0.91,0.77,1.79
13.137643814086914,-1.57,-0.33,0.66,1.73
13.143200874328613,-1.69,0.34,0.71,1.86
13.153304815292358,-1.75,0.98,1.1,2.28
13.16325569152832,-1.67,1.61,1.57,2.8
13.186606884002686,-1.47,2.12,1.8,3.14
13.187026023864746,-1.09,2.31,1.83,3.14
13.193192958831787,-0.84,2.09,1.88,2.93
13.203195810317993,-0.77,1.77,1.99,2.77
13.213313817977905,-0.71,1.46,2.05,2.61
13.236778736114502,-0.91,1.27,2.4,2.86
13.237231731414795,-1.3,1.38,3.55,4.02
13.243134021759033,-1.42,1.97,4.76,5.34
13.253167867660522,-1.33,2.83,5.06,5.94
13.263144969940186,-1.2,3.88,4.66,6.18
13.28680682182312,-0.51,4.84,3.63,6.07
13.28724980354309,0.27,5.58,1.83,5.87
13.293052673339844,1.32,5.99,-0.5,6.15
13.303055763244629,2.38,5.53,-2.88,6.67
13.313153743743896,2.7,4.28,-4.17,6.55
13.337344884872437,2.15,3.22,-4.11,5.64
13.337785720825195,0.49,2.07,-3.06,3.72
13.343029022216797,-0.36,0.45,-1.8,1.89
13.35306167602539,0.06,-1.08,-0.57,1.22
13.363049983978271,1.59,-1.42,1.11,2.4
13.387556791305542,1.79,-1.02,1.2,2.38
13.388084888458252,2.07,-0.19,0.41,2.11
13.393021821975708,2.72,0.65,-0.24,2.8
13.402992725372314,2.98,1.51,-0.79,3.43
13.413021802902222,2.74,2.33,-1.13,3.77
13.438799858093262,2.08,2.68,-0.88,3.5
13.43929672241211,1.12,2.16,-0.54,2.49
13.442981719970703,-0.12,1.0,-0.82,1.29
13.4529447555542,-0.7,-0.1,-1.16,1.35
13.462930679321289,-0.54,-1.28,-1.18,1.82
13.488425731658936,-0.15,-2.47,-1.06,2.69
13.48892879486084,-0.25,-3.47,-1.09,3.64
13.492879867553711,-0.17,-4.16,-1.19,4.33
13.502843856811523,0.09,-4.71,-1.39,4.91
13.512870788574219,0.19,-5.18,-1.73,5.46
13.522809982299805,0.15,-5.45,-2.06,5.82
13.538786888122559,0.33,-5.35,-2.08,5.74
13.542788982391357,-0.01,-5.03,-2.08,5.44
13.552771806716919,-0.41,-4.6,-2.06,5.05
13.562732696533203,-0.49,-4.0,-1.82,4.42
13.572844982147217,-0.48,-3.43,-1.56,3.79
13.588290691375732,-0.34,-3.04,-1.26,3.3
13.592882871627808,-0.11,-2.63,-0.87,2.77
13.60276174545288,0.14,-2.19,-0.34,2.22
13.612839698791504,0.44,-1.76,0.35,1.84
13.622760772705078,0.74,-1.46,0.9,1.86
13.638235807418823,1.01,-1.17,1.13,1.91
13.642570972442627,1.31,-0.76,0.98,1.8
13.652644872665405,1.49,-0.22,0.83,1.71
13.662654876708984,1.52,0.37,1.02,1.86
13.672562837600708,1.71,1.04,1.42,2.45
13.688265800476074,1.76,1.61,1.86,3.02
13.692677021026611,1.46,1.91,2.24,3.28
13.702558994293213,1.18,2.02,2.34,3.3
13.712732791900635,0.99,2.04,2.15,3.12
13.722757816314697,0.88,2.05,1.89,2.92
13.738547801971436,0.8,1.94,1.79,2.75
13.742488861083984,0.69,1.72,2.07,2.77
13.752676963806152,0.69,1.68,3.01,3.51
13.762479782104492,0.96,2.2,3.91,4.58
13.772480964660645,1.3,3.15,4.05,5.29
13.78830885887146,0.73,4.18,3.63,5.58
13.792560815811157,0.72,5.5,2.96,6.28
13.802496910095215,1.62,6.5,1.95,6.97
13.812528848648071,0.16,5.99,-0.88,6.05
13.822552680969238,-1.93,4.58,-3.63,6.15
13.83872389793396,-2.69,3.84,-4.35,6.39
13.842403888702393,0.12,3.81,-3.16,4.95
13.852470874786377,-2.67,2.28,-3.43,4.9
13.862483024597168,-4.83,1.19,-2.57,5.59
13.872371673583984,-3.33,0.49,-0.84,3.46
13.888564825057983,-1.12,0.02,0.18,1.13
13.892405986785889,-1.7,-0.46,0.45,1.81
13.902361869812012,-3.77,-0.71,0.44,3.86
13.912377834320068,-2.73,-0.29,0.47,2.78
13.922307014465332,-1.09,-0.03,0.32,1.13
13.938780784606934,-0.1,-0.02,-0.15,0.18
13.942346811294556,0.66,-0.07,-0.94,1.15
13.952639818191528,1.26,-0.31,-1.77,2.19
13.962366819381714,1.64,-0.81,-2.11,2.79
13.972445011138916,1.44,-1.59,-1.93,2.88
13.989604949951172,0.77,-2.4,-1.63,3.0
13.992292881011963,0.08,-3.13,-1.51,3.47
14.002264022827148,-0.25,-3.77,-1.6,4.1
14.012279987335205,-0.26,-4.19,-1.75,4.54
14.022239685058594,-0.44,-4.4,-1.9,4.81
14.0396089553833,-0.68,-4.5,-1.95,4.95
14.042158842086792,-0.63,-4.37,-1.84,4.78
14.052221775054932,-0.49,-4.12,-1.68,4.47
14.062169790267944,-0.06,-3.75,-1.35,3.98
14.072208881378174,-0.22,-3.48,-1.15,3.67
14.08893871307373,-0.38,-3.23,-0.91,3.37
14.091929912567139,-0.43,-2.91,-0.52,2.98
14.102105855941772,-0.41,-2.6,-0.06,2.63
14.112148761749268,-0.47,-2.34,0.34,2.41
14.122106790542603,-0.64,-2.09,0.62,2.27
14.139104843139648,-0.8,-1.73,0.79,2.06
14.141932964324951,-0.92,-1.33,0.83,1.81
14.152804851531982,-1.03,-0.87,0.68,1.51
14.16209888458252,-1.07,-0.35,0.52,1.24
14.172037839889526,-1.19,0.14,0.48,1.29
14.189030885696411,-1.23,0.68,0.8,1.61
14.191811800003052,-0.99,1.25,1.47,2.16
14.202024936676025,-0.81,1.78,2.04,2.82
14.212026834487915,-0.77,2.16,2.17,3.15
14.222004890441895,-0.67,2.22,2.04,3.08
14.238693714141846,-0.47,2.1,2.13,3.02
14.241744995117188,-0.49,1.91,2.31,3.03
14.251954793930054,-0.71,1.76,2.87,3.44
14.261937856674194,-1.02,1.82,3.88,4.4
14.271928787231445,-1.06,2.4,4.82,5.48
14.288856983184814,-1.05,3.5,4.98,6.17
14.291788816452026,-0.85,4.89,4.34,6.59
14.302011966705322,-0.61,5.86,2.86,6.54
14.311806678771973,0.25,6.51,1.0,6.59
14.321840763092041,1.66,6.59,-0.94,6.86
14.339377880096436,2.27,5.59,-3.07,6.76
14.341678857803345,2.74,4.18,-4.22,6.54
14.351921796798706,2.84,3.16,-4.04,5.86
14.361685752868652,1.17,1.74,-3.54,4.11
14.371810913085938,0.12,0.21,-2.13,2.14
14.389405727386475,-0.11,-1.07,-0.78,1.32
14.391839027404785,-0.01,-1.91,-0.01,1.91
14.401788711547852,0.66,-1.81,0.23,1.94
14.41164779663086,1.47,-1.05,0.1,1.8
14.421679019927979,1.95,-0.13,-0.35,1.98
14.439782857894897,2.21,0.95,-0.96,2.59
14.441900730133057,2.31,1.73,-1.36,3.19
14.451795816421509,2.04,1.72,-1.42,3.02
14.4617178440094,1.12,0.7,-1.29,1.84
14.471709728240967,0.05,-0.39,-1.16,1.22
14.489680767059326,-0.56,-1.17,-1.11,1.7
14.492020845413208,-0.73,-2.05,-1.37,2.57
14.501702785491943,-0.32,-2.88,-1.77,3.39
14.511544704437256,-0.18,-3.61,-2.0,4.13
14.521561861038208,-0.23,-4.16,-1.87,4.56
14.539566993713379,-0.19,-4.61,-1.73,4.92
14.542080879211426,0.02,-4.84,-1.76,5.15
14.551692962646484,0.3,-4.82,-1.74,5.13
14.561546802520752,0.71,-4.59,-1.58,4.9
14.571579933166504,0.27,-4.39,-1.59,4.67
14.589612007141113,-0.05,-4.04,-1.47,4.29
14.59143877029419,-0.01,-3.54,-1.17,3.72
14.601600885391235,0.05,-3.0,-0.88,3.12
14.611548900604248,0.23,-2.48,-0.6,2.56
14.621452808380127,0.43,-2.08,-0.26,2.13
14.639797687530518,0.65,-1.59,0.12,1.72
14.641372680664062,0.95,-1.07,0.46,1.5
14.65164589881897,1.17,-0.59,0.63,1.45
14.661468982696533,1.47,-0.16,0.64,1.61
14.671465873718262,1.64,0.19,0.72,1.8
14.690093994140625,1.62,0.59,0.93,1.95
14.691234827041626,1.48,1.02,1.24,2.18
14.701481819152832,1.41,1.39,1.67,2.59
14.711462020874023,1.6,1.58,2.01,3.01
14.721298694610596,1.49,1.57,2.03,2.96
14.739759922027588,1.14,1.47,1.92,2.67
14.741121768951416,1.05,1.37,1.94,2.59
14.751429796218872,0.98,1.35,2.03,2.62
14.761164903640747,0.83,1.37,2.15,2.68
14.771318912506104,0.3,1.35,2.5,2.85
14.790068864822388,-0.01,1.65,3.25,3.64
14.791253805160522,0.48,2.56,3.97,4.74
14.801331996917725,0.72,3.66,4.12,5.55
14.811221837997437,0.15,4.93,3.57,6.08
14.821326732635498,-0.52,6.57,2.07,6.9
14.8403639793396,1.33,7.73,0.74,7.87
14.841002941131592,-0.5,6.09,-1.92,6.4
14.851374864578247,-3.27,4.04,-4.23,6.7
14.86124587059021,-3.41,3.09,-4.83,6.67
14.871321678161621,0.22,3.05,-3.21,4.43
14.890062808990479,0.4,2.29,-1.95,3.03
14.891167879104614,-3.89,-0.15,-2.03,4.39
14.90135669708252,-5.46,-1.66,-1.22,5.83
14.911134719848633,-3.0,-0.56,0.51,3.09
14.92114782333374,-0.54,0.14,1.35,1.46
14.94001579284668,-1.59,-0.07,0.78,1.77
14.940907001495361,-1.73,0.11,0.22,1.74
14.951185703277588,-0.97,0.39,-0.21,1.06
14.96116590499878,-0.13,0.52,-0.77,0.93
14.971007823944092,0.95,0.41,-1.35,1.7
14.990510940551758,1.37,-0.16,-1.93,2.37
14.991055965423584,0.94,-1.2,-2.24,2.7
15.000977993011475,0.55,-2.22,-2.02,3.05
15.01099681854248,0.22,-3.15,-1.63,3.55
15.020981788635254,0.01,-3.89,-1.5,4.16
15.040212869644165,-0.07,-4.43,-1.69,4.74
15.040769815444946,-0.25,-4.73,-1.98,5.13
15.051065921783447,-0.45,-4.81,-2.22,5.31
15.060816764831543,-0.42,-4.7,-2.27,5.23
15.071061849594116,-0.31,-4.44,-2.16,4.94
15.090322971343994,-0.21,-4.03,-1.96,4.48
15.090852737426758,-0.04,-3.61,-1.64,3.96
15.100842952728271,0.12,-3.22,-1.39,3.5
15.110832691192627,-0.22,-2.94,-1.35,3.24
15.120885848999023,-0.37,-2.66,-1.08,2.89
15.14040470123291,-0.46,-2.44,-0.63,2.56
15.140835762023926,-0.64,-2.27,-0.15,2.36
15.150918960571289,-0.82,-2.01,0.3,2.19
15.160717010498047,-0.93,-1.69,0.59,2.01
15.170934677124023,-1.09,-1.3,0.73,1.84
15.190322875976562,-1.2,-0.78,0.84,1.65
15.190757751464844,-1.33,-0.17,1.06,1.7
15.20093584060669,-1.35,0.42,1.37,1.96
15.210636854171753,-1.34,0.99,1.71,2.38
15.220955848693848,-1.2,1.6,2.03,2.84
15.240971803665161,-1.1,2.07,2.08,3.13
15.241416931152344,-1.15,2.17,1.85,3.07
15.250962734222412,-1.05,2.06,1.65,2.84
15.260804891586304,-0.61,1.83,1.86,2.67
15.270862817764282,-0.77,1.57,2.21,2.81
15.290885925292969,-1.23,1.48,3.12,3.66
15.291301727294922,-1.41,1.93,4.4,5.0
15.301008701324463,-1.14,2.81,4.93,5.78
15.310616970062256,-1.03,3.97,4.7,6.23
15.320971012115479,-0.82,4.96,4.06,6.46
15.34098196029663,-0.4,5.88,2.94,6.58
15.341431856155396,0.29,6.35,0.98,6.43
15.350720882415771,1.42,5.98,-1.42,6.3
15.36048173904419,2.68,4.66,-3.86,6.61
15.370657920837402,3.62,3.38,-4.55,6.72
15.391105890274048,2.32,2.26,-4.41,5.47
15.39152479171753,0.56,0.89,-3.25,3.41
15.400767803192139,-0.29,-0.51,-1.55,1.65
15.410497903823853,-0.08,-1.52,-0.18,1.53
15.420609951019287,0.43,-1.89,0.65,2.04
15.44100284576416,1.2,-1.3,0.55,1.85
15.441455841064453,1.96,-0.23,0.0,1.97
15.450661897659302,2.41,0.76,-0.59,2.59
15.460389852523804,2.5,1.54,-1.19,3.16
15.470615863800049,2.15,1.89,-1.4,3.18
15.490792751312256,1.84,1.73,-0.9,2.68
15.491246700286865,0.91,0.79,-0.47,1.29
15.500517845153809,-0.13,-0.29,-0.41,0.51
15.510337829589844,-0.72,-1.24,-0.56,1.53
15.520553827285767,-0.63,-2.14,-0.82,2.37
15.540543794631958,-0.13,-2.92,-1.05,3.1
15.540977954864502,-0.09,-3.6,-1.32,3.83
15.550461769104004,0.04,-4.21,-1.43,4.44
15.5604567527771,0.27,-4.67,-1.44,4.89
15.570559024810791,0.39,-4.86,-1.55,5.11
15.590369701385498,0.46,-4.79,-1.64,5.08
15.590803861618042,0.42,-4.52,-1.66,4.83
15.60037899017334,0.02,-4.21,-1.68,4.53
15.61044692993164,-0.18,-3.78,-1.55,4.08
15.620455741882324,-0.15,-3.3,-1.36,3.57
15.640317916870117,0.09,-2.87,-1.09,3.07
15.641495704650879,0.25,-2.52,-0.86,2.67
15.650325775146484,0.47,-2.2,-0.56,2.31
15.660409927368164,0.73,-1.89,-0.12,2.02
15.670405864715576,0.9,-1.6,0.29,1.85
15.690335750579834,1.09,-1.28,0.67,1.8
15.690759897232056,1.34,-0.85,0.82,1.78
15.700294017791748,1.41,-0.34,0.81,1.66
15.71044397354126,1.47,0.33,0.91,1.76
15.7202730178833,1.57,1.01,1.17,2.2
15.740018844604492,1.62,1.5,1.6,2.72
15.740407943725586,1.62,1.7,2.14,3.17
15.75020694732666,1.57,1.67,2.5,3.39
15.760514736175537,1.41,1.65,2.46,3.28
15.770166873931885,1.17,1.69,2.18,2.99
15.790486812591553,0.93,1.81,1.99,2.84
15.790824890136719,0.68,1.81,2.11,2.86
15.8001868724823,0.58,1.87,2.66,3.3
15.810557842254639,0.66,2.25,3.34,4.08
15.82008981704712,1.15,3.07,3.73,4.96
15.84022569656372,1.22,4.11,3.63,5.61
15.840634822845459,0.58,4.99,3.21,5.96
15.850028991699219,0.04,5.87,1.94,6.18
15.860546827316284,1.42,6.7,0.28,6.85
15.87015676498413,-0.92,5.33,-2.99,6.18
15.890240907669067,-3.3,3.9,-4.95,7.11
15.890669822692871,-2.43,3.59,-4.18,6.02
15.900055885314941,-0.94,2.91,-2.79,4.13
15.909895896911621,-3.74,1.46,-2.81,4.9
15.924104690551758,-3.87,0.54,-1.8,4.3
15.92981481552124,-2.6,0.17,-0.41,2.63
15.939822673797607,-2.16,0.03,0.62,2.24
15.949949741363525,-3.29,-0.15,0.92,3.41
15.9598548412323,-3.14,0.22,0.74,3.23
15.973703861236572,-1.8,0.64,0.45,1.96
15.979773998260498,-0.76,0.67,0.0,1.01
15.989887714385986,0.19,0.48,-0.71,0.87
15.999788761138916,1.29,0.16,-1.25,1.8
16.00992202758789,1.68,-0.54,-1.7,2.45
16.02445387840271,1.35,-1.48,-1.93,2.78
16.029650688171387,0.95,-2.36,-1.68,3.04
16.039860725402832,0.37,-3.21,-1.45,3.54
16.049773693084717,-0.15,-3.9,-1.49,4.17
16.059783935546875,-0.24,-4.4,-1.68,4.71
16.074466705322266,-0.42,-4.73,-1.95,5.13
16.079669952392578,-0.59,-4.86,-2.07,5.31
16.08975076675415,-0.49,-4.76,-1.96,5.17
16.09970474243164,-0.37,-4.46,-1.78,4.81
16.109803676605225,-0.24,-4.06,-1.62,4.37
16.12467384338379,0.06,-3.69,-1.41,3.95
16.12969970703125,-0.12,-3.39,-1.36,3.65
16.139734745025635,-0.31,-3.07,-1.22,3.31
16.149717807769775,-0.34,-2.76,-0.91,2.92
16.15976572036743,-0.46,-2.46,-0.58,2.56
16.1755268573761,-0.53,-2.17,-0.17,2.24
16.179524898529053,-0.55,-1.95,0.26,2.04
16.189656734466553,-0.67,-1.78,0.6,1.99
16.199659824371338,-0.83,-1.5,0.76,1.87
16.209704875946045,-1.1,-0.91,0.63,1.56
16.225459814071655,-1.35,-0.11,0.5,1.44
16.229666709899902,-1.56,0.54,0.77,1.82
16.239592790603638,-1.67,0.99,1.33,2.35
16.24963092803955,-1.53,1.43,1.81,2.76
16.259572982788086,-1.51,1.97,1.88,3.11
16.27524185180664,-1.4,2.17,1.65,3.06
16.279358863830566,-0.93,2.16,1.66,2.87
16.28951597213745,-0.75,2.05,1.73,2.78
16.29961585998535,-0.73,1.91,2.01,2.86
16.309518814086914,-1.07,1.92,2.82,3.57
16.325280904769897,-1.37,2.29,4.08,4.87
16.329354763031006,-1.28,2.95,4.85,5.81
16.339447021484375,-1.31,3.88,4.66,6.2
16.349570751190186,-1.11,4.93,3.93,6.4
16.3594868183136,-0.5,5.41,2.57,6.01
16.375419855117798,0.62,5.9,0.46,5.95
16.37926983833313,2.06,5.97,-2.07,6.64
16.389360904693604,3.41,5.62,-4.01,7.7
16.399484872817993,3.02,4.37,-4.95,7.26
16.40959072113037,1.75,3.27,-4.44,5.78
16.425490856170654,0.36,1.85,-2.84,3.4
16.429229736328125,-0.12,-0.13,-1.13,1.14
16.43931293487549,0.11,-1.96,0.33,1.99
16.449487686157227,0.59,-2.86,1.0,3.08
16.459412813186646,1.56,-2.21,0.93,2.86
16.4755859375,2.09,-1.25,0.27,2.45
16.4792537689209,2.39,-0.22,-0.42,2.43
16.48932695388794,2.35,0.93,-1.0,2.71
16.49937391281128,1.83,1.76,-1.22,2.81
16.50934386253357,1.27,2.11,-0.93,2.63
16.525722980499268,0.45,1.55,-0.77,1.78
16.529172897338867,-0.52,0.24,-1.1,1.24
16.539227962493896,-0.84,-0.94,-1.25,1.77
16.54932689666748,-0.47,-1.99,-1.1,2.32
16.55930781364441,-0.24,-2.98,-1.04,3.16
16.575568675994873,-0.06,-3.68,-1.0,3.81
16.579017877578735,0.22,-4.16,-1.08,4.3
16.58925771713257,0.52,-4.47,-1.2,4.65
16.59922480583191,0.43,-4.7,-1.48,4.94
16.609187841415405,0.21,-4.84,-1.67,5.12
16.62527084350586,0.16,-4.73,-1.46,4.95
16.62900185585022,0.06,-4.38,-1.31,4.57
16.639101028442383,-0.02,-3.89,-1.28,4.09
16.64924383163452,0.02,-3.37,-1.12,3.55
16.659173011779785,0.13,-2.88,-0.72,2.97
16.675829887390137,0.32,-2.39,-0.26,2.42
16.678924798965454,0.54,-1.9,0.13,1.97
16.689120769500732,0.88,-1.43,0.46,1.74
16.698925018310547,1.24,-1.0,0.71,1.74
16.709214687347412,1.53,-0.62,0.86,1.86
16.725870847702026,1.65,-0.26,0.94,1.91
16.72908878326416,1.66,0.07,0.96,1.91
16.739097833633423,1.55,0.42,0.98,1.88
16.749107837677002,1.58,0.88,1.08,2.1
16.759006023406982,1.54,1.36,1.3,2.43
16.776447772979736,1.44,1.57,1.63,2.68
16.77912187576294,1.33,1.66,1.87,2.83
16.789004802703857,1.14,1.83,1.9,2.87
16.798853874206543,0.88,1.99,1.99,2.94
16.80901575088501,0.65,2.09,2.11,3.04
16.82644271850586,0.32,2.04,2.13,2.96
16.82931900024414,-0.09,1.95,2.18,2.92
16.838915824890137,0.39,1.92,2.67,3.31
16.848877906799316,0.78,2.33,3.25,4.07
16.858840942382812,0.62,3.2,3.65,4.89
16.87686777114868,0.22,4.35,3.38,5.51
16.879443883895874,0.77,5.72,2.08,6.13
16.88891077041626,1.19,5.98,0.1,6.09
16.89875078201294,-1.05,5.02,-2.54,5.72
16.908914804458618,-2.81,3.71,-4.46,6.44
16.92705988883972,-2.3,3.15,-4.57,6.0
16.928659915924072,0.47,2.95,-2.87,4.14
16.938827991485596,-1.37,1.56,-2.16,2.99
16.948670864105225,-4.28,-0.07,-1.7,4.6
16.958768844604492,-4.57,-0.88,-0.58,4.68
16.97724986076355,-2.74,-0.71,0.69,2.91
16.978652954101562,-1.44,-0.4,1.36,2.02
16.988784790039062,-2.43,-0.32,0.89,2.6
16.998653888702393,-2.17,0.13,0.29,2.19
17.008649826049805,-1.08,0.64,-0.26,1.28
17.02751588821411,-0.12,0.77,-0.95,1.22
17.028523921966553,0.64,0.59,-1.67,1.88
17.038769721984863,1.23,0.01,-2.04,2.38
17.0487117767334,1.21,-0.93,-1.99,2.5
17.058761835098267,0.7,-1.95,-1.73,2.69
17.077302932739258,0.16,-2.92,-1.55,3.3
17.07845687866211,-0.19,-3.7,-1.57,4.02
17.0887188911438,-0.29,-4.22,-1.72,4.56
17.098639965057373,-0.33,-4.53,-1.89,4.91
17.10857582092285,-0.47,-4.73,-2.03,5.16
17.12759780883789,-0.56,-4.85,-2.05,5.29
17.128456830978394,-0.43,-4.64,-1.92,5.03
17.13863468170166,-0.34,-4.13,-1.76,4.5
17.148477792739868,-0.15,-3.53,-1.4,3.8
17.15855073928833,-0.42,-3.1,-1.15,3.33
17.177891731262207,-0.58,-2.76,-0.9,2.96
17.178308963775635,-0.56,-2.38,-0.51,2.49
17.188586711883545,-0.6,-2.03,-0.25,2.13
17.198362827301025,-0.65,-1.7,0.03,1.82
17.20848798751831,-0.81,-1.38,0.34,1.63
17.227516889572144,-1.03,-1.04,0.49,1.54
17.22830080986023,-1.18,-0.62,0.55,1.44
17.238622903823853,-1.49,-0.14,0.52,1.58
17.24842381477356,-1.72,0.39,0.58,1.85
17.258482933044434,-1.64,0.88,0.91,2.07
17.277997970581055,-1.43,1.25,1.33,2.31
17.278424739837646,-1.2,1.47,1.62,2.49
17.288564682006836,-1.15,1.55,1.71,2.57
17.29838800430298,-1.1,1.55,1.82,2.63
17.308400869369507,-0.9,1.45,2.03,2.65
17.327881813049316,-0.79,1.17,2.18,2.59
17.32831883430481,-1.09,0.92,2.27,2.68
17.33840584754944,-1.38,0.97,2.84,3.3
17.348333835601807,-1.43,1.54,3.75,4.29
17.358359813690186,-1.17,2.43,4.39,5.15
17.377501010894775,-0.72,3.66,4.5,5.84
17.37803077697754,-0.58,4.87,3.77,6.18
17.38826584815979,-0.56,5.69,2.3,6.16
17.39809489250183,-0.01,6.04,0.46,6.05
17.408345699310303,1.18,5.86,-1.34,6.12
17.427960872650146,2.63,4.69,-3.14,6.22
17.428387880325317,2.99,3.11,-4.13,5.97
17.43825674057007,2.87,2.09,-3.73,5.14
17.448126792907715,1.62,0.85,-2.84,3.37
17.458255767822266,0.26,-0.53,-1.43,1.54
17.47766399383545,0.15,-1.5,-0.01,1.5
17.47807502746582,0.76,-1.87,0.44,2.06
17.48826789855957,1.61,-1.29,0.12,2.06
17.498101711273193,2.17,-0.33,-0.44,2.23
17.50821089744568,2.32,0.7,-0.94,2.59
17.527682781219482,2.08,1.62,-1.4,2.98
17.52811098098755,1.75,2.15,-1.52,3.16
17.538081884384155,1.05,1.79,-1.42,2.51
17.548118829727173,0.32,0.83,-1.15,1.45
17.558132886886597,-0.27,-0.17,-0.81,0.87
17.57777190208435,-0.63,-1.16,-0.6,1.45
17.57819390296936,-0.76,-2.16,-0.75,2.4
17.588117837905884,-0.8,-3.17,-0.98,3.41
17.597940921783447,-0.47,-3.94,-1.14,4.12
17.608110904693604,-0.16,-4.42,-1.33,4.61
17.627789974212646,0.12,-4.65,-1.47,4.87
17.628220796585083,0.27,-4.73,-1.58,4.99
17.638000011444092,0.31,-4.66,-1.68,4.96
17.64779567718506,0.34,-4.23,-1.73,4.58
17.65800380706787,0.32,-3.64,-1.71,4.03
17.67791986465454,0.33,-3.06,-1.68,3.5
17.67834186553955,0.41,-2.54,-1.59,3.02
17.68800687789917,0.56,-2.18,-1.35,2.62
17.69776201248169,0.69,-1.96,-0.98,2.29
17.708022832870483,0.76,-1.76,-0.44,1.96
17.72843074798584,0.91,-1.58,0.14,1.82
17.728875875473022,1.08,-1.4,0.69,1.89
17.737895965576172,1.24,-1.18,0.97,1.96
17.747790813446045,1.41,-0.84,1.09,1.97
17.757853984832764,1.51,-0.37,1.09,1.89
17.778435707092285,1.54,0.22,1.0,1.84
17.77884292602539,1.59,0.94,1.12,2.16
17.787889003753662,1.58,1.39,1.47,2.56
17.797905921936035,1.65,1.48,1.78,2.84
17.807881832122803,1.64,1.48,1.85,2.88
17.828391790390015,1.42,1.43,1.79,2.69
17.828797817230225,1.16,1.37,1.76,2.51
17.8377468585968,0.86,1.33,1.79,2.39
17.847970962524414,0.59,1.2,1.8,2.24
17.857873916625977,0.46,1.1,1.89,2.23
17.878760814666748,0.3,1.2,2.34,2.64
17.879162788391113,0.44,1.64,3.1,3.53
17.887818813323975,1.02,2.53,3.65,4.55
17.897995948791504,0.83,3.68,3.7,5.28
17.907811880111694,0.24,4.94,3.52,6.07
17.929157733917236,-0.43,6.0,2.22,6.41
17.929571866989136,0.43,6.69,0.35,6.71
17.937561988830566,0.58,5.64,-2.14,6.06
17.94822072982788,-2.69,3.85,-4.98,6.84
17.9577317237854,-2.75,3.34,-4.93,6.55
17.978874683380127,0.17,3.0,-2.61,3.98
17.979286909103394,-1.6,1.54,-1.58,2.72
17.987677812576294,-3.54,-0.06,-0.88,3.64
17.998111724853516,-3.36,-0.75,-0.04,3.44
18.007699966430664,-2.38,-0.46,0.42,2.46
18.029082775115967,-2.49,-0.24,0.31,2.52
18.029496908187866,-2.73,0.12,0.14,2.73
18.03751277923584,-1.92,0.58,0.0,2.0
18.048223972320557,-0.88,0.73,-0.28,1.17
18.057666778564453,0.24,0.64,-0.68,0.96
18.079514980316162,1.08,0.23,-1.26,1.67
18.079938888549805,1.27,-0.57,-1.86,2.32
18.087495803833008,1.24,-1.53,-2.01,2.81
18.097501754760742,1.11,-2.44,-1.82,3.24
18.10756778717041,0.77,-3.27,-1.59,3.71
18.129063844680786,0.33,-3.91,-1.58,4.23
18.129483699798584,0.0,-4.34,-1.81,4.7
18.137510776519775,-0.3,-4.6,-2.08,5.05
18.147449016571045,-0.42,-4.74,-2.17,5.23
18.157519817352295,-0.45,-4.6,-2.11,5.08
18.17906880378723,-0.46,-4.28,-1.89,4.7
18.179478883743286,-0.48,-3.86,-1.67,4.23
18.187472820281982,-0.42,-3.32,-1.5,3.66
18.1973819732666,-0.3,-2.83,-1.26,3.11
18.207398891448975,-0.31,-2.47,-0.97,2.67
18.2286958694458,-0.42,-2.21,-0.72,2.36
18.229153871536255,-0.47,-1.91,-0.4,2.0
18.237226009368896,-0.53,-1.59,-0.03,1.67
18.247222900390625,-0.61,-1.37,0.36,1.54
18.2572979927063,-0.72,-1.18,0.62,1.51
18.278441905975342,-0.89,-0.86,0.67,1.4
18.27885890007019,-1.14,-0.42,0.5,1.31
18.28716278076172,-1.48,0.21,0.38,1.54
18.297167778015137,-1.63,0.89,0.54,1.93
18.307194709777832,-1.58,1.43,1.1,2.39
18.32841396331787,-1.39,1.67,1.7,2.75
18.328835010528564,-1.29,1.79,2.02,2.99
18.33715581893921,-1.3,1.86,1.85,2.92
18.347129821777344,-1.1,1.75,1.6,2.61
18.35721182823181,-0.85,1.53,1.56,2.34
18.378723859786987,-0.68,1.09,1.64,2.08
18.379140853881836,-0.76,0.63,1.78,2.03
18.387080907821655,-1.11,0.52,2.31,2.61
18.397052764892578,-1.3,0.93,3.39,3.74
18.40717887878418,-1.11,1.68,4.11,4.57
18.42914581298828,-1.04,2.66,4.06,4.96
18.42958402633667,-0.69,3.99,3.75,5.51
18.437016010284424,-0.9,4.9,2.94,5.78
18.44706392288208,-0.57,5.7,1.4,5.89
18.457098960876465,0.69,5.73,-0.94,5.84
18.478903770446777,1.89,5.03,-3.28,6.29
18.47932195663452,2.37,3.93,-4.39,6.35
18.487066745758057,3.33,3.11,-3.61,5.81
18.496956825256348,1.85,1.79,-3.0,3.95
18.50703191757202,0.83,0.34,-1.97,2.16
18.52963876724243,0.57,-1.2,-1.04,1.68
18.530083894729614,0.82,-2.14,-0.35,2.31
18.536961793899536,1.54,-1.86,0.11,2.41
18.546961784362793,2.09,-1.06,0.09,2.34
18.557060718536377,2.25,-0.51,-0.17,2.31
18.579985857009888,2.15,0.38,-0.49,2.23
18.58040189743042,1.65,1.3,-0.89,2.28
18.586949825286865,0.88,1.82,-1.05,2.27
18.596908807754517,0.15,1.53,-1.01,1.83
18.607057809829712,-0.47,0.65,-1.07,1.33
18.6304349899292,-0.87,-0.34,-1.24,1.55
18.630875825881958,-0.84,-1.35,-1.13,1.95
18.636821746826172,-0.78,-2.36,-0.98,2.67
18.64688777923584,-0.56,-3.09,-0.93,3.27
18.65691900253296,0.11,-3.45,-0.91,3.56
18.680792808532715,0.12,-3.77,-1.25,3.97
18.681227684020996,0.22,-3.98,-1.44,4.23
18.68675184249878,0.3,-4.05,-1.47,4.31
18.696754932403564,0.44,-3.81,-1.39,4.07
18.706793785095215,0.47,-3.43,-1.27,3.68
18.730638027191162,0.38,-2.94,-1.19,3.19
18.73105001449585,0.28,-2.35,-1.06,2.59
18.736679792404175,0.24,-1.8,-0.9,2.02
18.746685028076172,0.27,-1.37,-0.78,1.59
18.756706714630127,0.45,-1.22,-0.53,1.4
18.780776977539062,0.76,-1.15,-0.13,1.38
18.781208992004395,1.0,-1.14,0.29,1.54
18.786675930023193,1.18,-1.08,0.51,1.67
18.79668879508972,1.21,-0.96,0.55,1.63
18.80669379234314,1.16,-0.78,0.45,1.46
18.83086585998535,1.2,-0.54,0.44,1.38
18.831299781799316,1.23,-0.2,0.46,1.32
18.836580753326416,1.27,0.2,0.62,1.42
18.8466477394104,1.34,0.5,0.98,1.73
18.856594800949097,1.34,0.72,1.35,2.03
18.88087487220764,1.2,0.84,1.55,2.13
18.88128900527954,0.94,0.94,1.44,1.95
18.886510848999023,0.68,1.06,1.23,1.76
18.896570682525635,0.54,1.09,1.14,1.66
18.906611919403076,0.4,1.04,1.17,1.61
18.930809020996094,0.19,1.01,1.47,1.79
18.931231021881104,0.02,1.16,2.16,2.45
18.936344861984253,0.04,1.71,2.8,3.28
18.946549892425537,0.46,2.51,3.14,4.04
18.956523895263672,1.13,3.73,3.48,5.22
18.980721950531006,1.0,5.15,2.95,6.01
18.981141805648804,0.15,5.9,1.06,5.99
18.987074851989746,-0.67,5.74,-1.31,5.92
18.996492862701416,-0.38,5.56,-2.83,6.25
19.006483793258667,-1.02,4.56,-3.44,5.8
19.03096890449524,-1.61,3.69,-2.8,4.9
19.031389713287354,0.03,3.28,-1.26,3.51
19.036372900009155,-0.99,2.06,-0.98,2.48
19.046411991119385,-2.63,0.47,-1.03,2.86
19.056413888931274,-3.91,-0.93,-0.82,4.1
19.0812668800354,-4.35,-1.42,-0.18,4.57
19.081695795059204,-3.78,-0.83,0.46,3.89
19.086206912994385,-2.25,-0.01,0.34,2.27
19.096336841583252,-1.59,0.5,0.0,1.66
19.106355905532837,-0.89,0.75,-0.31,1.2
19.130945682525635,-0.02,0.65,-0.89,1.1
19.131398677825928,0.82,0.33,-1.63,1.85
19.13591480255127,1.51,-0.24,-2.12,2.61
19.14629888534546,1.68,-1.02,-2.18,2.93
19.156308889389038,1.17,-1.86,-2.01,2.97
19.16619873046875,0.53,-2.55,-1.83,3.18
19.181517839431763,0.0,-3.08,-1.7,3.51
19.186036825180054,-0.3,-3.42,-1.71,3.83
19.196199893951416,-0.45,-3.61,-1.95,4.12
19.206286907196045,-0.62,-3.73,-2.16,4.35
19.216142892837524,-0.53,-3.69,-2.06,4.25
19.231510877609253,-0.63,-3.52,-1.78,3.99
19.23611879348755,-0.67,-3.14,-1.5,3.54
19.24620485305786,-0.5,-2.67,-1.15,2.94
19.256168842315674,-0.42,-2.29,-0.83,2.47
19.266109943389893,-0.47,-1.96,-0.6,2.1
19.281731843948364,-0.53,-1.64,-0.4,1.76
19.28593873977661,-0.63,-1.34,-0.26,1.5
19.296098709106445,-0.73,-1.05,-0.14,1.28
19.306100845336914,-0.86,-0.84,-0.02,1.2
19.316025733947754,-0.99,-0.65,-0.04,1.18
19.33194088935852,-1.14,-0.5,-0.13,1.25
19.335940837860107,-1.27,-0.25,-0.21,1.31
19.34605073928833,-1.22,0.12,-0.15,1.23
19.35603380203247,-1.21,0.52,0.03,1.31
19.36613702774048,-1.24,0.84,0.35,1.53
19.381106853485107,-1.27,1.02,0.68,1.76
19.38590979576111,-1.25,1.04,0.79,1.8
19.396031856536865,-1.14,0.97,0.77,1.68
19.406015872955322,-1.21,0.82,0.72,1.62
19.416021823883057,-1.2,0.64,0.81,1.58
19.431151866912842,-1.05,0.57,1.17,1.67
19.43579387664795,-1.02,0.84,1.62,2.09
19.445868015289307,-1.12,1.56,2.1,2.84
19.455939769744873,-1.24,2.66,2.62,3.93
19.46600079536438,-1.05,3.93,2.75,4.91
19.481488704681396,-0.65,4.86,2.13,5.34
19.48581886291504,-0.13,5.4,1.17,5.52
19.495784759521484,0.62,5.55,0.4,5.59
19.50581693649292,1.26,4.98,-0.52,5.16
19.515713691711426,1.86,3.95,-1.57,4.63
19.531330823898315,2.91,3.0,-2.16,4.7
19.535693883895874,2.54,1.98,-2.88,4.32
19.545642852783203,1.8,1.02,-2.97,3.61
19.55581784248352,1.28,-0.11,-2.25,2.59
19.56572675704956,1.04,-1.17,-1.16,1.94
19.58151388168335,1.06,-1.5,-0.4,1.87
19.585652828216553,1.11,-1.22,-0.42,1.7
19.59567379951477,1.17,-0.68,-0.75,1.54
19.605690002441406,1.24,-0.01,-0.91,1.53
19.615641832351685,1.22,0.88,-0.94,1.77
19.63224697113037,1.06,1.66,-1.0,2.2
19.635618686676025,0.97,1.96,-0.99,2.4
19.645659923553467,0.83,1.7,-0.95,2.11
19.65567684173584,0.63,1.03,-0.91,1.51
19.665628910064697,0.49,0.38,-0.9,1.09
19.682203769683838,0.39,-0.25,-0.9,1.01
19.68543291091919,0.41,-0.85,-0.97,1.35
19.69561195373535,0.49,-1.41,-1.04,1.81
19.705631732940674,0.62,-1.84,-1.1,2.23
19.71556782722473,0.77,-2.05,-1.15,2.47
19.73233389854431,0.9,-2.07,-1.17,2.54
19.735405921936035,1.03,-1.94,-1.13,2.47
19.74561381340027,1.08,-1.65,-1.16,2.28
19.755502700805664,1.06,-1.36,-1.12,2.05
19.7655348777771,0.99,-1.16,-1.13,1.89
19.782655715942383,0.87,-1.04,-1.23,1.83
19.785257816314697,0.82,-0.99,-1.19,1.75
19.795369863510132,0.74,-1.01,-1.05,1.63
19.805421829223633,0.74,-1.04,-0.83,1.52
19.815353870391846,0.72,-1.11,-0.54,1.42
19.83209991455078,0.65,-1.19,-0.3,1.38
19.835266828536987,0.63,-1.21,-0.13,1.37
19.845306873321533,0.64,-1.12,-0.1,1.29
19.855228900909424,0.72,-0.96,-0.18,1.21
19.865381717681885,0.82,-0.81,-0.28,1.18
19.881824016571045,0.92,-0.64,-0.35,1.17
19.885164737701416,0.98,-0.38,-0.4,1.12
19.89527177810669,1.05,0.02,-0.41,1.12
19.90521788597107,1.15,0.31,-0.3,1.22
19.915277004241943,1.19,0.47,-0.14,1.28
19.931939840316772,1.23,0.52,-0.03,1.33
19.9350688457489,1.24,0.49,0.0,1.33
19.945240020751953,1.21,0.39,-0.01,1.27
19.955176830291748,1.15,0.26,-0.08,1.18
19.965255737304688,1.11,0.1,-0.23,1.13
19.9824059009552,1.08,-0.09,-0.25,1.11
19.98514986038208,0.94,-0.23,-0.11,0.97
19.995105743408203,0.85,-0.12,0.11,0.86
20.005127906799316,0.81,0.28,0.58,1.03
20.015163898468018,0.73,0.89,1.25,1.69
20.032986879348755,0.57,1.64,1.74,2.45
20.035295963287354,0.28,2.57,1.45,2.96
20.045105934143066,-0.24,3.59,0.39,3.61
20.055166721343994,-0.77,4.41,-1.18,4.62
20.065234899520874,-1.29,4.52,-2.51,5.32
20.08302879333496,-1.62,4.16,-3.02,5.38
20.085365772247314,-1.6,3.56,-2.84,4.82
20.09521985054016,-1.44,2.78,-2.32,3.89
20.10505485534668,-1.52,1.87,-1.74,2.97
20.114983797073364,-1.52,1.09,-1.21,2.22
20.132994890213013,-1.41,0.64,-0.87,1.77
20.135541915893555,-1.32,0.37,-0.58,1.48
20.145102977752686,-1.27,0.39,-0.31,1.36
20.154994010925293,-1.31,0.77,-0.25,1.53
20.165032863616943,-1.15,1.2,-0.45,1.72
20.183486938476562,-0.76,1.48,-0.77,1.83
20.18555188179016,-0.31,1.45,-1.14,1.87
20.195003986358643,0.01,1.25,-1.4,1.87
20.204911708831787,0.18,0.99,-1.56,1.85
20.21490788459778,0.21,0.76,-1.58,1.76
20.23316979408264,0.07,0.5,-1.53,1.61
20.234838008880615,-0.21,0.14,-1.46,1.48
20.245062828063965,-0.47,-0.23,-1.44,1.53
20.25482988357544,-0.62,-0.52,-1.4,1.61
20.264888763427734,-0.68,-0.71,-1.36,1.67
20.28312087059021,-0.69,-0.73,-1.36,1.69
20.284778833389282,-0.64,-0.65,-1.37,1.64
20.294919967651367,-0.62,-0.53,-1.4,1.62
20.304883003234863,-0.63,-0.36,-1.43,1.6
20.31479287147522,-0.54,-0.19,-1.42,1.53
20.333630800247192,-0.49,-0.06,-1.41,1.49
20.334579944610596,-0.5,0.13,-1.41,1.5
20.34484887123108,-0.49,0.29,-1.38,1.49
20.35492181777954,-0.39,0.39,-1.33,1.43
20.364813804626465,-0.37,0.44,-1.24,1.36
20.383394718170166,-0.41,0.5,-1.2,1.36
20.38466501235962,-0.42,0.57,-1.15,1.35
20.394792795181274,-0.39,0.67,-1.08,1.32
20.404659748077393,-0.32,0.74,-1.07,1.33
20.414618015289307,-0.23,0.74,-1.07,1.32
20.43339490890503,-0.18,0.71,-1.07,1.29
20.434496879577637,-0.15,0.68,-1.09,1.29
20.44471287727356,-0.27,0.63,-1.07,1.27
20.454707860946655,-0.39,0.6,-1.0,1.22
20.464663982391357,-0.54,0.67,-0.77,1.15
20.483250856399536,-0.72,0.74,-0.42,1.11
20.48442268371582,-0.84,0.74,-0.2,1.13
20.494601726531982,-0.83,0.82,-0.05,1.16
20.504584789276123,-0.79,0.93,0.09,1.22
20.51458978652954,-0.66,1.06,0.18,1.26
20.53365993499756,-0.46,1.12,0.13,1.21
20.53439474105835,-0.17,1.13,-0.08,1.14
20.54463291168213,0.13,1.0,-0.39,1.08
20.55449080467224,0.34,0.76,-0.68,1.07
20.56452989578247,0.46,0.5,-0.98,1.19
20.583331823349,0.5,0.15,-1.22,1.32
20.584335803985596,0.48,-0.22,-1.2,1.31
20.59451389312744,0.44,-0.61,-1.0,1.25
20.604424953460693,0.41,-0.91,-0.85,1.31
20.614569902420044,0.24,-1.07,-0.77,1.33
20.632996797561646,0.13,-1.06,-0.71,1.28
20.634244918823242,0.1,-0.95,-0.63,1.14
20.644442796707153,0.06,-0.72,-0.6,0.93
20.654380798339844,0.1,-0.4,-0.61,0.73
20.664416790008545,0.25,-0.09,-0.65,0.7
20.683210849761963,0.41,0.19,-0.63,0.77
20.684224843978882,0.58,0.47,-0.59,0.95
20.69434380531311,0.61,0.61,-0.59,1.04
20.704299926757812,0.53,0.67,-0.63,1.06
20.714353799819946,0.43,0.65,-0.54,0.94
20.7336208820343,0.32,0.49,-0.36,0.68
20.734166860580444,0.24,0.3,-0.22,0.44
20.744388818740845,0.17,0.13,-0.17,0.27
20.754287719726562,0.13,0.09,-0.24,0.28
20.764344692230225,0.09,0.12,-0.35,0.38
20.784239768981934,0.07,0.11,-0.38,0.4
20.784653902053833,0.04,0.07,-0.36,0.36
20.79421091079712,0.02,0.04,-0.36,0.36
20.804150819778442,0.01,0.05,-0.42,0.42
20.814196825027466,-0.01,0.04,-0.5,0.5
20.833757877349854,-0.03,0.02,-0.56,0.56
20.83414888381958,-0.03,0.03,-0.61,0.61
20.844194889068604,-0.04,0.04,-0.67,0.67
20.853989839553833,0.0,0.06,-0.67,0.67
20.864155769348145,0.03,0.07,-0.65,0.65
20.884053707122803,0.04,0.07,-0.6,0.6
20.884442806243896,0.04,0.09,-0.52,0.52
20.894073009490967,0.05,0.09,-0.44,0.45
20.904101848602295,0.04,0.11,-0.4,0.41
20.914169788360596,0.1,0.09,-0.26,0.29
20.9340078830719,0.14,0.06,0.03,0.15
20.93442678451538,0.15,0.1,0.06,0.19
20.944069862365723,0.15,0.26,-0.07,0.3
20.954014778137207,0.22,0.39,-0.16,0.47
20.964114904403687,0.3,0.46,-0.13,0.56
20.98463487625122,0.21,0.58,-0.05,0.61
20.98504877090454,0.11,0.63,0.05,0.64
20.993953704833984,0.11,0.52,0.11,0.54
21.00394868850708,0.08,0.37,0.08,0.38
21.014057874679565,0.03,0.23,-0.05,0.23
21.034621715545654,-0.02,0.11,-0.15,0.18
21.035000801086426,-0.05,-0.02,-0.15,0.15
21.043997764587402,-0.11,-0.13,-0.1,0.19
21.053783893585205,-0.08,-0.16,-0.09,0.2
21.0639488697052,-0.04,-0.2,-0.13,0.24
21.084285736083984,-0.02,-0.22,-0.13,0.25
21.08470392227173,-0.03,-0.17,-0.14,0.22
21.09389090538025,-0.04,-0.1,-0.19,0.21
21.103858947753906,0.02,0.03,-0.22,0.22
21.11408567428589,0.17,0.05,-0.28,0.33
21.13404893875122,-0.02,0.2,-0.23,0.3
21.13446283340454,-0.08,0.24,-0.22,0.33
21.143820762634277,-0.07,0.24,-0.22,0.33
21.153700828552246,-0.07,0.21,-0.15,0.26
21.163867950439453,-0.07,0.14,-0.03,0.15
21.183908939361572,-0.01,0.09,0.13,0.15
21.18431782722473,0.05,0.02,0.21,0.21
21.193763732910156,0.07,-0.01,0.12,0.13
21.203868865966797,0.05,0.0,0.04,0.06
21.213945865631104,0.05,0.0,0.02,0.05
21.233891010284424,0.09,0.02,-0.04,0.1
21.23429775238037,0.12,0.06,-0.07,0.15
21.243804931640625,0.14,0.07,-0.04,0.16
21.253936767578125,0.07,0.04,-0.05,0.09
21.263901710510254,0.05,0.01,-0.04,0.06
21.284384727478027,0.03,-0.04,0.03,0.05
21.28479790687561,0.0,-0.08,0.07,0.1
21.29366397857666,0.0,-0.06,0.1,0.11
21.30404782295227,0.01,-0.06,0.12,0.13
21.313759803771973,0.04,-0.08,0.05,0.1
21.334381818771362,0.09,-0.03,-0.01,0.09
21.33479595184326,0.1,0.07,-0.05,0.13
21.343668937683105,0.09,0.16,-0.11,0.21
21.354158878326416,0.1,0.18,-0.14,0.24
21.36362886428833,0.09,0.1,-0.09,0.16
21.384881019592285,0.05,-0.01,-0.02,0.05
21.38528299331665,0.03,-0.04,-0.03,0.05
21.393474817276,0.04,-0.04,-0.02,0.06
21.403446674346924,0.03,-0.07,0.0,0.07
21.418689727783203,0.01,-0.07,0.04,0.08
21.42344880104065,0.02,-0.03,0.06,0.06
21.433403968811035,0.01,0.0,0.05,0.05
21.44358777999878,0.02,-0.02,0.06,0.06
21.453455924987793,-0.04,-0.2,0.16,0.25
21.469151973724365,-0.17,-0.14,0.09,0.23
21.473331928253174,-0.28,0.02,-0.12,0.3
21.48337984085083,-0.24,0.02,-0.21,0.31
21.49347686767578,-0.19,-0.04,-0.09,0.21
21.503424882888794,-0.16,-0.04,0.11,0.19
21.519186973571777,-0.06,-0.03,0.18,0.19
21.523274898529053,-0.04,0.0,0.09,0.09
21.53331685066223,-0.02,0.03,-0.01,0.03
21.5434148311615,-0.01,0.03,-0.04,0.05
21.553407907485962,-0.04,0.01,-0.03,0.05
21.569650888442993,-0.04,-0.02,0.02,0.04
21.573291778564453,-0.04,-0.06,0.05,0.08
21.583385944366455,-0.06,-0.11,0.06,0.13
21.593363761901855,-0.07,-0.11,0.08,0.15
21.60342288017273,-0.05,-0.1,0.06,0.12
21.619179725646973,-0.07,-0.03,0.07,0.1
21.623230934143066,-0.08,0.0,0.02,0.08
21.633219718933105,-0.08,-0.04,0.0,0.08
21.643362998962402,-0.08,-0.07,0.01,0.1
21.653141975402832,-0.08,-0.07,0.01,0.1
21.669178009033203,-0.08,-0.08,0.02,0.11
21.673199892044067,-0.06,-0.1,0.03,0.12
21.683236837387085,-0.04,-0.1,0.08,0.13
21.69314479827881,-0.01,-0.09,0.15,0.17
21.70336389541626,0.0,-0.08,0.13,0.15
21.719767808914185,-0.04,-0.12,0.03,0.13
21.72309684753418,-0.13,-0.04,-0.15,0.2
21.733192920684814,-0.05,-0.05,-0.19,0.2
21.743326902389526,-0.1,-0.09,-0.13,0.18
21.753145694732666,-0.17,-0.09,0.0,0.19
21.769656896591187,-0.15,-0.05,0.06,0.16
21.773054838180542,-0.06,-0.1,0.16,0.19
21.78321075439453,-0.01,-0.12,0.19,0.22
21.793235778808594,0.02,-0.04,0.08,0.09
21.803221702575684,-0.16,0.14,0.05,0.21
21.819214820861816,-0.25,-0.01,0.12,0.27
