time,ax,ay,az,atotal
0.010110855102539062,0.14,-0.17,-0.36,0.42
0.01474618911743164,-0.01,-0.17,-0.29,0.33
0.025083065032958984,0.07,-0.1,0.09,0.15
0.0456080436706543,0.14,-0.1,0.31,0.35
0.045970916748046875,0.11,-0.13,0.27,0.31
0.054780006408691406,0.08,-0.13,0.12,0.19
0.0648200511932373,0.03,-0.09,-0.02,0.09
0.07483601570129395,-0.01,-0.09,-0.08,0.12
0.09593391418457031,0.11,-0.11,-0.1,0.18
0.0962979793548584,0.07,-0.03,-0.05,0.09
0.10502290725708008,0.01,0.0,0.02,0.02
0.11479616165161133,0.02,0.02,-0.06,0.06
0.12498092651367188,-0.05,0.04,-0.14,0.15
0.14782094955444336,-0.08,0.03,-0.05,0.09
0.14823698997497559,0.02,0.01,0.2,0.2
0.15491294860839844,0.11,0.02,0.32,0.33
0.16498303413391113,0.1,-0.04,0.23,0.25
0.1749420166015625,0.05,-0.07,0.12,0.14
0.19764184951782227,0.05,-0.1,0.09,0.14
0.19806504249572754,0.02,-0.11,0.1,0.15
0.2049560546875,-0.05,-0.06,0.1,0.12
0.21488189697265625,-0.09,0.06,0.09,0.14
0.22496414184570312,-0.06,0.1,0.05,0.12
0.2477421760559082,0.03,0.08,0.05,0.09
0.24812602996826172,0.08,0.04,0.07,0.11
0.2548389434814453,0.08,0.02,0.11,0.13
0.26489806175231934,0.08,0.01,0.1,0.12
0.2748551368713379,0.07,0.01,0.09,0.11
0.2981400489807129,0.09,0.01,0.06,0.1
0.29854393005371094,0.02,-0.04,0.1,0.1
0.30492401123046875,-0.04,0.0,0.1,0.1
0.31523895263671875,-0.06,0.05,0.07,0.1
0.3251481056213379,-0.07,0.04,0.1,0.12
0.348477840423584,-0.02,0.04,0.12,0.12
0.3488788604736328,0.06,0.06,0.09,0.12
0.35487794876098633,0.06,0.05,0.1,0.12
0.36501598358154297,0.03,0.03,0.13,0.13
0.3749730587005615,0.05,0.04,0.13,0.14
0.39861297607421875,0.03,0.03,0.08,0.09
0.39901304244995117,0.02,0.02,0.06,0.06
0.4049968719482422,-0.02,0.01,0.07,0.07
0.41492700576782227,-0.06,0.0,0.08,0.1
0.4250199794769287,-0.05,0.01,0.08,0.09
0.4497339725494385,0.01,0.01,0.12,0.12
0.4501509666442871,0.05,0.04,0.13,0.14
0.45491886138916016,0.07,0.07,0.11,0.14
0.46495485305786133,0.06,0.04,0.08,0.1
0.47493600845336914,0.03,0.03,0.02,0.04
0.4985990524291992,0.0,0.01,-0.01,0.01
0.4990119934082031,0.02,-0.01,0.02,0.03
0.5049879550933838,0.0,-0.03,0.05,0.05
0.5148110389709473,-0.04,-0.08,0.09,0.12
0.5251150131225586,-0.07,-0.1,0.06,0.13
0.5483660697937012,-0.08,-0.08,0.02,0.11
0.5487151145935059,-0.08,-0.08,0.06,0.12
0.5548949241638184,-0.06,-0.08,0.11,0.14
0.5657780170440674,-0.06,-0.05,0.09,0.11
0.5749459266662598,-0.09,-0.05,0.06,0.11
0.5988569259643555,-0.12,-0.05,0.03,0.13
0.5992820262908936,-0.15,-0.02,0.0,0.15
0.6048998832702637,-0.22,0.03,-0.02,0.22
0.6149139404296875,-0.31,0.06,-0.03,0.31
0.6250529289245605,-0.25,0.03,0.0,0.25
0.6496419906616211,-0.15,0.0,0.07,0.16
0.6500990390777588,-0.13,-0.04,0.17,0.21
0.6549580097198486,-0.18,-0.01,0.21,0.27
0.6651279926300049,-0.22,0.05,0.2,0.3
0.6750168800354004,-0.19,0.07,0.11,0.23
0.6993188858032227,-0.09,0.09,0.05,0.13
0.6997320652008057,-0.07,0.1,0.02,0.12
0.7049951553344727,-0.12,0.09,-0.15,0.21
0.7149770259857178,-0.13,0.08,-0.21,0.25
0.7251248359680176,-0.09,0.04,-0.09,0.13
0.7498400211334229,-0.06,0.0,0.07,0.09
0.7502288818359375,-0.03,0.0,0.1,0.1
0.7548871040344238,0.0,-0.02,0.04,0.04
0.7650699615478516,0.09,0.01,0.02,0.09
0.7750179767608643,0.15,0.02,0.01,0.15
0.7998299598693848,0.14,0.06,0.03,0.15
0.8002610206604004,0.09,0.11,0.04,0.14
0.8050069808959961,0.02,0.15,-0.02,0.15
0.8150310516357422,-0.06,0.2,-0.03,0.21
0.8252110481262207,-0.12,0.22,0.01,0.25
0.8497769832611084,-0.05,0.24,0.01,0.24
0.8502259254455566,0.05,0.19,-0.05,0.2
0.8548479080200195,0.11,0.15,-0.11,0.21
0.8650610446929932,0.17,0.08,-0.14,0.23
0.8750200271606445,0.19,0.0,-0.16,0.24
0.9002690315246582,0.17,-0.02,-0.15,0.22
0.9007530212402344,0.18,0.01,-0.12,0.21
0.904958963394165,0.16,0.04,-0.07,0.17
0.9149441719055176,0.09,0.06,-0.09,0.14
0.92510986328125,0.04,0.04,-0.12,0.13
0.9349069595336914,0.06,0.09,-0.08,0.13
0.950261116027832,0.08,0.1,-0.09,0.15
0.9548799991607666,0.06,0.09,-0.14,0.17
0.9649500846862793,0.06,0.08,-0.17,0.19
0.974931001663208,0.11,0.12,-0.11,0.19
0.984982967376709,0.18,0.22,-0.05,0.28
1.0008931159973145,0.16,0.21,-0.07,0.27
1.0049760341644287,0.07,0.21,-0.18,0.28
1.014902114868164,0.05,0.21,-0.25,0.33
1.0250649452209473,0.06,0.19,-0.19,0.27
1.0348889827728271,0.07,0.14,-0.05,0.16
1.0506281852722168,0.08,0.17,0.04,0.19
1.054893970489502,0.04,0.18,0.02,0.18
1.0650429725646973,0.0,0.18,0.0,0.18
1.0750250816345215,-0.01,0.19,-0.01,0.19
1.0849640369415283,-0.06,0.22,-0.02,0.22
1.1003341674804688,-0.07,0.2,-0.06,0.22
1.1048431396484375,-0.02,0.2,-0.13,0.23
1.1147830486297607,0.06,0.21,-0.15,0.26
1.1250040531158447,0.12,0.2,-0.1,0.25
1.134894847869873,0.13,0.17,-0.06,0.22
1.1505608558654785,0.09,0.1,-0.07,0.15
1.154953956604004,0.06,0.08,-0.1,0.14
1.1650440692901611,0.1,0.05,-0.07,0.13
1.1750068664550781,0.11,0.02,-0.05,0.12
1.1849899291992188,0.11,0.05,-0.08,0.14
1.2004740238189697,0.11,0.09,-0.08,0.16
1.2050390243530273,0.07,0.1,-0.07,0.14
1.2149901390075684,0.05,0.14,-0.04,0.15
1.225027084350586,0.07,0.18,-0.04,0.19
1.2349050045013428,0.08,0.19,-0.08,0.22
1.2507119178771973,0.08,0.15,-0.08,0.18
1.2548840045928955,0.04,0.12,-0.07,0.14
1.2650818824768066,0.07,0.04,-0.06,0.1
1.2750458717346191,0.11,0.0,-0.08,0.13
1.2849910259246826,0.09,-0.02,-0.02,0.09
1.3012399673461914,0.05,-0.03,0.03,0.06
1.3050000667572021,0.05,-0.02,-0.09,0.1
1.3150060176849365,0.07,-0.04,-0.13,0.15
1.3251328468322754,0.06,-0.03,-0.12,0.13
1.3348960876464844,0.09,-0.01,0.05,0.1
1.3510651588439941,0.15,0.03,0.17,0.22
1.3549370765686035,0.16,0.07,0.15,0.23
1.3649959564208984,0.16,0.04,0.08,0.18
1.3750591278076172,0.12,-0.03,0.04,0.13
1.3849358558654785,0.12,-0.01,0.08,0.14
1.400865077972412,0.11,0.01,0.1,0.14
1.4048571586608887,0.07,0.01,0.04,0.08
1.4149088859558105,0.02,0.04,-0.05,0.06
1.4250919818878174,0.03,0.1,-0.1,0.14
1.4349360466003418,0.06,0.11,-0.01,0.12
1.449817180633545,0.06,0.05,0.05,0.09
1.4550139904022217,0.04,-0.03,0.0,0.05
1.4649710655212402,0.01,-0.08,-0.01,0.08
1.4749488830566406,0.01,-0.1,0.06,0.11
1.4849879741668701,0.04,-0.11,0.18,0.21
1.5004820823669434,0.07,-0.09,0.18,0.21
1.5049800872802734,0.07,-0.06,0.07,0.11
1.5149250030517578,0.04,-0.04,0.04,0.06
1.524960994720459,-0.01,0.0,0.05,0.05
1.5348749160766602,-0.02,0.03,0.05,0.06
1.550853967666626,-0.05,0.02,0.07,0.08
1.5547871589660645,-0.08,0.02,0.12,0.14
1.5650720596313477,-0.09,-0.01,0.15,0.17
1.575005054473877,-0.12,-0.04,0.14,0.18
1.5849261283874512,-0.13,-0.06,0.09,0.16
1.6011228561401367,-0.11,-0.05,0.05,0.13
1.6048710346221924,-0.09,-0.06,0.08,0.13
1.6149330139160156,-0.1,-0.12,0.08,0.17
1.6250770092010498,-0.13,-0.17,0.05,0.21
1.6349210739135742,-0.19,-0.25,0.04,0.31
1.652803897857666,-0.28,-0.33,0.04,0.43
1.654778003692627,-0.4,-0.37,0.03,0.54
1.6650328636169434,-0.44,-0.42,0.08,0.61
1.6749401092529297,-0.44,-0.43,0.18,0.64
1.6851110458374023,-0.45,-0.35,0.28,0.63
1.7011780738830566,-0.43,-0.32,0.35,0.64
1.7048311233520508,-0.41,-0.2,0.36,0.58
1.7148818969726562,-0.45,-0.05,0.38,0.59
1.7251439094543457,-0.62,0.09,0.32,0.7
1.734999179840088,-0.77,0.1,0.2,0.8
1.7509021759033203,-0.6,0.02,0.23,0.64
1.754749059677124,-0.52,-0.05,0.23,0.57
1.7650010585784912,-0.59,-0.11,0.26,0.65
1.7750020027160645,-0.49,-0.26,0.37,0.66
1.7849831581115723,-0.46,-0.32,0.31,0.64
1.8011109828948975,-0.53,-0.41,0.28,0.72
1.8048491477966309,-0.6,-0.47,0.33,0.83
1.8148939609527588,-0.65,-0.42,0.36,0.85
1.8251471519470215,-0.66,-0.35,0.43,0.86
1.8349189758300781,-0.7,-0.29,0.47,0.89
1.851090908050537,-0.76,-0.19,0.49,0.92
1.8547301292419434,-0.76,-0.06,0.4,0.86
1.8649580478668213,-0.73,0.09,0.25,0.77
1.8749830722808838,-0.74,0.19,0.23,0.79
1.8849859237670898,-0.7,0.19,0.28,0.77
1.9010570049285889,-0.66,0.13,0.07,0.67
1.9048480987548828,-0.64,0.09,-0.08,0.65
1.9148821830749512,-0.63,-0.03,0.06,0.63
1.9250831604003906,-0.62,-0.13,0.27,0.68
1.934938907623291,-0.52,-0.26,0.32,0.66
1.9508981704711914,-0.42,-0.42,0.14,0.61
1.954807996749878,-0.33,-0.55,0.07,0.64
1.9650030136108398,-0.26,-0.57,0.12,0.63
1.9749679565429688,-0.29,-0.47,0.19,0.58
1.985058069229126,-0.4,-0.34,0.26,0.58
2.0016980171203613,-0.57,-0.17,0.25,0.64
2.004930019378662,-0.71,-0.01,0.19,0.73
2.014871120452881,-0.77,0.07,0.15,0.78
2.025022029876709,-0.68,0.19,0.15,0.72
2.0349621772766113,-0.57,0.27,0.18,0.65
2.051990032196045,-0.58,0.21,0.18,0.64
2.0547940731048584,-0.57,0.1,0.16,0.6
2.0649309158325195,-0.57,0.04,0.22,0.61
2.074988842010498,-0.51,-0.03,0.29,0.58
2.0850110054016113,-0.4,-0.11,0.33,0.53
2.102360963821411,-0.37,-0.22,0.23,0.48
2.1048431396484375,-0.33,-0.25,0.12,0.43
2.1149790287017822,-0.2,-0.21,0.08,0.3
2.1249990463256836,-0.11,-0.16,0.0,0.19
2.1349411010742188,-0.14,-0.15,-0.14,0.24
2.1524181365966797,-0.18,-0.09,-0.19,0.27
2.1548428535461426,-0.19,-0.07,-0.1,0.22
2.165019989013672,-0.18,-0.1,0.01,0.2
2.1747798919677734,-0.13,-0.1,0.12,0.2
2.1850690841674805,-0.02,-0.08,0.15,0.17
2.2020339965820312,0.07,0.01,0.09,0.11
2.204887866973877,0.13,-0.03,-0.01,0.13
2.214959144592285,0.22,-0.05,-0.02,0.22
2.2250828742980957,0.3,0.04,0.08,0.31
2.2349071502685547,0.31,0.03,0.19,0.36
2.2527198791503906,0.34,0.08,0.31,0.46
2.254739999771118,0.34,0.08,0.29,0.45
2.265079975128174,0.3,0.13,0.17,0.36
2.2749381065368652,0.23,0.13,0.18,0.31
2.2850050926208496,0.18,0.08,0.18,0.26
2.3028810024261475,0.23,0.07,0.14,0.27
2.304935932159424,0.28,0.07,0.14,0.32
2.3149309158325195,0.3,-0.04,0.11,0.32
2.3250420093536377,0.39,-0.2,0.11,0.45
2.335002899169922,0.51,-0.36,0.09,0.63
2.3529820442199707,0.67,-0.56,0.09,0.87
2.3549680709838867,0.95,-0.67,0.14,1.17
2.3650970458984375,1.25,-0.64,0.16,1.41
2.374917984008789,1.46,-0.62,0.16,1.59
2.3850910663604736,1.5,-0.61,0.12,1.62
2.4027419090270996,1.39,-0.67,0.08,1.54
2.4050941467285156,1.27,-0.6,0.18,1.41
2.414947986602783,1.22,-0.45,0.53,1.4
2.425049066543579,1.13,-0.37,0.96,1.52
2.4349050521850586,1.0,-0.23,1.21,1.58
2.4525508880615234,0.96,-0.09,1.21,1.54
2.4551360607147217,0.98,-0.01,1.12,1.48
2.4650821685791016,0.99,0.0,1.15,1.51
2.474945068359375,0.99,-0.02,1.19,1.54
2.4850668907165527,0.9,-0.1,0.94,1.3
2.5025110244750977,0.84,-0.22,0.8,1.18
2.505270004272461,0.88,-0.35,0.85,1.27
2.514906883239746,0.89,-0.52,0.85,1.33
2.5251030921936035,0.87,-0.73,0.7,1.33
2.5349068641662598,0.8,-0.93,0.59,1.36
2.552450180053711,0.75,-1.1,0.63,1.47
2.5553669929504395,0.81,-1.22,0.77,1.65
2.5650949478149414,0.94,-1.23,0.85,1.76
2.574885845184326,0.97,-1.19,0.74,1.7
2.584949016571045,0.94,-1.1,0.61,1.57
2.6023778915405273,0.96,-1.03,0.59,1.52
2.605496883392334,0.93,-0.96,0.59,1.46
2.6150078773498535,0.92,-0.89,0.61,1.41
2.625110149383545,0.97,-0.78,0.66,1.4
2.634891986846924,0.91,-0.72,0.72,1.36
2.65268611907959,0.88,-0.72,0.75,1.36
2.6546900272369385,0.8,-0.68,0.82,1.33
2.664975166320801,0.74,-0.72,0.93,1.38
2.6749181747436523,0.71,-0.7,1.0,1.41
2.685026168823242,0.73,-0.65,1.01,1.4
2.7026748657226562,0.84,-0.64,1.0,1.45
2.7055249214172363,0.97,-0.64,1.05,1.56
2.7150111198425293,1.04,-0.61,1.08,1.61
2.7250418663024902,1.09,-0.6,1.12,1.67
2.7349748611450195,1.08,-0.67,1.15,1.71
2.7529120445251465,1.01,-0.73,1.16,1.7
2.7555909156799316,0.92,-0.7,1.18,1.65
2.765069007873535,0.84,-0.66,1.16,1.57
2.774930000305176,0.83,-0.63,1.18,1.57
2.7850818634033203,0.87,-0.59,1.17,1.57
2.803083896636963,0.93,-0.62,1.19,1.63
2.804914951324463,0.99,-0.62,1.25,1.71
2.8150129318237305,1.0,-0.62,1.35,1.79
2.825037956237793,1.06,-0.53,1.46,1.88
2.8349571228027344,1.19,-0.39,1.53,1.97
2.8534860610961914,1.25,-0.17,1.53,1.98
2.8549089431762695,1.18,0.01,1.5,1.9
2.8651161193847656,1.11,0.16,1.52,1.88
2.8747730255126953,1.11,0.31,1.54,1.92
2.885056972503662,1.07,0.44,1.59,1.96
2.9037551879882812,1.01,0.56,1.64,2.0
2.9048590660095215,0.87,0.61,1.72,2.02
2.9150350093841553,0.84,0.8,1.93,2.25
2.9249320030212402,0.81,0.94,2.08,2.42
2.934969902038574,0.83,1.08,2.07,2.47
2.9533700942993164,0.81,1.28,1.94,2.46
2.9548799991607666,0.71,1.4,1.66,2.28
2.965083122253418,0.66,1.63,1.43,2.26
2.974792957305908,0.6,1.96,1.39,2.47
2.985045909881592,0.56,2.23,1.41,2.69
3.002485990524292,0.55,2.45,1.18,2.77
3.0049500465393066,0.4,2.55,0.82,2.7
3.014914035797119,0.3,2.56,0.59,2.64
3.0250401496887207,0.22,2.53,0.54,2.59
3.0349340438842773,0.19,2.39,0.59,2.46
3.0534439086914062,0.19,2.1,0.5,2.16
3.054888963699341,0.05,1.69,0.08,1.69
3.064985990524292,-0.17,1.3,-0.54,1.41
3.075042963027954,-0.34,0.9,-1.23,1.56
3.0850138664245605,-0.65,0.59,-1.69,1.9
3.1031720638275146,-1.23,0.4,-2.0,2.38
3.104982852935791,-1.78,-0.07,-1.94,2.63
3.1149659156799316,-1.95,-0.4,-1.66,2.59
3.124850034713745,-1.89,-0.63,-1.56,2.53
3.1350300312042236,-1.84,-0.79,-1.4,2.44
3.153135061264038,-1.52,-0.75,-1.37,2.17
3.154898166656494,-1.22,-0.86,-1.38,2.03
3.165079116821289,-0.91,-0.87,-1.4,1.88
3.1748929023742676,-0.47,-0.64,-1.33,1.54
3.185068130493164,-0.03,-0.57,-1.26,1.38
3.203260898590088,0.4,-0.66,-1.18,1.4
3.204900026321411,0.75,-0.6,-1.02,1.4
3.2150380611419678,0.55,-0.35,-0.63,0.9
3.2250051498413086,-0.06,-0.26,-0.1,0.28
3.235030174255371,-0.48,-0.48,0.14,0.69
3.2534499168395996,-0.72,-0.61,-0.01,0.94
3.2548279762268066,-0.77,-0.79,-0.16,1.11
3.2651290893554688,-0.73,-0.96,-0.16,1.21
3.274945020675659,-0.63,-1.04,-0.11,1.22
3.2851338386535645,-0.51,-1.09,-0.03,1.2
3.303546905517578,-0.4,-1.18,-0.03,1.24
3.3049590587615967,-0.32,-1.29,-0.06,1.33
3.315002918243408,-0.26,-1.36,-0.07,1.38
3.3250789642333984,-0.12,-1.4,-0.11,1.4
3.3350260257720947,-0.06,-1.44,-0.14,1.44
3.354616165161133,-0.14,-1.41,-0.17,1.42
3.3550448417663574,-0.19,-1.48,-0.13,1.49
3.365108013153076,-0.15,-1.55,-0.08,1.55
3.374919891357422,0.08,-1.6,-0.06,1.6
3.3851430416107178,0.25,-1.66,-0.07,1.68
3.4043378829956055,0.33,-1.69,-0.01,1.72
3.4049129486083984,0.22,-1.65,0.15,1.67
3.415041923522949,-0.05,-1.63,0.32,1.66
3.425050973892212,-0.26,-1.5,0.41,1.57
3.4350218772888184,-0.34,-1.41,0.45,1.51
3.4546189308166504,-0.45,-1.4,0.47,1.54
3.455070972442627,-0.53,-1.45,0.49,1.61
3.4651689529418945,-0.52,-1.55,0.6,1.74
3.4748220443725586,-0.5,-1.56,0.7,1.78
3.4850988388061523,-0.42,-1.52,0.75,1.74
3.5040669441223145,-0.35,-1.46,0.78,1.69
3.5048699378967285,-0.48,-1.36,0.8,1.64
3.5149240493774414,-0.6,-1.21,0.82,1.58
3.5250449180603027,-0.66,-1.13,0.83,1.54
3.5349621772766113,-0.7,-1.08,0.78,1.5
3.5541648864746094,-0.72,-1.02,0.72,1.44
3.5548038482666016,-0.74,-1.01,0.74,1.45
3.565030097961426,-0.83,-0.86,0.87,1.47
3.5749340057373047,-0.98,-0.72,1.07,1.61
3.585172176361084,-1.11,-0.55,1.23,1.74
3.6034200191497803,-1.15,-0.28,1.31,1.76
3.604793071746826,-1.06,-0.06,1.32,1.69
3.6149659156799316,-0.86,0.15,1.31,1.57
3.6248960494995117,-0.6,0.33,1.28,1.45
3.6350440979003906,-0.38,0.46,1.29,1.42
3.6543540954589844,-0.51,0.54,1.24,1.44
3.6547820568084717,-0.67,0.62,1.16,1.47
3.6651248931884766,-0.65,0.64,1.5,1.75
3.674868106842041,-0.57,0.6,2.2,2.35
3.685091972351074,-0.46,0.42,2.69,2.76
3.7042741775512695,-0.47,0.26,2.75,2.8
3.704896926879883,-0.58,0.18,2.86,2.92
3.715024948120117,-0.69,0.41,3.33,3.42
3.724825859069824,-0.78,0.58,3.34,3.47
3.7350311279296875,-0.99,0.93,2.6,2.93
3.7545909881591797,-1.14,1.4,2.06,2.73
3.754979133605957,-1.14,1.81,2.02,2.94
3.765076160430908,-0.95,2.21,1.93,3.08
3.7748098373413086,-0.77,2.74,1.24,3.1
3.7851619720458984,-0.47,3.11,0.27,3.15
3.80410099029541,0.02,3.24,-0.62,3.29
3.8048369884490967,0.4,3.06,-1.34,3.36
3.815030097961426,0.53,2.67,-1.8,3.26
3.825011968612671,0.79,2.28,-1.97,3.11
3.835088014602661,1.15,1.58,-1.95,2.76
3.854851007461548,1.28,0.67,-2.01,2.47
3.8552939891815186,1.24,-0.17,-2.15,2.48
3.8650550842285156,1.14,-0.93,-2.32,2.74
3.874936103820801,1.23,-1.32,-2.49,3.07
3.8850221633911133,1.59,-1.32,-2.52,3.25
3.9048290252685547,1.75,-1.14,-2.26,3.07
3.9052670001983643,1.54,-0.78,-1.68,2.4
3.9150350093841553,1.21,-0.22,-1.18,1.7
3.9249579906463623,0.95,0.51,-0.86,1.37
3.9351038932800293,0.73,1.11,-0.58,1.44
3.9554781913757324,0.64,1.55,-0.28,1.7
3.955909013748169,0.61,1.93,-0.09,2.02
3.9651730060577393,0.49,2.26,-0.07,2.31
3.9749388694763184,0.56,2.39,-0.18,2.46
3.9851980209350586,0.62,2.27,-0.4,2.38
4.004328012466431,0.6,2.06,-0.73,2.26
4.005311965942383,0.51,1.45,-1.1,1.89
4.01094388961792,0.51,1.44,-1.09,1.87
4.021129131317139,0.2,0.76,-1.33,1.54
4.036489963531494,0.09,0.19,-1.3,1.31
4.041278839111328,0.13,-0.49,-0.99,1.11
4.051033973693848,0.27,-1.09,-0.53,1.24
4.0608439445495605,0.43,-1.56,-0.12,1.62
4.071107864379883,0.44,-2.0,0.02,2.04
4.0867791175842285,0.46,-2.27,-0.21,2.32
4.091336965560913,0.46,-2.42,-0.65,2.54
4.101454019546509,0.42,-2.45,-0.97,2.66
4.111541032791138,0.39,-2.36,-1.04,2.6
4.121083974838257,0.41,-2.16,-0.89,2.37
4.137385845184326,0.59,-2.08,-0.67,2.26
4.141425132751465,0.81,-2.0,-0.55,2.22
4.151166915893555,0.92,-1.84,-0.56,2.13
4.161068916320801,0.89,-1.69,-0.58,1.99
4.1710920333862305,0.69,-1.56,-0.57,1.79
4.188064098358154,0.44,-1.43,-0.46,1.56
4.191512107849121,0.34,-1.38,-0.16,1.43
4.201085090637207,0.39,-1.37,0.22,1.44
4.211069107055664,0.52,-1.41,0.41,1.55
4.221602916717529,0.7,-1.44,0.56,1.69
4.238531112670898,0.89,-1.42,0.85,1.87
4.241566181182861,1.05,-1.42,1.13,2.09
4.251160144805908,1.11,-1.37,1.07,2.06
4.261094093322754,1.17,-1.33,0.74,1.91
4.2712531089782715,1.22,-1.24,0.45,1.79
4.289103031158447,1.21,-1.18,0.36,1.72
4.291064023971558,1.23,-1.1,0.54,1.73
4.301330089569092,1.19,-0.79,0.98,1.73
4.311089992523193,1.12,-0.43,1.36,1.81
4.321223974227905,1.08,0.09,1.43,1.79
4.339706897735596,1.07,0.57,1.34,1.8
4.340901851654053,1.0,1.06,1.34,1.97
4.3511128425598145,0.91,1.5,1.49,2.3
4.361084938049316,0.95,1.96,1.79,2.81
4.371181964874268,1.01,2.31,2.13,3.3
4.389287948608398,0.98,2.3,2.29,3.39
4.39093804359436,0.86,2.08,2.15,3.11
4.405210971832275,0.45,1.57,2.16,2.7
4.415184020996094,0.3,1.29,2.47,2.8
4.42563796043396,0.21,1.11,2.99,3.19
4.4352500438690186,0.09,1.18,3.27,3.47
4.458616018295288,-0.08,1.47,2.64,3.02
4.4598588943481445,-0.15,1.64,1.97,2.56
4.465138912200928,-0.29,1.75,1.68,2.44
4.477805137634277,-0.49,2.09,1.42,2.57
4.485306978225708,-0.62,2.52,0.91,2.75
4.508723974227905,-0.8,2.83,0.26,2.95
4.5099711418151855,-0.79,3.15,-0.54,3.29
4.5150041580200195,-0.5,3.62,-1.4,3.91
4.527915000915527,-0.2,3.57,-2.31,4.25
4.53504204750061,-0.59,2.88,-3.14,4.3
4.557842016220093,-1.18,2.46,-3.69,4.58
4.559067964553833,-1.58,1.68,-3.98,4.59
4.565131187438965,-2.08,0.82,-3.85,4.45
4.574993133544922,-2.45,-0.03,-3.22,4.04
4.590769052505493,-2.45,-0.78,-2.16,3.35
4.5950798988342285,-2.12,-1.16,-1.07,2.64
4.604948043823242,-1.69,-1.5,-0.3,2.27
4.615088939666748,-0.99,-1.46,0.05,1.76
4.625021934509277,-0.36,-0.92,0.0,0.98
4.640807151794434,-0.25,-0.18,-0.21,0.37
4.644996166229248,-0.56,0.3,-0.25,0.68
4.65485405921936,-0.53,0.52,-0.3,0.8
4.665102958679199,-0.36,0.61,-0.54,0.89
4.675006866455078,-0.4,0.63,-0.94,1.2
4.69139289855957,-0.52,0.54,-1.29,1.49
4.694857120513916,-0.56,0.14,-1.42,1.53
4.704952001571655,-0.34,-0.32,-1.34,1.41
4.715022087097168,0.18,-0.8,-1.12,1.38
4.724977016448975,0.76,-1.32,-0.87,1.75
4.741348028182983,1.06,-1.81,-0.57,2.17
4.744953155517578,1.1,-2.22,-0.35,2.5
4.754939079284668,0.8,-2.4,-0.35,2.55
4.765183925628662,0.51,-2.47,-0.48,2.56
4.77491307258606,0.45,-2.53,-0.54,2.62
4.791056156158447,0.42,-2.52,-0.63,2.63
4.794993877410889,0.41,-2.45,-0.71,2.58
4.804939031600952,0.54,-2.3,-0.72,2.46
4.814974069595337,0.6,-2.17,-0.71,2.36
4.825019836425781,0.51,-1.95,-0.63,2.11
4.841052055358887,0.32,-1.75,-0.49,1.84
4.845041036605835,0.1,-1.54,-0.3,1.57
4.854856967926025,-0.22,-1.44,-0.07,1.45
4.865079879760742,-0.37,-1.56,0.1,1.6
4.874907970428467,-0.29,-1.62,0.25,1.66
4.890676021575928,-0.34,-1.59,0.5,1.7
4.895061016082764,-0.41,-1.56,0.77,1.78
4.9049601554870605,-0.41,-1.44,0.88,1.73
4.915048122406006,-0.55,-1.37,0.85,1.7
4.924921989440918,-0.7,-1.37,0.74,1.7
4.940794944763184,-0.8,-1.32,0.76,1.72
4.944860935211182,-0.91,-1.23,0.76,1.7
4.954937934875488,-1.01,-1.07,0.75,1.65
4.965097904205322,-1.09,-0.88,0.83,1.62
4.974971055984497,-1.11,-0.69,1.02,1.65
4.9904608726501465,-0.97,-0.48,1.18,1.6
4.995007038116455,-0.85,-0.22,1.26,1.53
5.005033016204834,-0.81,0.11,1.3,1.53
5.015127182006836,-0.82,0.49,1.24,1.56
5.025119066238403,-0.83,0.85,1.16,1.66
5.040220022201538,-0.88,1.1,1.16,1.82
5.045135974884033,-0.9,1.31,1.23,2.0
5.055046081542969,-0.81,1.42,1.46,2.19
5.065184116363525,-0.7,1.4,1.76,2.35
5.07512092590332,-0.54,1.35,2.15,2.59
5.090734004974365,-0.55,1.27,2.54,2.89
5.094856023788452,-0.72,1.19,3.08,3.37
5.105008125305176,-0.88,1.47,3.91,4.26
5.115031957626343,-0.86,1.73,4.05,4.48
5.125046968460083,-0.89,1.94,2.91,3.6
5.1407470703125,-0.94,2.35,1.85,3.13
5.145078182220459,-0.89,2.56,1.54,3.11
5.154944896697998,-0.81,2.86,1.44,3.3
5.165176868438721,-0.46,3.15,0.96,3.32
5.175075054168701,0.14,3.25,0.02,3.25
5.191509962081909,0.56,2.99,-1.1,3.23
5.195011138916016,0.99,2.63,-1.97,3.43
5.205071926116943,1.41,2.07,-2.49,3.53
5.215123176574707,1.58,1.3,-2.86,3.51
5.225180149078369,1.5,0.41,-3.22,3.57
5.241294860839844,1.19,-0.57,-3.45,3.69
5.245131969451904,0.89,-1.26,-3.4,3.73
5.255019187927246,0.83,-1.57,-2.82,3.33
5.265181064605713,1.29,-1.42,-1.87,2.67
5.275079965591431,1.7,-0.87,-1.04,2.17
5.291007041931152,1.55,-0.42,-0.61,1.71
5.295030117034912,1.23,0.09,-0.44,1.3
5.305045127868652,0.66,0.85,-0.21,1.09
5.315140008926392,-0.04,1.4,0.03,1.4
5.325140953063965,-0.52,1.72,0.18,1.8
5.341215133666992,-0.84,1.89,0.03,2.06
5.345107078552246,-0.91,2.15,-0.14,2.33
5.355049133300781,-0.58,2.19,-0.3,2.28
5.365182876586914,-0.26,1.78,-0.6,1.89
5.375051975250244,0.15,1.04,-1.06,1.49
5.391494989395142,0.41,0.17,-1.57,1.63
5.394956111907959,0.55,-0.63,-1.77,1.95
5.405137062072754,0.85,-1.36,-1.52,2.2
5.415189027786255,1.09,-2.02,-0.94,2.48
5.42511510848999,1.19,-2.5,-0.3,2.78
5.441638946533203,1.01,-2.71,0.04,2.89
5.444972991943359,0.66,-2.74,-0.1,2.82
5.454955101013184,0.37,-2.52,-0.55,2.6
5.465111970901489,0.29,-2.3,-0.88,2.47
5.474998950958252,0.4,-2.18,-1.03,2.44
5.4911699295043945,0.59,-1.97,-1.11,2.33
5.494894981384277,0.83,-1.76,-1.12,2.24
5.505005836486816,0.98,-1.57,-1.08,2.14
5.515099048614502,1.11,-1.49,-0.88,2.05
5.525074005126953,1.09,-1.6,-0.57,2.01
5.5413219928741455,0.93,-1.69,-0.26,1.94
5.544875144958496,0.8,-1.76,0.07,1.93
5.5549280643463135,0.79,-1.81,0.38,2.01
5.5650880336761475,0.9,-1.76,0.65,2.08
5.574962139129639,0.97,-1.74,0.78,2.13
5.591136932373047,0.96,-1.68,0.77,2.08
5.594825029373169,0.94,-1.52,0.68,1.91
5.604986190795898,0.91,-1.39,0.55,1.75
5.615177154541016,0.88,-1.31,0.37,1.62
5.625092029571533,0.85,-1.19,0.2,1.47
5.641058921813965,0.76,-0.94,0.26,1.23
5.645025968551636,0.65,-0.59,0.7,1.12
5.655016899108887,0.66,-0.19,1.23,1.4
5.66513204574585,0.77,0.19,1.51,1.7
5.675066947937012,0.97,0.6,1.39,1.79
5.691091060638428,1.11,1.0,1.13,1.87
5.6949591636657715,1.12,1.44,1.08,2.12
5.705122947692871,1.01,1.92,1.47,2.62
5.715237140655518,0.77,2.38,2.14,3.29
5.725080966949463,0.44,2.71,2.57,3.76
5.741146087646484,0.21,2.7,2.43,3.63
5.745020866394043,0.22,2.51,2.01,3.22
5.755038022994995,0.19,2.26,1.92,2.97
5.76515007019043,-0.05,2.02,2.21,2.99
5.775053977966309,-0.23,2.13,2.97,3.66
5.791635036468506,-0.24,2.2,3.41,4.06
5.794888973236084,-0.37,2.47,2.65,3.64
5.805078029632568,-0.6,2.66,1.84,3.28
5.815099000930786,-0.88,2.68,1.56,3.22
5.825127124786377,-1.03,2.96,1.32,3.4
5.841814041137695,-1.16,3.23,0.77,3.51
5.845062017440796,-1.35,3.35,-0.24,3.61
5.8551411628723145,-1.12,3.58,-1.41,4.0
5.8652448654174805,-0.51,3.34,-2.47,4.18
5.8750901222229,-0.76,2.57,-3.41,4.33
5.891908168792725,-1.24,2.03,-4.2,4.82
5.8948609828948975,-1.45,1.3,-4.53,4.93
5.905211925506592,-1.54,0.55,-4.14,4.45
5.915071964263916,-1.85,-0.09,-2.98,3.5
5.925137996673584,-2.21,-0.74,-1.72,2.89
5.941840171813965,-2.26,-1.34,-0.54,2.68
5.944972991943359,-2.02,-1.97,0.13,2.82
5.955122947692871,-1.47,-2.07,0.06,2.53
5.965029954910278,-0.96,-1.77,-0.44,2.06
5.975085020065308,-0.65,-0.74,-0.58,1.14
5.991919040679932,-0.42,-0.38,-0.29,0.63
5.994923114776611,0.17,-0.29,-0.25,0.41
6.005182981491089,0.7,0.04,-0.64,0.94
6.014975070953369,0.84,0.3,-1.06,1.38
6.025209903717041,0.63,0.38,-1.38,1.56
6.042371988296509,0.35,0.24,-1.54,1.59
6.045001983642578,0.1,-0.21,-1.47,1.48
6.0551581382751465,-0.05,-0.88,-1.23,1.51
6.065073013305664,0.03,-1.34,-0.96,1.64
6.075101852416992,0.19,-1.87,-0.69,2.0
6.0928730964660645,0.37,-2.42,-0.46,2.49
6.0949931144714355,0.48,-2.77,-0.4,2.83
6.105313062667847,0.58,-2.96,-0.45,3.04
6.115087032318115,0.65,-2.93,-0.5,3.04
6.125104904174805,0.67,-2.84,-0.56,2.97
6.142626047134399,0.6,-2.66,-0.65,2.8
6.145101070404053,0.47,-2.32,-0.69,2.46
6.155205011367798,0.33,-2.05,-0.57,2.15
6.165259838104248,0.07,-1.92,-0.33,1.94
6.175094127655029,-0.17,-1.86,-0.02,1.86
6.192273139953613,-0.3,-1.85,0.23,1.88
6.195199012756348,-0.31,-1.81,0.43,1.88
6.205188035964966,-0.33,-1.84,0.57,1.95
6.214998006820679,-0.44,-1.79,0.75,1.99
6.225123882293701,-0.49,-1.69,0.95,1.99
6.24266505241394,-0.53,-1.61,1.12,2.03
6.245253086090088,-0.65,-1.43,1.13,1.93
6.255178928375244,-0.82,-1.26,1.01,1.81
6.265223026275635,-0.92,-1.09,0.91,1.69
6.275115966796875,-1.01,-0.92,0.77,1.56
6.292885065078735,-1.14,-0.77,0.69,1.53
6.2952961921691895,-1.19,-0.65,0.71,1.53
6.305295944213867,-1.09,-0.49,0.77,1.42
6.3151421546936035,-0.87,-0.35,0.91,1.3
6.325121879577637,-0.73,-0.18,1.14,1.36
6.342926025390625,-0.72,0.06,1.42,1.59
6.3453919887542725,-0.69,0.35,1.63,1.8
6.3552141189575195,-0.7,0.66,1.75,1.99
6.365077972412109,-0.75,1.01,1.85,2.23
6.3750059604644775,-0.8,1.33,2.04,2.56
6.393143177032471,-0.81,1.48,2.18,2.75
6.395539045333862,-0.54,1.51,2.06,2.61
6.405241966247559,-0.35,1.48,1.97,2.48
6.41500997543335,-0.61,1.25,2.24,2.63
6.425106048583984,-1.12,1.33,3.15,3.59
6.443534851074219,-1.24,1.63,3.92,4.42
6.445544004440308,-1.21,1.88,3.31,3.99
6.45514702796936,-1.22,2.11,2.3,3.35
6.465082168579102,-0.98,2.42,2.0,3.28
6.475080966949463,-0.63,2.92,1.72,3.44
6.493406057357788,-0.19,3.31,0.77,3.4
6.495692014694214,0.53,3.8,-0.61,3.88
6.505187034606934,1.28,3.91,-1.83,4.5
6.5151190757751465,1.41,3.34,-2.89,4.63
6.52512001991272,1.25,2.81,-3.76,4.85
6.543830871582031,1.1,1.82,-4.24,4.74
6.5450520515441895,0.97,0.55,-4.2,4.34
6.555170059204102,0.85,-0.4,-3.5,3.62
6.565132141113281,0.98,-1.09,-2.14,2.59
6.575149059295654,1.53,-1.23,-0.55,2.03
6.593526840209961,2.07,-1.03,0.51,2.36
6.595012187957764,2.08,-0.49,0.44,2.18
6.605197906494141,1.48,-0.16,-0.3,1.51
6.6150221824646,0.66,0.39,-0.74,1.06
6.625148057937622,-0.17,1.12,-0.65,1.3
6.643302917480469,-0.86,1.55,-0.33,1.8
6.645100116729736,-1.11,1.92,-0.24,2.23
6.655212879180908,-0.85,2.5,-0.53,2.69
6.66506290435791,-0.45,2.98,-0.58,3.06
6.67507791519165,-0.11,2.8,-0.43,2.83
6.693320989608765,0.3,2.16,-0.53,2.24
6.695070028305054,0.64,1.17,-0.95,1.63
6.705234050750732,0.57,0.25,-1.48,1.6
6.715038061141968,0.45,-0.57,-1.71,1.85
6.72513484954834,0.54,-1.38,-1.48,2.09
6.743831157684326,0.63,-2.01,-0.98,2.32
6.745016098022461,0.7,-2.51,-0.45,2.64
6.75520396232605,0.75,-2.84,-0.16,2.94
6.765135049819946,0.76,-2.91,-0.26,3.01
6.77510404586792,0.65,-2.93,-0.56,3.05
6.793878078460693,0.56,-2.86,-0.85,3.03
6.795041084289551,0.55,-2.82,-1.01,3.04
6.805261135101318,0.69,-2.74,-1.08,3.02
6.815032005310059,0.93,-2.56,-1.12,2.94
6.825142860412598,1.09,-2.38,-1.13,2.85
6.84362006187439,1.22,-2.25,-1.05,2.76
6.845084190368652,1.31,-2.18,-0.88,2.69
6.855298042297363,1.26,-2.17,-0.63,2.58
6.8650829792022705,1.15,-2.11,-0.3,2.42
6.875180006027222,1.0,-2.03,0.05,2.26
6.893854141235352,0.86,-1.97,0.39,2.18
6.894905090332031,0.88,-1.9,0.6,2.17
6.905229091644287,0.92,-1.84,0.71,2.17
6.915027141571045,0.96,-1.78,0.66,2.12
6.92523193359375,1.02,-1.7,0.48,2.03
6.943716049194336,0.98,-1.55,0.29,1.85
6.945180892944336,0.91,-1.16,0.39,1.52
6.955203056335449,0.92,-0.65,0.88,1.42
6.965054035186768,1.01,-0.02,1.36,1.69
6.9751129150390625,1.02,0.69,1.58,2.0
6.99370002746582,0.93,1.33,1.45,2.17
6.994915008544922,0.93,1.89,1.33,2.49
7.005174160003662,1.02,2.3,1.46,2.9
7.015014171600342,1.02,2.49,1.81,3.24
7.02518892288208,0.79,2.65,2.19,3.52
7.043621063232422,0.46,2.64,2.34,3.55
7.045040130615234,0.22,2.48,2.31,3.39
7.05510401725769,0.05,2.32,2.46,3.38
7.065080165863037,-0.2,2.29,2.8,3.62
7.07515287399292,-0.27,2.42,3.09,3.93
7.0939600467681885,-0.26,2.51,2.85,3.8
7.094949960708618,-0.34,2.73,2.21,3.52
7.105180978775024,-0.39,2.88,1.79,3.41
7.1149680614471436,-0.46,3.1,1.43,3.44
7.125123023986816,-0.67,3.43,0.86,3.59
7.143864154815674,-1.09,3.74,0.0,3.89
7.145020961761475,-1.24,3.93,-1.03,4.24
7.155270099639893,-1.19,3.54,-2.23,4.34
7.165088176727295,-1.25,2.8,-3.45,4.61
7.175149917602539,-1.24,2.13,-4.44,5.07
7.1942479610443115,-1.32,1.21,-4.66,4.99
7.194926977157593,-1.53,0.54,-3.88,4.2
7.2051310539245605,-1.85,-0.02,-2.18,2.85
7.215057849884033,-1.98,-0.49,-0.23,2.05
7.2252631187438965,-2.01,-0.59,0.75,2.22
7.243888854980469,-1.82,-0.45,0.09,1.87
7.245038032531738,-1.74,-0.59,-1.08,2.13
7.255131006240845,-1.97,-0.77,-1.53,2.61
7.26505708694458,-1.54,-0.24,-1.44,2.12
7.275134086608887,-0.75,0.38,-0.98,1.29
7.294011116027832,-0.1,0.64,-0.46,0.79
7.294939041137695,0.31,0.54,-0.18,0.64
7.305274963378906,0.32,0.36,-0.28,0.55
7.315055847167969,0.07,0.06,-0.67,0.67
7.3252270221710205,-0.15,-0.43,-1.01,1.1
7.344334125518799,-0.2,-0.86,-1.18,1.47
7.345027923583984,-0.06,-1.29,-1.12,1.7
7.355135917663574,0.15,-1.73,-0.86,1.93
7.365084171295166,0.38,-2.12,-0.57,2.22
7.375159025192261,0.59,-2.42,-0.45,2.53
7.394270896911621,0.66,-2.58,-0.54,2.71
7.394947052001953,0.66,-2.75,-0.65,2.9
7.4051971435546875,0.68,-2.78,-0.68,2.94
7.415040016174316,0.71,-2.75,-0.66,2.91
7.425197124481201,0.73,-2.66,-0.7,2.84
7.443943977355957,0.67,-2.49,-0.78,2.69
7.44505500793457,0.52,-2.35,-0.74,2.51
7.455145835876465,0.38,-2.31,-0.59,2.41
7.465190887451172,0.22,-2.23,-0.41,2.27
7.475121021270752,0.03,-2.13,-0.19,2.13
7.49493408203125,-0.17,-2.1,0.05,2.1
7.495357990264893,-0.34,-2.14,0.31,2.18
7.5052080154418945,-0.4,-2.14,0.5,2.23
7.515127182006836,-0.36,-2.05,0.59,2.16
7.525212049484253,-0.44,-1.96,0.64,2.1
7.544945001602173,-0.62,-1.8,0.75,2.04
7.545354843139648,-0.8,-1.53,0.81,1.9
7.555248022079468,-0.98,-1.29,0.86,1.83
7.565187931060791,-1.15,-0.99,0.76,1.69
7.575173854827881,-1.26,-0.76,0.69,1.62
7.594808101654053,-1.22,-0.54,0.78,1.54
7.595237970352173,-1.04,-0.38,1.02,1.5
7.605269908905029,-0.86,-0.22,1.25,1.53
7.615066051483154,-0.7,-0.08,1.28,1.46
7.625205039978027,-0.65,-0.01,1.18,1.34
7.644794940948486,-0.64,0.27,1.23,1.41
7.645241022109985,-0.66,0.7,1.54,1.81
7.655287981033325,-0.68,1.15,2.04,2.43
7.665102005004883,-0.75,1.63,2.44,3.02
7.675207138061523,-0.86,1.92,2.56,3.31
7.694962978363037,-0.8,1.91,2.31,3.1
7.695389032363892,-0.79,1.83,2.08,2.88
7.705322980880737,-0.96,1.67,2.12,2.86
7.715033054351807,-1.33,1.83,2.54,3.4
7.725221157073975,-1.7,2.07,3.34,4.28
7.745080947875977,-1.73,2.23,3.35,4.38
7.74550199508667,-1.51,2.27,2.19,3.49
7.755357980728149,-1.12,2.39,0.94,2.8
7.765161991119385,-0.37,2.75,0.17,2.77
7.775263071060181,0.55,3.07,-0.21,3.12
7.795222043991089,1.33,3.18,-0.66,3.5
7.795647144317627,1.84,3.03,-1.62,3.89
7.805230140686035,1.95,2.9,-2.72,4.42
7.815122127532959,1.87,2.35,-3.56,4.65
7.82532000541687,1.48,1.29,-3.92,4.38
7.844934940338135,1.07,0.34,-3.82,3.98
7.845362186431885,0.92,-0.35,-3.26,3.4
7.855246067047119,1.13,-0.69,-2.17,2.54
7.865200042724609,1.65,-0.8,-1.09,2.13
7.875217914581299,2.43,-0.66,-0.45,2.55
7.895462989807129,2.93,-0.17,-0.25,2.94
7.895876884460449,2.46,0.4,-0.32,2.51
7.905231952667236,1.38,1.08,-0.3,1.77
7.91513204574585,0.08,1.72,-0.01,1.72
7.9252259731292725,-0.98,2.09,0.12,2.31
7.9451329708099365,-1.37,2.44,-0.16,2.8
7.945554971694946,-1.36,2.76,-0.63,3.14
7.955193996429443,-1.2,3.06,-0.79,3.38
7.965183973312378,-0.73,2.67,-0.7,2.85
7.9751691818237305,-0.02,1.68,-0.7,1.82
7.995306015014648,0.41,0.72,-1.04,1.32
7.995730876922607,0.45,-0.22,-1.4,1.48
8.005553007125854,0.56,-1.13,-1.45,1.92
8.01115608215332,0.58,-1.12,-1.46,1.92
8.021324157714844,0.68,-1.85,-1.25,2.33
8.044092178344727,0.68,-2.43,-0.87,2.66
8.044506072998047,0.69,-2.84,-0.56,2.97
8.051206111907959,0.63,-3.08,-0.51,3.18
8.06130313873291,0.48,-3.16,-0.69,3.26
8.071346044540405,0.35,-3.06,-0.89,3.2
8.094990968704224,0.31,-2.85,-0.99,3.03
8.095376968383789,0.45,-2.72,-0.99,2.92
8.101521015167236,0.6,-2.49,-0.99,2.74
8.111248016357422,0.69,-2.17,-0.96,2.47
8.12127685546875,0.75,-1.91,-0.95,2.26
8.145015001296997,0.87,-1.78,-0.97,2.2
8.145502090454102,1.08,-1.64,-0.85,2.13
8.151376008987427,1.23,-1.58,-0.56,2.07
8.161383152008057,1.14,-1.6,-0.16,1.97
8.171340942382812,1.06,-1.63,0.21,1.95
8.196676015853882,0.92,-1.67,0.37,1.94
8.19717001914978,0.8,-1.65,0.44,1.88
8.201236009597778,0.81,-1.63,0.45,1.87
8.211370944976807,0.85,-1.5,0.4,1.76
8.221774101257324,0.9,-1.28,0.41,1.61
8.24609899520874,0.9,-0.92,0.69,1.46
8.246546983718872,0.9,-0.47,0.99,1.41
8.25142502784729,0.98,0.12,1.15,1.51
8.261289119720459,1.09,0.69,1.2,1.76
8.27131986618042,1.18,1.17,1.14,2.01
8.296389102935791,1.39,1.56,1.0,2.31
8.2969069480896,1.55,1.79,1.06,2.59
8.301476955413818,1.34,1.81,1.47,2.68
8.31141710281372,1.01,2.01,1.87,2.92
8.32132601737976,0.69,2.13,2.21,3.14
8.346451044082642,0.36,2.11,2.37,3.19
8.346948146820068,0.15,1.93,2.31,3.01
8.351438999176025,-0.12,1.59,2.25,2.75
8.361186981201172,-0.53,1.16,2.44,2.75
8.371242046356201,-0.83,0.84,3.06,3.27
8.396665096282959,-0.29,1.29,3.67,3.9
8.397194862365723,0.04,1.61,2.96,3.36
8.404191970825195,-1.03,2.29,1.46,2.9
8.413933992385864,-1.2,2.58,1.63,3.27
8.424129962921143,-1.64,2.96,1.43,3.67
8.447114944458008,-1.96,3.5,0.51,4.04
8.447540044784546,-1.84,3.79,-0.84,4.29
8.453917980194092,-1.3,3.85,-2.13,4.58
8.464086055755615,-0.61,3.52,-3.27,4.84
8.474049091339111,-0.35,2.51,-4.35,5.03
8.496623992919922,-0.45,1.54,-5.11,5.35
8.497046947479248,-0.64,0.88,-5.3,5.41
8.504081010818481,-0.89,0.31,-4.52,4.61
8.513980865478516,-1.34,-0.42,-2.72,3.06
8.524185180664062,-1.86,-0.62,-0.47,2.01
8.546597957611084,-2.35,-0.93,1.23,2.81
8.547029972076416,-2.26,-1.15,1.74,3.07
8.553956031799316,-1.8,-1.3,0.73,2.33
8.564105987548828,-1.13,-0.94,-0.65,1.6
8.574146032333374,-0.56,-0.57,-1.06,1.32
8.596542835235596,0.03,-0.67,-0.98,1.18
8.596980094909668,0.71,-0.54,-1.03,1.36
8.604120016098022,1.02,-0.32,-1.17,1.58
8.61399793624878,0.9,-0.33,-1.31,1.62
8.624104022979736,0.56,-0.63,-1.43,1.65
8.64707088470459,0.28,-1.08,-1.38,1.77
8.647490978240967,0.04,-1.53,-1.13,1.9
8.654062986373901,-0.04,-1.87,-0.78,2.02
8.664042949676514,0.04,-2.22,-0.47,2.26
8.67403793334961,0.16,-2.5,-0.35,2.52
8.696706056594849,0.28,-2.66,-0.41,2.7
8.69712495803833,0.39,-2.68,-0.42,2.74
8.704164028167725,0.56,-2.57,-0.4,2.66
8.713963031768799,0.7,-2.35,-0.45,2.49
8.724173069000244,0.61,-2.15,-0.56,2.3
8.747291088104248,0.44,-1.95,-0.59,2.08
8.74770998954773,0.22,-1.69,-0.48,1.77
8.754101037979126,-0.14,-1.55,-0.3,1.58
8.764064073562622,-0.49,-1.46,-0.07,1.54
8.77402400970459,-0.67,-1.62,0.07,1.75
8.79736614227295,-0.55,-1.8,0.07,1.88
8.79780387878418,-0.38,-1.97,0.24,2.02
8.80417013168335,-0.23,-2.22,0.55,2.29
8.813951969146729,-0.15,-2.2,0.78,2.33
8.824115991592407,-0.2,-2.06,0.81,2.22
8.84722089767456,-0.25,-1.85,0.78,2.02
8.847638130187988,-0.3,-1.5,0.72,1.69
8.854033946990967,-0.5,-1.25,0.64,1.49
8.864125967025757,-0.72,-0.94,0.71,1.38
8.874093055725098,-0.95,-0.56,0.99,1.48
8.89749002456665,-1.12,-0.2,1.35,1.76
8.897912979125977,-1.13,0.14,1.55,1.92
8.904092073440552,-1.02,0.4,1.51,1.86
8.914021015167236,-0.9,0.59,1.3,1.68
8.924159049987793,-0.8,0.85,1.14,1.63
8.947613000869751,-0.74,1.07,1.29,1.83
8.948037147521973,-0.71,1.3,1.66,2.22
8.954008102416992,-0.67,1.54,2.08,2.67
8.964128971099854,-0.66,1.69,2.43,3.03
8.974086999893188,-0.65,1.75,2.59,3.19
8.997686862945557,-0.73,1.68,2.61,3.18
8.998110055923462,-1.1,1.58,2.62,3.25
9.004132986068726,-1.52,1.88,2.89,3.76
9.013995170593262,-1.44,2.11,3.49,4.32
9.024166107177734,-1.3,2.14,3.29,4.13
9.047600984573364,-1.12,2.35,2.23,3.42
9.048034191131592,-0.75,2.49,1.23,2.87
9.05402398109436,-0.18,2.74,0.47,2.78
9.064066886901855,0.52,3.05,-0.31,3.1
9.074120044708252,1.27,3.22,-1.22,3.67
9.097216129302979,1.95,3.05,-2.3,4.28
9.097647190093994,2.34,2.79,-3.37,4.96
9.104140043258667,2.25,2.11,-4.08,5.11
9.113883972167969,1.87,1.2,-4.33,4.86
9.124099016189575,1.52,0.31,-4.0,4.29
9.147539138793945,1.49,-0.3,-2.9,3.27
9.14796495437622,1.9,-0.44,-1.28,2.33
9.154004096984863,2.32,-0.32,0.17,2.34
9.164134979248047,2.11,-0.11,0.47,2.16
9.174084186553955,1.46,0.3,-0.19,1.5
9.19784688949585,0.56,0.98,-0.74,1.34
9.19825792312622,-0.56,1.77,-0.76,2.0
9.204083919525146,-1.67,2.2,-0.22,2.77
9.214075088500977,-1.94,2.15,0.19,2.9
9.224165916442871,-1.63,2.37,-0.06,2.87
9.247826099395752,-1.22,2.56,-0.59,2.89
9.248242855072021,-0.27,2.37,-1.05,2.6
9.25404691696167,0.63,1.69,-1.37,2.26
9.264133930206299,0.87,0.61,-1.58,1.9
9.274132013320923,0.81,-0.33,-1.53,1.76
9.297812938690186,0.85,-1.14,-1.18,1.84
9.29825496673584,0.93,-1.96,-0.7,2.27
9.3041410446167,0.95,-2.62,-0.32,2.8
9.314090013504028,0.82,-3.06,-0.19,3.17
9.32420015335083,0.57,-3.34,-0.29,3.4
9.34787893295288,0.43,-3.48,-0.57,3.55
9.348302841186523,0.39,-3.38,-0.87,3.51
9.354032039642334,0.42,-3.07,-0.96,3.24
9.364161968231201,0.64,-2.79,-0.8,2.97
9.374116897583008,0.87,-2.57,-0.63,2.78
9.397395133972168,1.07,-2.3,-0.52,2.58
9.397811889648438,1.18,-2.03,-0.54,2.4
9.404067993164062,1.12,-1.91,-0.46,2.26
9.414034843444824,1.13,-1.87,-0.28,2.2
9.424206972122192,1.16,-1.84,-0.06,2.17
9.448009014129639,1.1,-1.87,0.16,2.17
9.448440074920654,1.08,-2.0,0.34,2.29
9.454015016555786,1.07,-2.09,0.43,2.38
9.464130878448486,1.0,-2.09,0.49,2.36
9.474117994308472,0.94,-2.07,0.39,2.3
9.497933864593506,0.94,-2.02,0.15,2.23
9.4983491897583,1.0,-1.96,0.1,2.2
9.504117012023926,0.97,-1.57,0.38,1.88
9.514060974121094,1.01,-0.91,0.83,1.59
9.5241379737854,1.1,-0.21,1.27,1.69
9.547981023788452,1.19,0.45,1.46,1.93
9.548405170440674,1.26,0.89,1.33,2.03
9.553961038589478,1.25,1.2,1.16,2.08
9.56413197517395,1.2,1.71,1.28,2.44
9.574074029922485,1.09,2.23,1.69,3.0
9.598013877868652,0.72,2.7,2.22,3.56
9.598430156707764,0.18,2.9,2.45,3.8
9.604099035263062,-0.42,2.94,2.33,3.77
9.614047050476074,-0.55,2.86,2.25,3.68
9.624130010604858,-0.33,2.75,2.68,3.85
9.64814305305481,0.02,2.62,3.16,4.1
9.648555994033813,0.08,2.66,2.75,3.82
9.654041051864624,-0.23,2.74,1.98,3.38
9.664128065109253,-0.28,2.54,1.74,3.09
9.674127101898193,-0.2,2.62,1.74,3.15
9.697997093200684,-0.53,3.03,1.45,3.4
9.698410987854004,-1.08,3.35,0.57,3.56
9.704062938690186,-1.45,3.79,-0.46,4.08
9.714027881622314,-1.64,4.04,-1.34,4.56
9.724148988723755,-1.79,3.72,-2.33,4.74
9.748368978500366,-2.12,2.77,-3.5,4.94
9.748795986175537,-2.16,1.85,-4.68,5.47
9.754111051559448,-2.0,0.77,-5.31,5.72
9.764104843139648,-2.0,-0.19,-4.94,5.33
9.774096012115479,-2.0,-0.59,-3.57,4.13
9.798789024353027,-2.09,-0.91,-1.22,2.58
9.799240112304688,-2.15,-0.93,1.31,2.68
9.804224014282227,-1.76,-0.55,2.29,2.94
9.813997030258179,-0.94,-0.2,0.98,1.37
9.824210166931152,-0.38,-0.03,-0.72,0.81
9.848451137542725,-0.34,0.2,-1.33,1.38
9.848886013031006,-0.19,0.49,-1.29,1.39
9.85391092300415,0.3,0.36,-1.17,1.26
9.864135026931763,0.56,0.11,-1.21,1.33
9.874176979064941,0.34,-0.28,-1.2,1.27
9.899065971374512,0.08,-0.86,-0.98,1.3
9.89949107170105,-0.04,-1.4,-0.74,1.58
9.90415906906128,-0.05,-1.96,-0.61,2.05
9.914111137390137,0.08,-2.39,-0.52,2.44
9.924229145050049,0.29,-2.74,-0.41,2.78
9.948699951171875,0.53,-3.07,-0.36,3.13
9.949119091033936,0.69,-3.18,-0.43,3.28
9.954144954681396,0.68,-3.15,-0.57,3.27
9.96415400505066,0.67,-3.07,-0.66,3.21
9.97407603263855,0.82,-2.85,-0.67,3.04
9.999183177947998,0.87,-2.6,-0.58,2.8
9.999605178833008,0.7,-2.45,-0.4,2.57
10.004150867462158,0.45,-2.29,-0.28,2.35
10.014098167419434,0.04,-2.17,-0.25,2.18
10.024190902709961,-0.45,-2.09,-0.2,2.14
10.048983097076416,-0.71,-2.07,0.0,2.18
10.04940414428711,-0.64,-2.1,0.29,2.21
10.05421495437622,-0.49,-2.17,0.57,2.29
10.064227104187012,-0.36,-2.15,0.75,2.3
10.074204921722412,-0.32,-2.05,0.76,2.2
10.09939193725586,-0.45,-1.9,0.74,2.08
10.099820137023926,-0.65,-1.62,0.65,1.86
10.104160070419312,-0.84,-1.28,0.48,1.6
10.114022970199585,-1.03,-0.97,0.46,1.48
10.124099016189575,-1.19,-0.66,0.66,1.51
10.1492760181427,-1.25,-0.43,1.05,1.68
10.149739027023315,-1.18,-0.15,1.33,1.78
10.154106140136719,-0.97,0.15,1.34,1.66
10.164245128631592,-0.81,0.41,1.23,1.52
10.174154996871948,-0.74,0.63,1.21,1.55
10.19930100440979,-0.69,0.86,1.5,1.86
10.199719905853271,-0.64,1.06,2.01,2.36
10.20423698425293,-0.63,1.27,2.53,2.9
10.21407413482666,-0.76,1.49,2.8,3.26
10.224173069000244,-0.84,1.57,2.73,3.25
10.23407506942749,-0.9,1.48,2.48,3.02
10.249902963638306,-1.01,1.57,2.68,3.26
10.254055976867676,-0.95,1.89,3.33,3.94
10.264252185821533,-0.94,2.04,3.29,3.98
10.274117946624756,-1.11,2.27,2.48,3.54
10.284110069274902,-1.11,2.59,2.07,3.49
10.299818992614746,-0.9,2.92,2.03,3.66
10.304224014282227,-0.63,3.35,1.66,3.79
10.3141188621521,-0.12,3.64,0.68,3.7
10.324244976043701,0.61,3.77,-0.58,3.86
10.33412218093872,1.32,3.7,-1.83,4.33
10.350110054016113,1.76,3.34,-2.97,4.8
10.354119062423706,1.69,2.44,-3.93,4.92
10.364224910736084,1.13,1.15,-4.58,4.85
10.374181985855103,0.5,-0.05,-4.72,4.74
10.384155035018921,0.63,-0.65,-4.5,4.59
10.399334907531738,1.24,-1.16,-3.74,4.1
10.404278993606567,2.07,-1.26,-2.27,3.32
10.41411805152893,2.83,-0.89,-0.2,2.97
10.42419695854187,3.01,-0.01,1.62,3.41
10.4341139793396,2.22,0.75,1.98,3.06
10.449437141418457,0.87,1.38,1.02,1.92
10.453930854797363,-0.26,2.1,0.31,2.13
10.464195966720581,-0.82,2.48,0.2,2.61
10.474152088165283,-0.98,2.67,0.08,2.84
10.484155178070068,-0.43,2.99,-0.21,3.02
10.500123977661133,0.22,2.74,-0.6,2.81
10.50420093536377,1.12,2.18,-1.14,2.7
10.514108180999756,1.83,1.28,-1.8,2.86
10.52426290512085,1.87,0.15,-2.31,2.97
10.53412914276123,1.65,-0.82,-2.36,2.99
10.549445152282715,1.5,-1.65,-1.93,2.94
10.554113864898682,1.16,-2.34,-1.14,2.84
10.564221858978271,0.69,-2.78,-0.25,2.87
10.574143886566162,0.44,-3.09,0.38,3.14
10.584141969680786,0.42,-3.17,0.38,3.22
10.599899053573608,0.52,-3.24,-0.23,3.28
10.604429006576538,0.57,-3.25,-0.87,3.41
10.61409616470337,0.63,-3.13,-1.15,3.39
10.624258995056152,0.86,-2.91,-1.2,3.26
10.634232997894287,1.06,-2.71,-1.18,3.14
10.650659084320068,1.18,-2.52,-1.16,3.01
10.654047966003418,1.3,-2.32,-1.05,2.85
10.664207935333252,1.28,-2.26,-0.82,2.72
10.674162864685059,1.15,-2.21,-0.52,2.54
10.684238910675049,1.02,-2.2,-0.31,2.44
10.699351072311401,0.94,-2.19,-0.13,2.38
10.70432186126709,0.99,-2.13,0.06,2.34
10.714112043380737,1.06,-2.04,0.2,2.3
10.724191188812256,1.12,-1.87,0.21,2.18
10.734064102172852,1.07,-1.5,0.23,1.85
10.749421119689941,0.91,-1.0,0.47,1.43
10.753995895385742,0.8,-0.42,0.79,1.2
10.764258861541748,0.84,0.23,1.15,1.44
10.774170875549316,0.99,0.87,1.49,1.98
10.784266948699951,1.24,1.56,1.64,2.58
10.798895835876465,1.57,2.07,1.47,2.98
10.804255962371826,1.82,2.3,1.1,3.13
10.814107894897461,1.79,2.27,0.91,3.03
10.824263095855713,1.24,2.19,1.33,2.84
10.834115982055664,0.7,2.22,1.98,3.05
10.849313974380493,0.28,2.05,2.36,3.13
10.854012966156006,-0.28,1.99,2.59,3.27
10.864134073257446,-0.72,2.39,2.92,3.84
10.874186992645264,-0.72,2.68,3.25,4.27
10.884142875671387,-0.61,2.95,3.08,4.3
10.899023056030273,-0.57,3.34,2.36,4.12
10.904123067855835,-0.57,3.58,1.68,3.99
10.914101123809814,-0.68,3.76,1.11,3.97
10.924272060394287,-0.89,3.94,0.42,4.06
10.934144973754883,-0.98,4.04,-0.44,4.18
10.949400901794434,-0.77,3.93,-1.47,4.26
10.954165935516357,-0.76,3.41,-2.65,4.38
10.964091062545776,-1.21,2.45,-3.83,4.7
10.974480152130127,-1.44,1.45,-4.8,5.21
10.98419713973999,-1.64,0.45,-5.12,5.39
10.999279022216797,-2.08,-0.28,-4.51,4.97
11.004076957702637,-2.69,-0.64,-2.99,4.07
11.014058113098145,-3.46,-0.79,-0.89,3.65
11.024276971817017,-3.97,-0.96,1.08,4.22
11.034157991409302,-3.61,-0.83,1.8,4.11
11.049521923065186,-1.9,-0.23,0.72,2.04
11.054136991500854,-1.08,0.02,-0.22,1.1
11.064114093780518,-0.63,0.34,-0.37,0.8
11.074245929718018,0.03,0.62,-0.45,0.76
11.084179878234863,0.59,0.78,-0.81,1.26
11.10001516342163,0.9,0.75,-1.37,1.8
11.104290008544922,1.0,0.49,-1.82,2.13
11.114109992980957,1.02,0.09,-2.04,2.28
11.124227046966553,1.06,-0.42,-1.82,2.14
11.13418698310852,0.89,-0.99,-1.21,1.79
11.150126934051514,0.68,-1.39,-0.69,1.69
11.154048919677734,0.44,-1.86,-0.36,1.94
11.164166927337646,0.2,-2.34,-0.2,2.35
11.174206972122192,0.01,-2.77,-0.16,2.77
11.184252977371216,-0.05,-3.12,-0.29,3.13
11.200220108032227,0.1,-3.32,-0.5,3.35
11.204230070114136,0.34,-3.37,-0.75,3.46
11.214169025421143,0.47,-3.21,-0.9,3.36
11.224354028701782,0.42,-3.02,-0.87,3.17
11.234225034713745,0.25,-2.8,-0.76,2.91
11.25094199180603,0.1,-2.51,-0.67,2.59
11.254184007644653,-0.03,-2.19,-0.58,2.26
11.264275074005127,-0.29,-1.89,-0.38,1.94
11.274232864379883,-0.61,-1.72,-0.02,1.82
11.28424596786499,-0.7,-1.65,0.32,1.82
11.30060601234436,-0.66,-1.65,0.51,1.84
11.30425214767456,-0.66,-1.69,0.6,1.91
11.314196109771729,-0.72,-1.77,0.69,2.03
11.324326992034912,-0.82,-1.76,0.81,2.1
11.33421516418457,-0.97,-1.7,0.9,2.15
11.351169109344482,-1.09,-1.63,0.89,2.15
11.354177951812744,-1.22,-1.42,0.89,2.07
11.364266872406006,-1.34,-1.12,1.01,2.01
11.374161958694458,-1.37,-0.8,1.12,1.94
11.38425588607788,-1.24,-0.49,1.13,1.74
11.400467872619629,-1.14,-0.18,1.1,1.59
11.40436601638794,-1.18,0.1,1.06,1.58
11.414176940917969,-1.15,0.43,1.11,1.65
11.42426586151123,-1.03,0.79,1.32,1.85
11.434283971786499,-0.92,1.11,1.61,2.16
11.45149302482605,-0.92,1.36,1.86,2.48
11.454051971435547,-0.96,1.45,2.06,2.69
11.464257001876831,-0.96,1.42,2.22,2.8
11.474331855773926,-1.03,1.29,2.36,2.88
11.484189987182617,-1.09,1.32,2.66,3.16
11.500865936279297,-1.19,1.6,3.25,3.81
11.504047870635986,-1.19,1.91,3.54,4.19
11.514178037643433,-1.29,2.35,2.93,3.97
11.524368047714233,-1.46,2.74,2.07,3.73
11.53415584564209,-1.36,3.2,1.54,3.8
11.55111312866211,-1.03,3.63,1.12,3.93
11.554029941558838,-0.67,3.83,0.45,3.91
11.56426191329956,0.16,4.05,-0.38,4.07
11.574256896972656,1.2,3.93,-1.2,4.28
11.584289073944092,1.88,3.51,-2.0,4.45
11.601056098937988,1.96,2.95,-2.83,4.53
11.60416316986084,1.84,2.13,-3.59,4.56
11.614176988601685,1.63,1.01,-4.13,4.55
11.624253034591675,1.45,0.06,-4.46,4.69
11.634274959564209,1.3,-0.84,-4.32,4.58
11.650974988937378,1.58,-1.32,-3.59,4.13
11.654118061065674,2.11,-1.19,-2.39,3.4
11.664312839508057,2.34,-0.87,-0.49,2.54
11.674118041992188,2.23,-0.28,1.66,2.79
11.68420696258545,1.74,0.47,2.4,3.0
11.700850009918213,0.73,0.92,1.42,1.84
11.70415997505188,-0.44,1.28,0.28,1.38
11.714156150817871,-1.26,1.58,-0.42,2.06
11.724339008331299,-1.4,2.0,-0.89,2.59
11.734211921691895,-0.95,2.44,-1.15,2.85
11.75065803527832,-0.33,2.53,-1.24,2.83
11.754088878631592,0.16,2.15,-1.32,2.52
11.764222145080566,0.7,1.33,-1.48,2.1
11.774203062057495,0.86,0.28,-1.86,2.06
11.784312963485718,0.77,-0.66,-2.12,2.35
11.801037073135376,0.86,-1.5,-1.93,2.59
11.80417799949646,0.91,-2.22,-1.34,2.74
11.814184188842773,0.81,-2.74,-0.57,2.91
11.824190139770508,0.73,-3.0,0.07,3.08
11.834250926971436,0.64,-3.07,0.32,3.15
11.850905895233154,0.48,-3.01,0.0,3.04
11.854116916656494,0.39,-2.88,-0.55,2.95
11.86424207687378,0.36,-2.71,-0.85,2.86
11.874291896820068,0.42,-2.42,-0.91,2.61
11.88432788848877,0.61,-2.19,-0.89,2.44
11.90115213394165,0.87,-1.96,-0.88,2.31
11.904124975204468,1.15,-1.75,-0.85,2.25
11.914213180541992,1.34,-1.71,-0.68,2.27
11.924249172210693,1.26,-1.8,-0.37,2.22
11.934258937835693,1.04,-1.89,0.0,2.15
11.950793981552124,0.89,-1.96,0.37,2.18
11.954097986221313,0.83,-2.06,0.6,2.3
11.964270114898682,0.87,-2.15,0.65,2.4
11.974308013916016,0.9,-2.13,0.49,2.36
11.984302997589111,0.84,-1.95,0.17,2.13
12.000317096710205,0.66,-1.62,-0.03,1.74
12.004420042037964,0.56,-1.14,0.15,1.27
12.011498928070068,0.57,-1.13,0.14,1.27
12.021398067474365,0.71,-0.47,0.64,1.06
12.031571865081787,0.94,0.28,1.18,1.53
12.049705028533936,1.14,0.99,1.51,2.13
12.05136489868164,1.31,1.5,1.37,2.41
12.061547040939331,1.44,1.88,0.82,2.5
12.071491003036499,1.37,2.06,0.5,2.52
12.081634998321533,1.17,2.25,0.88,2.68
12.101148128509521,0.91,2.4,1.61,3.02
12.101574897766113,0.56,2.4,2.19,3.29
12.1116361618042,0.17,2.27,2.33,3.25
12.12136697769165,-0.2,2.03,2.25,3.03
12.131638050079346,-0.62,1.75,2.38,3.01
12.150840044021606,-0.89,1.57,2.9,3.41
12.151386022567749,-0.39,1.92,3.18,3.73
12.161633014678955,-0.13,2.35,2.6,3.5
12.171526908874512,-0.55,2.64,1.85,3.27
12.181627035140991,-0.87,2.78,1.57,3.3
12.201083183288574,-0.98,3.05,1.41,3.5
12.201503992080688,-1.07,3.52,0.88,3.78
12.211615085601807,-1.15,3.91,-0.06,4.07
12.222114086151123,-0.88,4.0,-1.23,4.27
12.231685161590576,-0.67,3.54,-2.57,4.42
12.251106023788452,-0.93,2.59,-3.91,4.78
12.251521110534668,-1.07,1.58,-5.0,5.35
12.261680126190186,-1.09,0.69,-5.36,5.51
12.271406173706055,-1.45,0.12,-4.75,4.96
12.281670093536377,-1.87,-0.47,-3.08,3.63
12.30148696899414,-2.24,-0.87,-0.89,2.56
12.30193305015564,-2.49,-0.93,1.19,2.91
12.311639070510864,-2.42,-0.76,1.87,3.15
12.321568965911865,-1.9,-0.57,0.77,2.12
12.33168888092041,-1.73,-0.47,-0.35,1.82
12.35143518447876,-1.34,0.1,-0.75,1.53
12.35185718536377,-0.65,0.41,-0.88,1.16
12.36169695854187,0.14,0.48,-1.01,1.12
12.371460914611816,0.58,0.52,-1.23,1.45
12.381608963012695,0.61,0.45,-1.46,1.64
12.401894092559814,0.43,-0.02,-1.68,1.73
12.402308940887451,0.05,-0.68,-1.75,1.87
12.411892890930176,-0.22,-1.17,-1.52,1.93
12.421539068222046,-0.13,-1.67,-1.04,1.97
12.431655883789062,0.09,-2.22,-0.41,2.25
12.452939987182617,0.35,-2.6,-0.01,2.62
12.453353881835938,0.5,-2.77,0.02,2.81
12.461772918701172,0.59,-2.82,-0.23,2.89
12.471519947052002,0.58,-2.72,-0.45,2.81
12.481714963912964,0.65,-2.6,-0.58,2.74
12.502735137939453,0.82,-2.36,-0.68,2.58
12.503174066543579,0.86,-2.1,-0.72,2.38
12.51174783706665,0.75,-1.96,-0.66,2.19
12.521574020385742,0.51,-1.79,-0.58,1.94
12.531775951385498,0.26,-1.71,-0.46,1.78
12.552393913269043,0.13,-1.69,-0.32,1.72
12.552828073501587,0.12,-1.75,-0.15,1.76
12.561625957489014,0.07,-1.84,0.03,1.84
12.571720123291016,0.08,-1.91,0.2,1.92
12.581686973571777,0.13,-1.95,0.38,1.99
12.602082014083862,0.16,-1.92,0.55,2.0
12.602496147155762,0.03,-1.76,0.69,1.89
12.611706018447876,-0.26,-1.5,0.75,1.69
12.621754169464111,-0.64,-1.23,0.67,1.53
12.631739139556885,-1.02,-0.98,0.48,1.49
12.652155876159668,-1.27,-0.68,0.38,1.48
12.652573108673096,-1.2,-0.35,0.41,1.31
12.661613941192627,-1.03,-0.08,0.57,1.17
12.671869993209839,-0.88,0.24,0.72,1.16
12.681740045547485,-0.75,0.49,0.83,1.22
12.702224969863892,-0.67,0.6,0.89,1.26
12.702641010284424,-0.6,0.76,1.04,1.42
12.711657047271729,-0.55,0.93,1.39,1.76
12.721811056137085,-0.62,1.1,1.88,2.26
12.731796026229858,-0.86,1.31,2.32,2.79
12.752110004425049,-1.12,1.41,2.52,3.09
12.75252914428711,-1.36,1.38,2.44,3.11
12.761842012405396,-1.63,1.35,2.33,3.14
12.77189588546753,-1.71,1.54,2.52,3.41
12.78177785873413,-1.47,1.82,3.03,3.82
12.802090167999268,-1.31,2.13,3.01,3.91
12.802495002746582,-1.2,2.64,2.33,3.72
12.811549186706543,-1.04,3.08,1.79,3.71
12.822053909301758,-0.78,3.51,1.43,3.86
12.831668853759766,-0.44,3.94,0.94,4.07
12.852445125579834,0.02,4.2,0.1,4.2
12.852864027023315,0.64,4.17,-0.95,4.32
12.861724853515625,1.07,3.59,-2.15,4.31
12.872117042541504,1.28,2.93,-3.28,4.58
12.881718158721924,1.32,1.8,-4.01,4.58
12.902507066726685,1.31,0.64,-4.24,4.48
12.902923107147217,1.42,-0.25,-3.92,4.17
12.911651134490967,1.76,-1.09,-2.97,3.62
12.922178030014038,2.16,-1.25,-1.42,2.87
12.93171215057373,2.41,-1.21,0.16,2.7
12.952623844146729,2.3,-0.93,0.95,2.65
12.953037023544312,1.86,-0.15,0.51,1.93
12.961636066436768,1.17,0.29,-0.22,1.22
12.972218036651611,0.12,0.83,-0.53,0.99
12.981695175170898,-0.76,1.38,-0.61,1.68
13.002539157867432,-1.4,1.9,-0.75,2.47
13.00295114517212,-1.81,2.25,-0.85,3.01
13.011652946472168,-1.92,2.34,-1.03,3.19
13.02163314819336,-2.12,2.31,-1.09,3.31
13.036444187164307,-1.75,1.63,-1.22,2.68
13.041651964187622,-1.05,0.92,-1.39,1.97
13.051658153533936,-0.39,0.06,-1.42,1.47
13.061691045761108,0.32,-0.87,-1.21,1.52
13.071648120880127,0.73,-1.61,-1.0,2.03
13.087480068206787,0.9,-2.21,-0.79,2.51
13.091620922088623,0.95,-2.65,-0.66,2.89
13.101625919342041,0.85,-2.91,-0.68,3.1
13.11175799369812,0.73,-3.0,-0.76,3.17
13.121622085571289,0.71,-3.01,-0.8,3.19
13.137255191802979,0.78,-2.77,-0.8,2.98
13.141720056533813,0.84,-2.57,-0.79,2.81
13.151679992675781,0.91,-2.38,-0.82,2.67
13.161738872528076,1.01,-2.07,-0.85,2.45
13.171667098999023,1.15,-1.77,-0.82,2.26
13.187305927276611,1.18,-1.56,-0.67,2.06
13.191797971725464,1.16,-1.42,-0.48,1.89
13.201639175415039,1.11,-1.31,-0.26,1.73
13.211946964263916,1.09,-1.27,-0.03,1.67
13.221781969070435,1.08,-1.29,0.21,1.69
13.237531185150146,1.07,-1.29,0.42,1.72
13.241803169250488,1.15,-1.27,0.53,1.79
13.251849174499512,1.34,-1.3,0.54,1.94
13.261826038360596,1.54,-1.26,0.46,2.04
13.271695137023926,1.65,-1.21,0.28,2.06
13.287816047668457,1.7,-1.04,0.26,2.0
13.291615962982178,1.62,-0.72,0.55,1.85
13.301666021347046,1.46,-0.32,0.93,1.76
13.311863899230957,1.34,0.13,1.17,1.78
13.321754932403564,1.29,0.5,1.18,1.81
13.33762788772583,1.24,0.79,1.03,1.79
13.341624975204468,1.24,0.99,0.92,1.83
13.351727962493896,1.28,1.16,0.97,1.98
13.361809015274048,1.18,1.39,1.27,2.22
13.371772050857544,0.88,1.66,1.64,2.49
13.387312889099121,0.44,1.79,1.89,2.64
13.391617059707642,0.08,1.74,1.92,2.59
13.40179705619812,-0.12,1.57,1.83,2.41
13.41179895401001,-0.31,1.35,1.97,2.4
13.42178201675415,-0.28,1.47,2.58,2.98
13.437888145446777,-0.03,1.87,3.03,3.56
13.441805839538574,0.05,2.22,2.52,3.35
13.45164704322815,-0.02,2.47,1.78,3.04
13.461848974227905,-0.18,2.62,1.66,3.1
13.471879959106445,-0.64,2.78,1.87,3.41
13.488110065460205,-1.24,2.95,1.71,3.62
13.491700172424316,-1.65,3.18,1.01,3.72
13.501749038696289,-1.89,3.16,0.11,3.68
13.511772155761719,-1.96,2.86,-0.86,3.57
13.521736145019531,-1.84,2.28,-1.93,3.5
13.537167072296143,-1.55,1.54,-2.91,3.63
13.541521072387695,-1.23,0.78,-3.71,3.98
13.55167007446289,-0.83,0.04,-4.07,4.15
13.561788082122803,-0.61,-0.49,-3.74,3.82
13.571830034255981,-0.72,-0.73,-2.81,2.99
13.588207006454468,-0.97,-0.52,-1.49,1.85
13.591681003570557,-1.47,-0.38,-0.01,1.51
13.60173511505127,-1.84,-0.52,0.81,2.07
13.611791133880615,-1.96,-0.38,0.33,2.02
13.621786117553711,-1.88,-0.16,-0.74,2.02
13.637995958328247,-1.65,0.08,-1.16,2.01
13.64177417755127,-1.33,0.38,-1.04,1.73
13.651721000671387,-0.8,0.49,-0.9,1.3
13.661779880523682,-0.19,0.54,-0.92,1.08
13.671751022338867,0.13,0.54,-1.03,1.17
13.688057899475098,0.3,0.43,-1.08,1.2
13.69159197807312,0.48,0.17,-1.1,1.21
13.701745986938477,0.5,-0.28,-1.14,1.27
13.711710929870605,0.36,-0.78,-1.18,1.45
13.721806049346924,0.33,-1.23,-1.16,1.72
13.737616062164307,0.39,-1.71,-0.97,2.0
13.741822004318237,0.47,-2.11,-0.67,2.26
13.751850128173828,0.5,-2.37,-0.39,2.45
13.761759996414185,0.5,-2.53,-0.26,2.59
13.771812915802002,0.46,-2.65,-0.37,2.71
13.787341117858887,0.37,-2.63,-0.6,2.72
13.7916841506958,0.31,-2.51,-0.75,2.63
13.801661968231201,0.31,-2.33,-0.75,2.46
13.811784029006958,0.33,-2.15,-0.68,2.27
13.821779012680054,0.28,-1.98,-0.58,2.08
13.837427139282227,0.18,-1.86,-0.5,1.93
13.841778039932251,0.09,-1.73,-0.4,1.77
13.851752042770386,-0.13,-1.64,-0.22,1.65
13.861813068389893,-0.31,-1.59,0.0,1.61
13.871855020523071,-0.33,-1.61,0.27,1.66
13.88745903968811,-0.29,-1.68,0.54,1.78
13.891790866851807,-0.19,-1.66,0.74,1.82
13.901771068572998,-0.09,-1.6,0.82,1.8
13.91186809539795,-0.17,-1.57,0.7,1.72
13.921730041503906,-0.33,-1.48,0.45,1.58
13.937540054321289,-0.5,-1.33,0.23,1.43
13.941709041595459,-0.66,-1.14,0.06,1.31
13.951788902282715,-0.73,-0.83,0.07,1.1
13.961856842041016,-0.75,-0.51,0.37,0.97
13.971837043762207,-0.78,-0.13,0.78,1.11
13.98758602142334,-0.78,0.32,1.09,1.37
13.991631031036377,-0.89,0.69,1.23,1.66
14.00176191329956,-1.02,1.06,1.25,1.93
14.011821985244751,-1.19,1.34,1.25,2.18
14.021739959716797,-1.34,1.49,1.35,2.41
14.03764295578003,-1.25,1.56,1.6,2.56
14.041646003723145,-0.98,1.52,1.99,2.68
14.051752090454102,-0.74,1.47,2.37,2.88
14.061943054199219,-0.7,1.28,2.58,2.96
14.071813106536865,-0.83,0.94,2.45,2.75
14.087512016296387,-0.94,0.96,2.32,2.68
14.091734886169434,-0.92,1.27,2.85,3.25
14.101705074310303,-1.06,1.57,3.27,3.77
14.111917972564697,-1.29,2.17,2.7,3.69
14.12171196937561,-1.3,2.57,1.86,3.42
14.137755870819092,-1.04,2.98,1.42,3.46
14.141651153564453,-0.73,3.48,1.25,3.76
14.151790142059326,-0.37,3.85,0.83,3.95
14.161854028701782,0.24,4.02,-0.03,4.02
14.171803951263428,1.16,3.84,-1.2,4.18
14.187433958053589,1.73,3.25,-2.57,4.49
14.191663026809692,1.8,2.39,-3.82,4.85
14.20179796218872,1.79,1.27,-4.74,5.22
14.2117440700531,1.85,0.1,-5.15,5.47
14.221803188323975,2.17,-0.66,-5.03,5.51
14.237432956695557,2.59,-1.4,-4.32,5.22
14.241735935211182,2.95,-1.72,-3.07,4.59
14.251832008361816,2.89,-1.34,-1.07,3.36
14.261865139007568,2.09,-0.49,1.58,2.66
14.27182388305664,0.52,0.62,3.25,3.34
14.287023067474365,-0.81,1.32,2.57,3.0
14.291679859161377,-1.57,1.66,0.6,2.36
14.301800966262817,-1.98,1.91,-0.8,2.86
14.311794996261597,-2.15,2.18,-1.43,3.37
14.321779012680054,-2.12,2.37,-1.66,3.58
14.33678913116455,-1.8,2.52,-1.76,3.56
14.34178113937378,-1.18,2.17,-1.69,2.99
14.351748943328857,-0.55,1.27,-1.5,2.04
14.361822128295898,0.18,0.52,-1.29,1.4
14.371803045272827,0.82,-0.33,-0.99,1.32
14.387295007705688,1.24,-1.13,-0.6,1.78
14.39168906211853,1.33,-1.72,-0.22,2.18
14.40176010131836,1.21,-2.25,-0.11,2.55
14.411833047866821,0.94,-2.62,-0.34,2.8
14.421889066696167,0.63,-2.77,-0.7,2.92
14.43714189529419,0.37,-2.73,-0.95,2.91
14.441630840301514,0.22,-2.66,-1.01,2.85
14.451788902282715,0.33,-2.56,-0.88,2.72
14.461639881134033,0.55,-2.42,-0.78,2.6
14.471827983856201,0.8,-2.19,-0.71,2.43
14.487299919128418,0.97,-2.07,-0.65,2.37
14.491643905639648,1.1,-1.93,-0.62,2.3
14.501747131347656,1.19,-1.77,-0.48,2.18
14.511831045150757,1.15,-1.62,-0.22,1.99
14.521790981292725,1.03,-1.5,0.05,1.82
14.537259101867676,0.91,-1.36,0.29,1.66
14.541599035263062,0.81,-1.26,0.38,1.54
14.55175495147705,0.77,-1.26,0.34,1.51
14.561745166778564,0.86,-1.27,0.26,1.55
14.57185411453247,1.04,-1.29,0.2,1.66
14.58771300315857,1.24,-1.35,0.14,1.83
14.591675043106079,1.39,-1.35,0.03,1.93
14.60171890258789,1.53,-1.16,0.08,1.92
14.61165714263916,1.53,-0.85,0.37,1.78
14.621837139129639,1.38,-0.49,0.85,1.69
14.638276100158691,1.24,-0.03,1.26,1.76
14.641621112823486,1.16,0.42,1.3,1.79
14.651807069778442,1.07,0.77,1.04,1.67
14.661716938018799,1.08,1.0,0.86,1.7
14.671840190887451,1.09,1.14,0.99,1.86
14.688016891479492,0.98,1.28,1.36,2.1
14.691761016845703,0.69,1.57,1.74,2.44
14.701848983764648,0.23,1.79,2.0,2.69
14.711786031723022,-0.08,1.79,2.06,2.73
14.721801042556763,-0.13,1.72,1.9,2.56
14.73844289779663,-0.19,1.71,1.9,2.56
14.741620063781738,-0.21,1.73,2.27,2.86
14.751859188079834,-0.07,1.87,2.64,3.23
14.761667013168335,-0.02,2.1,2.36,3.15
14.771925926208496,-0.11,2.31,1.76,2.9
14.788433074951172,-0.28,2.36,1.52,2.82
14.791908979415894,-0.6,2.59,1.57,3.08
14.801795959472656,-0.97,2.8,1.51,3.32
14.811714172363281,-1.18,2.94,1.02,3.32
14.822020053863525,-1.22,3.13,0.23,3.36
14.838670015335083,-1.24,3.09,-0.54,3.37
14.842046976089478,-1.32,2.74,-1.27,3.29
14.851853847503662,-1.44,2.05,-2.11,3.27
14.862009048461914,-1.21,1.35,-3.03,3.53
14.871787071228027,-0.82,0.43,-3.8,3.91
14.889086961746216,-0.59,-0.35,-4.16,4.21
14.891959190368652,-0.45,-0.88,-3.91,4.03
14.901985168457031,-0.59,-1.21,-3.09,3.37
14.911802053451538,-1.13,-1.32,-1.8,2.5
14.922088146209717,-1.81,-1.15,-0.2,2.15
14.93887186050415,-2.39,-0.71,1.1,2.72
14.942087173461914,-2.34,0.1,1.27,2.66
14.951918125152588,-1.91,0.63,0.44,2.05
14.962116956710815,-1.59,0.9,-0.36,1.86
14.971914052963257,-1.2,1.04,-0.79,1.77
14.989492893218994,-0.81,1.08,-1.04,1.7
14.992237091064453,-0.51,1.04,-1.21,1.67
15.002081871032715,-0.16,0.81,-1.37,1.59
15.01180100440979,0.32,0.46,-1.42,1.52
15.02199411392212,0.79,-0.11,-1.27,1.49
15.039608001708984,0.95,-0.7,-1.02,1.55
15.04231309890747,0.99,-1.25,-0.78,1.77
15.052009105682373,0.92,-1.79,-0.59,2.09
15.062023162841797,0.82,-2.19,-0.51,2.39
15.07191801071167,0.73,-2.5,-0.49,2.65
15.08961009979248,0.57,-2.75,-0.52,2.85
15.092403888702393,0.43,-2.9,-0.63,2.99
15.10206413269043,0.42,-2.99,-0.69,3.09
15.111881971359253,0.52,-2.92,-0.65,3.03
15.12200117111206,0.63,-2.79,-0.49,2.9
15.139759063720703,0.74,-2.68,-0.3,2.79
15.142506122589111,0.84,-2.48,-0.17,2.62
15.151880025863647,0.83,-2.26,-0.17,2.41
15.162145137786865,0.57,-2.06,-0.27,2.15
15.171985149383545,0.31,-1.8,-0.37,1.86
15.190093994140625,0.12,-1.62,-0.28,1.64
15.191750049591064,-0.02,-1.55,-0.02,1.55
15.202162981033325,-0.08,-1.47,0.33,1.5
15.211915016174316,-0.11,-1.34,0.78,1.55
15.222035884857178,-0.19,-1.32,1.13,1.74
15.23987102508545,-0.36,-1.23,1.09,1.68
15.242591857910156,-0.49,-1.12,0.72,1.41
15.25196099281311,-0.6,-1.05,0.43,1.28
15.261981964111328,-0.68,-0.91,0.35,1.18
15.271937847137451,-0.69,-0.75,0.46,1.11
15.289664030075073,-0.63,-0.55,0.65,1.05
15.291774034500122,-0.63,-0.33,0.83,1.09
15.302164077758789,-0.69,-0.12,1.0,1.22
15.311861991882324,-0.71,0.08,1.11,1.32
15.322139978408813,-0.78,0.35,1.25,1.51
15.340352058410645,-0.85,0.63,1.45,1.79
15.342814922332764,-0.99,0.81,1.73,2.15
15.352113008499146,-1.18,1.04,1.98,2.52
15.362015962600708,-1.38,1.19,2.11,2.78
15.371898174285889,-1.34,1.14,2.13,2.76
15.390942096710205,-0.92,1.07,1.98,2.43
15.391839027404785,-0.45,0.97,1.91,2.18
15.402168035507202,-0.41,0.84,2.25,2.43
15.411839008331299,-0.65,1.06,3.1,3.34
15.422139167785645,-0.85,1.68,3.73,4.17
15.440656185150146,-1.43,2.26,3.26,4.21
15.441999912261963,-2.2,2.77,2.26,4.19
15.452020168304443,-2.45,3.07,1.63,4.25
15.461995124816895,-2.03,3.26,1.22,4.02
15.47198486328125,-1.2,3.47,0.51,3.7
15.49079704284668,-0.25,3.57,-0.54,3.61
15.49190092086792,0.72,3.32,-1.72,3.8
15.502192974090576,1.59,2.88,-2.75,4.28
15.511870861053467,2.15,2.28,-3.42,4.63
15.522134065628052,2.27,1.37,-3.76,4.6
15.540934085845947,2.1,0.23,-3.73,4.28
15.542036056518555,2.2,-0.7,-3.3,4.02
15.552067041397095,2.53,-1.26,-2.44,3.73
15.562034130096436,2.76,-1.16,-1.09,3.18
15.572129011154175,2.27,-0.54,0.16,2.33
15.590901851654053,1.34,-0.03,0.51,1.43
15.5920250415802,0.39,0.62,0.09,0.73
15.602181911468506,-0.55,1.31,-0.46,1.49
15.611905097961426,-1.34,1.99,-0.95,2.58
15.622096061706543,-1.83,2.45,-1.27,3.31
15.641005039215088,-1.79,2.57,-1.39,3.42
15.642084121704102,-1.17,2.63,-1.26,3.14
15.652076959609985,-0.09,2.43,-0.94,2.6
15.662169933319092,0.63,1.64,-0.75,1.91
15.672007083892822,0.6,0.75,-0.9,1.31
15.69132399559021,0.49,-0.02,-0.98,1.09
15.691947937011719,0.51,-0.9,-0.74,1.27
15.702219009399414,0.55,-1.7,-0.37,1.82
15.711896896362305,0.7,-2.39,-0.19,2.49
15.722102165222168,0.73,-2.82,-0.3,2.92
15.7411470413208,0.69,-2.95,-0.58,3.08
15.741917133331299,0.6,-2.99,-0.82,3.15
15.752089023590088,0.44,-2.94,-0.98,3.13
15.761975049972534,0.3,-2.8,-0.93,2.96
15.77201509475708,0.34,-2.73,-0.79,2.86
15.791324138641357,0.54,-2.66,-0.69,2.8
15.791791915893555,0.77,-2.64,-0.62,2.81
15.80215311050415,1.06,-2.67,-0.4,2.9
15.811957836151123,1.35,-2.63,-0.08,2.95
15.82206916809082,1.55,-2.5,0.15,2.94
15.841507911682129,1.75,-2.25,0.22,2.85
15.8420250415802,1.86,-1.89,0.16,2.65
15.851956844329834,1.88,-1.39,0.15,2.34
15.861992835998535,1.77,-1.07,0.22,2.07
15.871958017349243,1.6,-0.75,0.28,1.78
15.890954971313477,1.51,-0.52,0.31,1.62
15.891913890838623,1.52,-0.44,0.38,1.62
15.90204906463623,1.57,-0.45,0.42,1.68
15.91203784942627,1.58,-0.39,0.39,1.67
15.9221510887146,1.56,-0.36,0.36,1.64
15.941293954849243,1.31,-0.28,0.35,1.38
15.941955089569092,0.98,-0.05,0.56,1.12
15.951964855194092,0.77,0.29,0.93,1.24
15.96198296546936,0.81,0.49,1.21,1.53
15.972020149230957,1.1,0.86,1.28,1.89
15.991142988204956,1.35,1.06,1.37,2.19
15.99194598197937,1.52,1.39,1.51,2.55
16.002285957336426,1.59,1.83,1.76,2.99
16.011845111846924,1.44,2.27,2.04,3.37
16.021972179412842,1.04,2.8,2.05,3.62
16.03975200653076,0.46,3.07,1.75,3.56
16.04187297821045,-0.11,3.0,1.39,3.3
16.052013874053955,-0.48,2.91,1.44,3.28
16.061984062194824,-0.57,2.8,1.97,3.47
16.072118043899536,-0.44,2.55,2.13,3.35
16.0907940864563,-0.35,2.51,1.72,3.06
16.091773986816406,-0.52,2.49,1.44,2.92
16.102123022079468,-0.96,2.54,1.37,3.04
16.111909866333008,-1.48,2.83,1.15,3.39
16.12208104133606,-1.9,3.0,0.51,3.58
16.141086101531982,-1.97,3.12,-0.37,3.7
16.141741037368774,-1.66,3.11,-1.36,3.77
16.15202283859253,-0.88,2.81,-2.45,3.83
16.161906957626343,-0.1,2.11,-3.56,4.13
16.17187213897705,-0.15,1.13,-4.51,4.65
16.191288948059082,-0.4,0.37,-4.88,4.91
16.191962003707886,-0.69,-0.16,-4.29,4.34
16.202075958251953,-1.28,-0.54,-2.7,3.03
16.211848974227905,-1.97,-0.82,-0.58,2.21
16.222023010253906,-2.5,-0.59,0.73,2.67
16.24178409576416,-2.59,-0.31,0.31,2.62
16.24229598045349,-2.43,-0.09,-1.03,2.64
16.252102851867676,-2.0,0.35,-1.55,2.55
16.261878967285156,-1.19,0.59,-1.1,1.72
16.272042989730835,-0.26,0.77,-0.72,1.08
16.291543006896973,0.45,0.85,-0.74,1.21
16.291959047317505,0.75,0.65,-1.05,1.44
16.302420139312744,0.83,0.3,-1.5,1.74
16.311944007873535,0.87,-0.11,-1.75,1.95
16.32202911376953,0.81,-0.7,-1.6,1.92
16.342664003372192,0.62,-1.23,-1.2,1.82
16.34312915802002,0.35,-1.62,-0.77,1.82
16.352048873901367,0.21,-2.04,-0.37,2.08
16.361942052841187,0.31,-2.34,-0.15,2.36
16.371968030929565,0.51,-2.54,-0.14,2.59
16.392251014709473,0.73,-2.63,-0.3,2.74
16.392731189727783,0.93,-2.57,-0.52,2.78
16.403364181518555,0.99,-2.44,-0.69,2.72
16.41338014602661,0.93,-2.19,-0.76,2.49
16.423444986343384,0.86,-1.89,-0.62,2.16
16.443317890167236,0.75,-1.74,-0.34,1.92
16.443740844726562,0.58,-1.63,-0.07,1.73
16.4533748626709,0.3,-1.49,0.0,1.51
16.463193893432617,0.02,-1.45,-0.1,1.45
16.47332000732422,-0.22,-1.52,-0.17,1.54
16.492650985717773,-0.41,-1.65,-0.06,1.7
16.493200063705444,-0.57,-1.77,0.22,1.87
16.503221035003662,-0.57,-1.92,0.58,2.08
16.513195037841797,-0.51,-2.04,0.83,2.26
16.523319959640503,-0.45,-2.0,0.96,2.26
16.54283905029297,-0.43,-1.85,1.01,2.15
16.54327917098999,-0.56,-1.67,0.98,2.01
16.5533549785614,-0.76,-1.5,0.92,1.91
16.563153982162476,-0.94,-1.32,0.79,1.8
16.57339096069336,-1.04,-1.17,0.62,1.68
16.59268093109131,-1.05,-0.97,0.66,1.57
16.593114852905273,-0.99,-0.65,0.92,1.49
16.603327989578247,-0.98,-0.24,1.17,1.54
16.613216876983643,-0.97,0.16,1.32,1.64
16.623312950134277,-0.95,0.52,1.34,1.72
16.64271116256714,-0.89,0.89,1.43,1.9
16.64314889907837,-0.84,1.16,1.55,2.11
16.653368949890137,-0.83,1.44,1.73,2.39
16.66325306892395,-0.94,1.59,1.94,2.67
16.673351049423218,-0.99,1.52,2.04,2.72
16.69249701499939,-1.03,1.35,2.05,2.66
16.693111896514893,-1.25,1.13,2.25,2.81
16.703309059143066,-1.52,1.1,2.91,3.46
16.71315288543701,-1.5,1.48,3.41,4.0
16.723371028900146,-1.43,1.81,2.73,3.57
16.742233991622925,-1.53,2.16,1.73,3.16
16.7431378364563,-1.42,2.48,1.49,3.22
16.753249168395996,-0.93,2.9,1.49,3.39
16.763142108917236,-0.33,3.32,0.99,3.48
16.773333072662354,0.26,3.62,-0.04,3.62
16.79237413406372,0.91,3.57,-1.31,3.91
16.793169021606445,1.48,3.16,-2.51,4.29
16.80330204963684,2.01,2.58,-3.36,4.68
16.813143014907837,2.36,1.62,-3.89,4.82
16.823457956314087,2.23,0.51,-3.99,4.59
16.842480182647705,1.91,-0.3,-3.49,3.98
16.843186855316162,1.83,-0.86,-2.5,3.21
16.853332996368408,2.11,-0.98,-1.41,2.72
16.863193035125732,2.52,-0.75,-0.48,2.67
16.873401165008545,2.59,-0.32,-0.13,2.61
16.892900943756104,2.09,0.35,-0.16,2.12
16.893347024917603,1.08,1.02,-0.14,1.49
16.903360843658447,-0.23,1.63,-0.06,1.64
16.913174152374268,-1.29,2.05,0.13,2.42
16.92340898513794,-1.65,2.59,0.21,3.07
16.94291591644287,-1.53,2.82,0.03,3.2
16.94334316253662,-0.89,2.89,-0.23,3.03
16.953420162200928,0.12,2.65,-0.38,2.67
16.963313102722168,1.05,1.78,-0.65,2.16
16.97343897819519,1.51,0.79,-1.25,2.11
16.99276113510132,1.44,-0.27,-1.78,2.3
16.99318790435791,1.31,-1.14,-1.82,2.51
17.003364086151123,1.17,-1.87,-1.35,2.58
17.013320922851562,0.91,-2.48,-0.69,2.73
17.023339986801147,0.66,-2.88,-0.24,2.96
17.042867183685303,0.54,-3.15,-0.23,3.2
17.0432870388031,0.48,-3.21,-0.64,3.3
17.053351879119873,0.5,-3.08,-1.02,3.28
17.06330108642578,0.54,-2.93,-1.14,3.19
17.073376178741455,0.65,-2.65,-1.16,2.96
17.093594074249268,0.85,-2.23,-1.21,2.67
17.094027996063232,1.04,-2.0,-1.27,2.58
17.103375911712646,1.27,-1.92,-1.28,2.63
17.113221168518066,1.45,-1.91,-1.13,2.65
17.123281002044678,1.61,-1.95,-0.79,2.64
17.143511056900024,1.55,-1.96,-0.35,2.52
17.143929958343506,1.34,-1.91,0.03,2.33
17.153424978256226,1.21,-1.85,0.26,2.22
17.16326904296875,1.19,-1.72,0.36,2.12
17.173410892486572,1.07,-1.5,0.34,1.87
17.193464040756226,0.94,-1.36,0.33,1.68
17.19388484954834,0.9,-1.19,0.35,1.53
17.20338010787964,0.85,-0.88,0.41,1.29
17.21329402923584,0.91,-0.53,0.61,1.21
17.223411083221436,1.14,-0.09,0.91,1.46
17.24355983734131,1.28,0.38,1.28,1.84
17.243980884552002,1.31,0.81,1.55,2.18
17.253448963165283,1.34,1.22,1.44,2.31
17.263245105743408,1.4,1.57,1.02,2.33
17.273414134979248,1.32,1.63,0.7,2.21
17.294069051742554,1.13,1.7,0.94,2.24
17.294479846954346,0.96,1.82,1.51,2.55
17.30340814590454,0.64,1.83,2.01,2.79
17.31325101852417,0.14,1.88,2.34,3.0
17.323485851287842,-0.48,1.89,2.53,3.19
17.34412908554077,-0.88,2.06,2.63,3.45
17.344542026519775,-0.7,2.34,2.7,3.64
17.35341215133667,-0.48,2.57,2.46,3.58
17.363306045532227,-0.53,2.83,1.75,3.36
17.373420000076294,-0.83,3.1,1.2,3.42
17.39419198036194,-1.33,3.46,1.18,3.89
17.394618034362793,-1.78,3.93,1.17,4.47
17.40341806411743,-1.99,4.25,0.67,4.74
17.413408994674683,-1.56,4.4,-0.36,4.68
17.42342495918274,-0.76,4.12,-1.49,4.44
17.444284915924072,-0.49,3.11,-2.51,4.02
17.444694995880127,-0.85,2.01,-3.35,3.99
17.453426837921143,-0.96,0.95,-3.86,4.08
17.463499069213867,-1.17,-0.07,-3.55,3.73
17.473451137542725,-1.6,-0.97,-2.23,2.91
17.494193077087402,-1.8,-1.59,-0.66,2.49
17.494611978530884,-1.78,-1.81,0.08,2.53
17.5034019947052,-1.96,-1.73,-0.39,2.64
17.513564109802246,-1.79,-1.9,-1.23,2.88
17.523463010787964,-1.64,-1.66,-1.65,2.85
17.544432163238525,-1.17,-0.92,-1.43,2.06
17.54485511779785,-0.58,-0.21,-0.74,0.96
17.553385019302368,-0.28,0.52,-0.26,0.64
17.563663959503174,-0.19,0.98,-0.15,1.0
17.573513984680176,-0.3,1.15,-0.31,1.22
17.594320058822632,-0.53,1.04,-0.73,1.37
17.59473419189453,-0.62,0.69,-1.12,1.45
17.603375911712646,-0.48,0.1,-1.26,1.35
17.613715171813965,-0.31,-0.63,-1.17,1.36
17.62346315383911,-0.22,-1.19,-0.88,1.49
17.644208908081055,-0.09,-1.77,-0.56,1.85
17.644633054733276,-0.03,-2.27,-0.36,2.29
17.653398990631104,0.01,-2.61,-0.37,2.63
17.663774013519287,0.16,-2.91,-0.4,2.94
17.673447132110596,0.34,-3.0,-0.44,3.05
17.694650173187256,0.45,-2.92,-0.52,2.99
17.69504690170288,0.45,-2.83,-0.53,2.91
17.703410148620605,0.39,-2.6,-0.53,2.68
17.7138671875,0.34,-2.33,-0.55,2.41
17.72350001335144,0.22,-2.18,-0.58,2.26
17.744654178619385,0.02,-2.03,-0.52,2.09
17.7450909614563,-0.23,-1.89,-0.34,1.93
17.75347399711609,-0.4,-1.72,-0.09,1.76
17.763978004455566,-0.54,-1.59,0.22,1.69
17.77347993850708,-0.65,-1.56,0.5,1.76
17.794576168060303,-0.75,-1.49,0.68,1.8
17.795008182525635,-0.86,-1.47,0.76,1.86
17.803393840789795,-0.96,-1.53,0.73,1.94
17.813827991485596,-1.04,-1.57,0.64,1.98
17.823498964309692,-1.09,-1.49,0.52,1.91
17.844347953796387,-1.13,-1.28,0.44,1.76
17.844787120819092,-1.24,-1.08,0.47,1.71
17.853482007980347,-1.36,-0.82,0.56,1.68
17.863352060317993,-1.37,-0.59,0.64,1.62
17.873600006103516,-1.25,-0.47,0.7,1.5
17.894774913787842,-1.1,-0.32,0.77,1.38
17.895230054855347,-1.01,-0.11,0.87,1.33
17.903510093688965,-0.93,0.07,1.05,1.4
17.91346502304077,-0.84,0.34,1.27,1.56
17.92346715927124,-0.82,0.68,1.55,1.88
17.94489097595215,-0.8,0.91,1.89,2.24
17.945297956466675,-0.73,1.07,2.1,2.46
17.953467845916748,-0.81,1.23,2.09,2.55
17.963500022888184,-0.98,1.26,1.92,2.49
17.973506927490234,-1.12,1.38,1.88,2.58
17.994905948638916,-1.35,1.63,2.34,3.15
17.99532198905945,-1.44,1.83,3.13,3.9
18.00352907180786,-1.61,2.09,3.18,4.13
18.01357102394104,-1.73,2.3,2.23,3.64
18.02348518371582,-1.55,2.47,1.44,3.25
18.04484987258911,-1.01,2.7,1.15,3.1
18.04526400566101,-0.4,2.97,0.71,3.07
18.053357124328613,0.06,3.15,-0.05,3.15
18.063364028930664,0.35,3.14,-0.84,3.26
18.073528051376343,0.59,3.03,-1.51,3.43
18.095126152038574,0.86,2.83,-2.05,3.59
18.09553289413452,1.09,2.39,-2.44,3.58
18.10343313217163,1.24,1.7,-2.75,3.46
18.113445043563843,1.27,0.83,-2.98,3.34
18.12344002723694,1.5,-0.03,-2.99,3.34
18.145071029663086,1.93,-0.64,-2.69,3.37
18.145488023757935,2.63,-0.96,-2.06,3.47
18.153500080108643,3.17,-0.79,-1.3,3.51
18.163486003875732,2.86,-0.38,-0.77,2.98
18.17357110977173,2.12,0.29,-0.59,2.21
18.195498943328857,1.13,1.12,-0.35,1.62
18.195918083190918,-0.07,1.82,0.16,1.82
18.203480005264282,-0.92,2.28,0.48,2.5
18.21351718902588,-1.23,2.65,0.24,2.93
18.223588943481445,-1.18,2.86,-0.34,3.11
18.245414972305298,-0.78,2.86,-0.85,3.08
18.245844841003418,-0.13,2.38,-1.13,2.63
18.25353193283081,0.53,1.43,-1.28,1.99
18.263488054275513,0.61,0.45,-1.53,1.7
18.27356505393982,0.56,-0.44,-1.59,1.74
18.295572996139526,0.69,-1.28,-1.3,1.95
18.295987129211426,0.79,-1.94,-0.85,2.26
18.303504943847656,0.79,-2.38,-0.51,2.55
18.31348991394043,0.79,-2.6,-0.39,2.74
18.323490142822266,0.67,-2.56,-0.39,2.67
18.345752954483032,0.55,-2.46,-0.46,2.56
18.346174001693726,0.48,-2.35,-0.62,2.47
18.353352069854736,0.42,-2.22,-0.82,2.4
18.363517999649048,0.39,-2.1,-0.95,2.33
18.37361192703247,0.42,-1.91,-0.99,2.19
18.39588499069214,0.5,-1.68,-0.99,2.01
18.39633798599243,0.66,-1.55,-0.85,1.88
18.403496980667114,1.01,-1.55,-0.64,1.95
18.413522005081177,1.35,-1.58,-0.42,2.12
18.423609018325806,1.44,-1.74,-0.22,2.26
18.4459490776062,1.28,-1.84,-0.01,2.24
18.44636106491089,1.03,-1.88,0.19,2.15
18.453518867492676,0.88,-1.88,0.39,2.11
18.4634690284729,0.84,-1.8,0.49,2.04
18.473544120788574,0.83,-1.78,0.49,2.02
18.495756149291992,0.88,-1.64,0.39,1.9
18.496169090270996,0.92,-1.4,0.15,1.68
18.503509998321533,0.88,-1.15,0.02,1.44
18.513468980789185,0.82,-0.84,0.28,1.2
18.52358603477478,0.82,-0.4,0.71,1.15
18.54576802253723,0.98,0.21,1.02,1.43
18.54617404937744,1.03,0.77,1.2,1.75
18.553454875946045,1.01,1.2,1.03,1.87
18.563418865203857,1.36,1.48,0.72,2.13
18.573621034622192,1.67,1.64,0.77,2.46
18.595777988433838,1.37,1.82,1.18,2.56
18.59620189666748,0.92,2.02,1.57,2.71
18.603510856628418,0.47,2.1,1.7,2.74
18.613460063934326,0.12,2.01,1.72,2.64
18.623586177825928,-0.1,1.73,1.79,2.49
18.646044969558716,-0.43,1.39,2.06,2.52
18.646465063095093,-0.61,1.19,2.67,2.98
18.653503894805908,-0.3,1.39,3.01,3.32
18.663486003875732,-0.18,1.71,2.17,2.76
18.67354917526245,-0.61,2.01,1.37,2.5
18.695986032485962,-0.99,2.34,1.4,2.9
18.69639801979065,-1.33,2.62,1.7,3.39
18.703530073165894,-1.97,2.97,1.43,3.84
18.713552951812744,-2.13,3.59,0.35,4.18
18.723597049713135,-2.05,3.68,-0.9,4.3
18.746749877929688,-1.56,3.61,-1.96,4.39
18.74717617034912,-0.64,3.21,-2.99,4.43
18.753518104553223,-0.28,2.12,-3.97,4.5
18.763537883758545,-0.59,0.93,-4.77,4.89
18.773581981658936,-0.94,0.09,-4.92,5.0
18.79724097251892,-1.33,-0.47,-4.16,4.39
18.797677040100098,-1.92,-0.87,-2.24,3.07
18.803574085235596,-2.27,-1.27,0.15,2.6
18.813528060913086,-2.2,-1.17,1.29,2.8
18.82363986968994,-1.75,-0.82,0.47,1.98
18.847058057785034,-1.29,-0.39,-0.74,1.53
18.847480058670044,-1.01,0.15,-0.91,1.36
18.85364007949829,-0.59,0.72,-0.81,1.23
18.863561153411865,-0.02,1.05,-0.89,1.37
18.87366008758545,0.43,1.18,-1.08,1.65
18.896687030792236,0.53,1.1,-1.36,1.82
18.897109985351562,0.37,0.71,-1.51,1.7
18.90352702140808,0.23,0.18,-1.42,1.44
18.91355800628662,0.05,-0.41,-1.13,1.2
18.923609018325806,-0.01,-0.88,-0.75,1.15
18.94697904586792,0.04,-1.45,-0.44,1.51
18.947388172149658,0.01,-1.9,-0.3,1.92
18.95346999168396,0.01,-2.22,-0.35,2.24
18.963478088378906,0.1,-2.46,-0.52,2.51
18.973656177520752,0.34,-2.57,-0.66,2.67
18.99706792831421,0.65,-2.57,-0.75,2.75
18.997480869293213,0.79,-2.46,-0.76,2.69
19.003545999526978,0.73,-2.32,-0.69,2.52
19.013512134552002,0.56,-2.17,-0.56,2.31
19.023622035980225,0.32,-1.97,-0.4,2.03
19.047209978103638,0.04,-1.86,-0.28,1.88
19.04762315750122,-0.18,-1.83,-0.14,1.84
19.05360698699951,-0.37,-1.74,-0.01,1.77
19.06354284286499,-0.53,-1.73,0.1,1.81
19.073641061782837,-0.59,-1.71,0.22,1.82
19.097240924835205,-0.58,-1.67,0.32,1.79
19.09769105911255,-0.57,-1.62,0.38,1.75
19.103548049926758,-0.55,-1.53,0.52,1.7
19.11348009109497,-0.56,-1.42,0.74,1.69
19.123591899871826,-0.62,-1.28,0.84,1.65
19.147199153900146,-0.83,-1.26,0.7,1.66
19.147614002227783,-1.16,-1.25,0.56,1.79
19.153432846069336,-1.48,-1.21,0.47,1.96
19.16354990005493,-1.55,-1.06,0.49,1.94
19.17358899116516,-1.39,-0.87,0.61,1.74
19.197142124176025,-1.24,-0.67,0.61,1.53
19.19755792617798,-1.07,-0.37,0.57,1.26
19.20360517501831,-0.92,-0.06,0.66,1.13
19.213539123535156,-0.82,0.27,0.95,1.28
19.22361993789673,-0.73,0.52,1.26,1.54
19.24724507331848,-0.72,0.84,1.48,1.84
19.247658014297485,-0.84,1.16,1.68,2.2
19.253576040267944,-0.98,1.3,1.79,2.41
19.263499975204468,-1.0,1.32,1.77,2.42
19.273651123046875,-0.81,1.21,1.73,2.26
19.297719955444336,-0.79,0.97,1.84,2.22
19.298155069351196,-1.04,0.81,2.11,2.48
19.30357789993286,-1.3,0.97,2.68,3.13
19.31363606452942,-1.38,1.25,3.08,3.59
19.323678016662598,-1.47,1.5,2.66,3.38
19.347400188446045,-1.44,1.83,2.01,3.07
19.347826957702637,-1.16,2.19,1.63,2.96
19.353654861450195,-0.74,2.53,1.33,2.95
19.363622188568115,-0.23,2.93,0.89,3.07
19.373614072799683,0.28,3.3,0.26,3.32
19.398274898529053,0.66,3.43,-0.49,3.52
19.39868688583374,0.96,3.31,-1.26,3.66
19.403616905212402,1.24,2.98,-1.88,3.73
19.413637161254883,1.33,2.27,-2.33,3.51
19.423658847808838,1.37,1.33,-2.73,3.33
19.448394060134888,1.49,0.39,-3.03,3.39
19.448800086975098,1.7,-0.42,-3.04,3.5
19.45349884033203,2.16,-1.09,-2.55,3.51
19.463764190673828,3.01,-1.25,-1.86,3.75
19.473744869232178,3.24,-0.98,-1.32,3.63
19.49842119216919,2.62,-0.48,-1.02,2.85
19.498838901519775,1.87,0.19,-0.91,2.08
19.503612995147705,1.0,0.98,-0.63,1.53
19.513622045516968,-0.03,1.75,-0.14,1.75
19.523687839508057,-0.91,2.29,0.13,2.46
19.54870891571045,-1.39,2.71,-0.15,3.04
19.549109935760498,-1.44,2.95,-0.79,3.37
19.55368399620056,-0.93,2.93,-1.18,3.29
19.56360387802124,-0.07,2.18,-1.38,2.58
19.57368803024292,0.41,1.34,-1.7,2.2
19.598812103271484,0.58,0.59,-1.75,1.93
19.59923791885376,0.77,-0.37,-1.35,1.59
19.60366201400757,0.87,-1.17,-0.77,1.64
19.61365509033203,0.94,-1.87,-0.34,2.12
19.623682975769043,0.91,-2.34,-0.25,2.52
19.64861798286438,0.68,-2.61,-0.43,2.73
19.64903688430786,0.47,-2.72,-0.76,2.86
19.653632164001465,0.29,-2.65,-0.98,2.84
19.663666009902954,0.4,-2.52,-0.89,2.7
19.673745155334473,0.62,-2.3,-0.8,2.51
19.698678970336914,0.72,-1.97,-0.68,2.2
19.699110984802246,0.85,-1.68,-0.62,1.98
19.703554153442383,0.9,-1.51,-0.69,1.88
19.713669061660767,0.92,-1.44,-0.86,1.91
19.7236590385437,1.0,-1.42,-0.87,1.94
19.74916410446167,1.07,-1.5,-0.58,1.93
19.749595165252686,1.02,-1.59,-0.18,1.89
19.753642082214355,0.98,-1.6,0.1,1.87
19.763695001602173,0.87,-1.61,0.34,1.86
19.773734092712402,0.82,-1.54,0.52,1.82
19.79937195777893,0.83,-1.44,0.6,1.76
19.7997829914093,0.86,-1.25,0.54,1.61
19.803707122802734,0.96,-1.01,0.43,1.45
19.81366491317749,1.07,-0.87,0.34,1.42
19.823695182800293,1.21,-0.81,0.2,1.46
19.848795890808105,1.24,-0.74,0.14,1.45
19.849233150482178,1.16,-0.58,0.29,1.32
19.853538036346436,1.04,-0.38,0.61,1.26
19.863615036010742,0.94,-0.08,0.93,1.32
19.873707056045532,1.03,0.34,1.13,1.56
19.88365888595581,1.17,0.73,1.11,1.77
19.89927387237549,1.19,1.02,0.96,1.83
19.903632164001465,1.2,1.23,0.98,1.97
19.91373300552368,1.17,1.38,1.11,2.12
19.923680067062378,1.02,1.72,1.39,2.43
19.933764934539795,0.74,1.96,1.72,2.71
19.948400020599365,0.45,2.01,1.78,2.72
19.9536771774292,0.28,1.95,1.68,2.58
19.963569164276123,0.1,1.78,1.71,2.47
19.97365093231201,-0.22,1.54,2.16,2.66
19.983602046966553,-0.26,1.53,2.77,3.17
19.998265027999878,-0.02,1.77,2.47,3.03
20.002169132232666,-0.19,1.95,1.43,2.42
20.012374877929688,-0.51,2.09,1.08,2.4
20.022191047668457,-0.6,2.25,1.38,2.7
20.032288074493408,-0.65,2.55,1.51,3.03
20.047648906707764,-0.88,2.88,1.1,3.2
20.052250862121582,-1.17,3.18,0.27,3.39
20.062285900115967,-1.37,3.36,-0.61,3.67
20.072328090667725,-1.43,3.29,-1.38,3.84
20.08230686187744,-1.21,2.94,-2.07,3.79
20.098835945129395,-0.84,2.2,-2.81,3.66
20.102213859558105,-0.79,1.26,-3.52,3.82
20.11233901977539,-0.69,0.3,-4.02,4.08
20.122217178344727,-0.7,-0.41,-3.87,3.95
20.13233518600464,-1.07,-0.82,-2.75,3.06
20.147785186767578,-1.51,-1.01,-0.96,2.05
20.152196884155273,-1.61,-0.99,0.24,1.9
20.162272930145264,-1.46,-0.87,0.03,1.69
20.172363996505737,-1.54,-0.75,-0.89,1.93
20.18226718902588,-1.8,-0.47,-1.35,2.29
20.198986053466797,-1.61,0.19,-1.38,2.12
20.20222496986389,-0.93,0.69,-1.24,1.69
20.212379932403564,-0.13,0.88,-1.16,1.46
20.22213101387024,0.48,0.87,-1.16,1.52
20.232308864593506,0.71,0.74,-1.21,1.58
20.246027946472168,0.63,0.43,-1.19,1.41
20.252398014068604,0.38,0.01,-0.99,1.06
20.262428998947144,0.1,-0.48,-0.67,0.83
20.272470951080322,0.03,-0.9,-0.41,0.98
20.282395839691162,0.08,-1.36,-0.27,1.38
20.30008888244629,0.21,-1.73,-0.19,1.75
20.302320957183838,0.36,-1.94,-0.14,1.97
20.312408924102783,0.46,-2.01,-0.18,2.06
20.322355031967163,0.5,-2.04,-0.38,2.13
20.332541942596436,0.54,-1.99,-0.62,2.15
20.35024404525757,0.62,-1.84,-0.75,2.08
20.352310180664062,0.63,-1.77,-0.72,2.01
20.362343072891235,0.56,-1.7,-0.63,1.89
20.37262797355652,0.35,-1.58,-0.56,1.71
20.400861978530884,-0.06,-1.48,-0.32,1.51
20.40128207206726,-0.19,-1.43,-0.16,1.45
20.406388998031616,-0.31,-1.43,-0.02,1.46
20.416391849517822,-0.33,-1.51,0.09,1.54
20.426534175872803,-0.24,-1.56,0.22,1.59
20.450531005859375,-0.16,-1.58,0.38,1.63
20.450942039489746,-0.17,-1.59,0.48,1.66
20.456493854522705,-0.26,-1.47,0.47,1.56
20.466535091400146,-0.48,-1.38,0.42,1.52
20.476635932922363,-0.7,-1.37,0.38,1.58
20.496016025543213,-0.82,-1.32,0.38,1.59
20.496385097503662,-0.87,-1.3,0.5,1.64
20.5064959526062,-0.88,-1.21,0.61,1.61
20.51631784439087,-0.88,-1.05,0.67,1.52
20.52654218673706,-0.91,-0.89,0.72,1.46
20.550458908081055,-0.88,-0.6,0.77,1.31
20.550955057144165,-0.81,-0.25,0.8,1.16
20.556400060653687,-0.79,0.08,0.8,1.12
20.56655216217041,-0.85,0.29,0.76,1.17
20.576509952545166,-0.84,0.45,0.79,1.23
20.601438999176025,-0.77,0.57,0.92,1.32
20.60263705253601,-0.74,0.68,1.14,1.51
20.60649013519287,-0.76,0.82,1.41,1.79
20.616394996643066,-0.85,0.83,1.65,2.03
20.626487970352173,-0.89,0.81,1.87,2.22
20.652020931243896,-0.95,0.75,2.15,2.46
20.65321397781372,-1.0,0.8,2.52,2.82
20.65664291381836,-0.95,1.09,2.76,3.11
20.666473865509033,-1.01,1.31,2.44,2.94
20.67668104171753,-1.19,1.48,1.73,2.56
20.70091485977173,-1.26,1.73,1.34,2.52
20.7013521194458,-1.05,2.04,1.42,2.69
20.70640802383423,-0.73,2.4,1.47,2.9
20.716358184814453,-0.5,2.74,1.08,2.98
20.72646188735962,-0.32,2.94,0.31,2.97
20.75062608718872,-0.09,2.91,-0.5,2.95
20.75103998184204,0.31,2.75,-1.09,2.97
20.75632095336914,0.73,2.53,-1.42,2.99
20.766451835632324,1.08,2.12,-1.6,2.86
20.776453018188477,1.34,1.44,-1.79,2.65
20.80051302909851,1.54,0.56,-2.15,2.7
20.80093002319336,1.8,-0.28,-2.55,3.13
20.806446075439453,2.02,-1.03,-2.7,3.52
20.816344022750854,2.26,-1.45,-2.35,3.56
20.82657504081726,2.48,-1.21,-1.71,3.24
20.850365161895752,2.24,-0.59,-1.26,2.63
20.850791931152344,1.84,0.09,-1.05,2.12
20.856415033340454,1.31,0.89,-0.83,1.78
20.866453170776367,0.52,1.6,-0.49,1.75
20.87648105621338,-0.16,2.03,-0.3,2.05
20.900525093078613,-0.45,2.54,-0.36,2.6
20.900933980941772,-0.53,2.9,-0.47,2.98
20.906357049942017,-0.3,3.0,-0.65,3.08
20.91636896133423,0.16,2.79,-0.85,2.92
20.926534175872803,0.32,2.06,-1.13,2.37
20.95019292831421,0.31,1.37,-1.38,1.96
20.950613021850586,0.37,0.52,-1.31,1.45
20.956516981124878,0.42,-0.38,-0.86,1.02
20.966430187225342,0.5,-1.14,-0.33,1.28
20.976593017578125,0.58,-1.69,-0.08,1.78
21.000793933868408,0.54,-2.07,-0.11,2.14
21.001222133636475,0.35,-2.34,-0.3,2.38
21.006500959396362,0.15,-2.33,-0.57,2.4
21.016456127166748,0.18,-2.19,-0.84,2.35
21.026523113250732,0.3,-2.09,-0.89,2.29
21.050978183746338,0.5,-1.88,-0.91,2.14
21.05139398574829,0.79,-1.71,-0.99,2.12
21.056287050247192,1.02,-1.62,-0.99,2.15
21.066426992416382,1.1,-1.58,-0.9,2.12
21.07640504837036,1.06,-1.56,-0.77,2.03
21.100721836090088,0.98,-1.6,-0.6,1.96
21.101140022277832,0.88,-1.63,-0.38,1.89
21.106504917144775,0.75,-1.66,-0.14,1.82
21.116268157958984,0.64,-1.62,0.14,1.74
21.12645697593689,0.58,-1.56,0.28,1.68
21.151010990142822,0.63,-1.44,0.27,1.59
21.151423931121826,0.67,-1.31,0.26,1.49
21.156413078308105,0.75,-1.15,0.27,1.39
21.166417121887207,0.93,-0.99,0.23,1.37
21.176460027694702,1.14,-0.95,0.18,1.49
21.201108932495117,1.24,-0.87,0.04,1.51
21.201516151428223,1.19,-0.7,-0.04,1.38
21.206467151641846,1.09,-0.43,0.1,1.17
21.21642303466797,0.99,-0.08,0.4,1.07
21.226470947265625,0.92,0.3,0.72,1.2
21.25063705444336,1.02,0.74,0.94,1.57
21.25102996826172,1.2,1.02,1.04,1.88
21.256371021270752,1.24,1.23,1.01,2.01
21.26645517349243,1.12,1.41,0.99,2.05
21.276726007461548,0.79,1.38,1.17,1.97
21.301382064819336,0.56,1.37,1.44,2.06
21.30178213119507,0.42,1.42,1.68,2.23
21.306529998779297,0.24,1.35,1.78,2.24
21.316406965255737,-0.01,1.25,1.82,2.2
21.326557159423828,-0.25,1.33,1.92,2.34
21.350587844848633,-0.4,1.53,2.07,2.6
21.35102105140686,-0.34,1.74,2.2,2.82
21.35633397102356,-0.32,1.96,1.78,2.66
21.36643886566162,-0.41,2.25,1.27,2.61
21.376512050628662,-0.54,2.69,1.31,3.04
21.38652992248535,-0.58,3.06,1.54,3.47
21.401105880737305,-0.69,3.16,1.28,3.47
21.40636706352234,-0.7,3.26,0.56,3.38
21.416409015655518,-0.53,3.23,-0.23,3.28
21.42647886276245,-0.31,3.1,-0.89,3.24
21.436480045318604,-0.2,2.73,-1.41,3.07
21.451925039291382,-0.54,2.02,-1.82,2.77
21.456456184387207,-0.74,1.5,-2.29,2.83
21.466598987579346,-0.84,0.69,-2.7,2.91
21.476603984832764,-0.97,-0.29,-2.83,3.0
21.486571073532104,-1.26,-1.13,-2.34,2.88
21.50337791442871,-1.44,-1.75,-1.41,2.66
21.50661301612854,-1.39,-2.12,-0.8,2.65
21.516546964645386,-1.23,-2.13,-0.85,2.6
21.526633977890015,-1.2,-2.0,-1.3,2.67
21.536457061767578,-1.29,-1.57,-1.51,2.53
21.55208396911621,-1.21,-0.77,-1.4,2.0
21.556540966033936,-1.08,0.05,-1.1,1.54
21.56656789779663,-0.83,0.92,-0.71,1.42
21.576555967330933,-0.48,1.35,-0.53,1.52
21.586634159088135,-0.22,1.42,-0.69,1.59
21.60228705406189,-0.17,1.32,-1.09,1.72
21.606662034988403,-0.16,0.93,-1.35,1.64
21.616447925567627,-0.17,0.32,-1.29,1.33
21.626684188842773,-0.13,-0.26,-0.98,1.02
21.636477947235107,0.06,-0.86,-0.62,1.06
21.652489185333252,0.28,-1.45,-0.25,1.49
21.65646505355835,0.42,-1.88,0.0,1.92
21.666553020477295,0.48,-2.19,0.03,2.24
21.676597118377686,0.42,-2.18,-0.13,2.22
21.686630964279175,0.25,-2.07,-0.23,2.09
21.70258617401123,0.21,-1.92,-0.23,1.94
21.706605911254883,0.15,-1.68,-0.26,1.7
21.71656894683838,0.06,-1.38,-0.3,1.41
21.726660013198853,0.04,-1.2,-0.32,1.24
21.73650097846985,0.06,-1.05,-0.36,1.11
21.752068042755127,-0.03,-1.01,-0.38,1.07
21.756345987319946,-0.09,-1.05,-0.38,1.12
21.766690015792847,-0.08,-1.1,-0.3,1.14
21.776708126068115,-0.09,-1.21,-0.07,1.21
21.786683082580566,-0.24,-1.35,0.22,1.38
21.803277015686035,-0.48,-1.48,0.45,1.61
21.806586027145386,-0.66,-1.59,0.57,1.81
21.816652059555054,-0.72,-1.58,0.64,1.85
21.826722145080566,-0.76,-1.5,0.67,1.81
21.83656096458435,-0.79,-1.38,0.63,1.71
21.85311985015869,-0.81,-1.22,0.47,1.53
21.856353998184204,-0.88,-1.13,0.3,1.46
21.86664915084839,-0.98,-1.02,0.22,1.43
21.876688957214355,-1.12,-0.95,0.27,1.49
21.8867130279541,-1.22,-0.83,0.45,1.54
21.901548862457275,-1.25,-0.69,0.64,1.56
21.906604051589966,-1.23,-0.46,0.73,1.5
21.91664409637451,-1.19,-0.25,0.68,1.39
21.9266939163208,-1.1,-0.08,0.48,1.2
21.93661403656006,-0.94,0.16,0.37,1.02
21.9528751373291,-0.79,0.37,0.51,1.01
21.9564471244812,-0.65,0.46,0.69,1.05
21.966678142547607,-0.5,0.52,0.83,1.09
21.97666597366333,-0.38,0.58,0.93,1.16
21.986701011657715,-0.29,0.55,1.16,1.31
22.00292706489563,-0.33,0.38,1.4,1.48
22.00667095184326,-0.48,0.19,1.52,1.6
22.016618967056274,-0.8,-0.07,1.7,1.88
22.02669405937195,-0.96,0.2,2.26,2.46
22.036653995513916,-0.66,0.7,2.72,2.88
22.05469512939453,-0.61,1.21,2.4,2.75
22.05656099319458,-0.87,1.85,1.93,2.81
22.066657066345215,-0.98,2.52,1.83,3.26
22.076664924621582,-0.77,3.09,1.64,3.58
22.08671498298645,-0.51,3.83,1.06,4.0
22.10369896888733,0.03,4.29,0.13,4.29
22.106548070907593,0.72,4.49,-0.9,4.63
22.11662197113037,1.03,4.18,-1.91,4.7
22.126687049865723,1.08,3.52,-2.66,4.54
22.136615991592407,1.37,2.65,-2.86,4.13
22.153607845306396,1.55,1.42,-2.59,3.33
22.156466007232666,1.55,0.14,-2.18,2.67
22.166633129119873,1.41,-1.06,-1.77,2.49
22.176656007766724,1.42,-1.92,-1.46,2.79
22.186663150787354,1.72,-2.46,-1.24,3.24
22.20370388031006,1.97,-2.26,-1.21,3.23
22.206472873687744,1.67,-1.55,-1.37,2.65
22.216544151306152,1.27,-0.92,-1.4,2.1
22.226688861846924,1.0,0.08,-1.22,1.57
22.236587047576904,0.67,1.22,-0.86,1.63
22.253504991531372,0.23,2.08,-0.39,2.12
22.25647497177124,-0.17,2.8,-0.18,2.81
22.266590118408203,-0.1,3.46,-0.31,3.47
22.27654790878296,0.14,3.75,-0.74,3.82
22.286659955978394,0.27,3.73,-1.14,3.9
22.303515911102295,0.37,2.74,-1.29,3.05
22.30648708343506,0.21,1.83,-1.54,2.4
22.316534996032715,0.27,0.91,-1.55,1.81
22.326653003692627,0.46,-0.17,-1.0,1.11
22.336575031280518,0.56,-0.95,-0.32,1.14
22.353618144989014,0.59,-1.53,0.06,1.64
22.35636615753174,0.47,-1.97,0.0,2.02
22.366597175598145,0.17,-2.11,-0.33,2.14
22.376583099365234,-0.03,-2.04,-0.58,2.12
22.38660502433777,0.18,-1.77,-0.69,1.9
22.40381097793579,0.38,-1.55,-0.69,1.73
22.406463146209717,0.53,-1.46,-0.77,1.73
22.416624069213867,0.7,-1.35,-0.97,1.8
22.426740169525146,0.83,-1.41,-1.09,1.96
22.43656015396118,0.79,-1.51,-1.1,2.02
22.453577995300293,0.65,-1.58,-0.96,1.95
22.45639204978943,0.61,-1.67,-0.65,1.89
22.466637134552002,0.62,-1.75,-0.34,1.88
22.476433992385864,0.56,-1.79,-0.09,1.87
22.486698150634766,0.59,-1.71,0.05,1.8
22.50331997871399,0.66,-1.59,0.1,1.72
22.50656509399414,0.62,-1.38,0.08,1.51
22.516624927520752,0.61,-1.17,0.05,1.32
22.526637077331543,0.69,-0.92,0.06,1.15
22.536504983901978,0.84,-0.65,0.02,1.06
22.553411960601807,0.88,-0.45,-0.02,0.98
22.556530952453613,0.89,-0.31,-0.01,0.94
22.5665340423584,0.94,-0.03,0.22,0.96
22.576444149017334,0.91,0.24,0.5,1.06
22.586678981781006,0.83,0.43,0.53,1.07
22.603302001953125,0.8,0.56,0.43,1.06
22.606641054153442,0.94,0.6,0.4,1.18
22.616618156433105,1.12,0.62,0.51,1.37
22.626840114593506,1.21,0.66,0.66,1.52
22.636811017990112,1.17,0.71,0.79,1.58
22.654150009155273,1.03,0.79,0.94,1.6
22.65648889541626,0.83,0.82,1.09,1.59
22.66673517227173,0.58,0.83,1.16,1.53
22.676462173461914,0.37,0.75,1.19,1.45
22.686711072921753,0.19,0.61,1.22,1.37
22.704162120819092,0.07,0.44,1.19,1.27
22.706516981124878,-0.06,0.26,1.04,1.07
22.71660089492798,-0.16,0.13,0.99,1.01
22.726619958877563,-0.12,0.43,1.44,1.5
22.73661994934082,0.0,0.81,1.82,1.99
22.753806114196777,-0.04,1.38,1.51,2.04
22.756662845611572,-0.15,2.04,1.15,2.34
22.766767978668213,-0.19,2.58,1.09,2.8
22.77667808532715,-0.18,3.11,1.1,3.3
22.786725997924805,-0.21,3.51,0.88,3.62
22.804347038269043,-0.06,3.82,0.35,3.83
22.80667805671692,0.34,3.83,-0.32,3.85
22.816768169403076,0.88,3.54,-1.09,3.8
22.826510906219482,1.14,2.75,-1.95,3.55
22.836624145507812,0.74,1.89,-2.71,3.38
22.85456418991089,0.6,1.01,-3.21,3.41
22.85681390762329,0.28,0.03,-3.07,3.08
22.866734981536865,-0.34,-0.7,-2.31,2.43
22.876593112945557,-1.23,-1.37,-1.29,2.24
22.886765956878662,-1.55,-1.77,-0.54,2.41
22.904685020446777,-1.37,-1.78,-0.53,2.3
22.90692400932312,-1.27,-1.57,-1.14,2.31
22.916612148284912,-1.66,-1.57,-1.23,2.59
22.926784992218018,-1.21,-0.62,-1.09,1.74
22.93662691116333,-0.35,0.13,-1.01,1.07
22.95462203025818,0.23,1.08,-0.85,1.39
22.95720100402832,0.61,2.17,-0.76,2.37
22.9667329788208,0.72,2.56,-0.95,2.82
22.976474046707153,0.6,2.64,-1.39,3.04
22.986692905426025,0.27,2.27,-1.7,2.84
23.004127979278564,-0.33,1.45,-1.56,2.15
23.007205963134766,-0.53,0.66,-0.99,1.3
23.01681089401245,-0.42,-0.24,-0.24,0.53
23.026535034179688,-0.25,-0.97,0.18,1.01
23.03667402267456,0.01,-1.53,0.08,1.53
23.05491590499878,0.33,-1.85,-0.33,1.9
23.057211875915527,0.63,-1.86,-0.6,2.05
23.066760063171387,0.74,-1.6,-0.65,1.87
23.076547145843506,0.78,-1.27,-0.58,1.59
23.086763858795166,0.81,-0.88,-0.62,1.34
23.104783058166504,0.78,-0.58,-0.79,1.25
23.10722303390503,0.78,-0.39,-1.04,1.35
23.116636037826538,0.78,-0.33,-1.26,1.51
23.126532077789307,0.69,-0.45,-1.34,1.57
23.1367290019989,0.55,-0.62,-1.15,1.41
23.154550075531006,0.5,-0.76,-0.73,1.16
23.157436847686768,0.45,-0.8,-0.31,0.96
23.166805028915405,0.38,-0.82,-0.06,0.9
23.17672896385193,0.31,-0.86,-0.08,0.91
23.186771869659424,0.3,-0.83,-0.24,0.91
23.205562114715576,0.23,-0.78,-0.4,0.9
23.206666946411133,0.05,-0.71,-0.53,0.88
23.216673851013184,-0.13,-0.57,-0.54,0.79
23.226571083068848,-0.2,-0.38,-0.43,0.6
23.236634016036987,-0.24,-0.18,-0.39,0.49
23.254953861236572,-0.26,0.04,-0.33,0.42
23.25659704208374,-0.21,0.28,-0.22,0.41
23.266831874847412,-0.23,0.48,-0.08,0.53
23.27654790878296,-0.25,0.65,0.0,0.69
23.286771059036255,-0.36,0.75,-0.02,0.83
23.305572032928467,-0.42,0.77,-0.1,0.88
23.306730031967163,-0.54,0.74,-0.11,0.92
23.31670093536377,-0.58,0.68,-0.01,0.89
23.326569080352783,-0.54,0.61,0.07,0.81
23.33668613433838,-0.52,0.57,0.12,0.78
23.35518789291382,-0.51,0.56,0.1,0.76
23.356608867645264,-0.51,0.63,-0.03,0.81
23.366829872131348,-0.54,0.66,-0.18,0.87
23.376665115356445,-0.6,0.62,-0.27,0.9
23.38679313659668,-0.7,0.48,-0.31,0.9
23.40471887588501,-0.78,0.3,-0.37,0.91
23.406580924987793,-0.74,0.08,-0.28,0.79
23.416736125946045,-0.64,-0.11,-0.02,0.64
23.426624059677124,-0.46,-0.03,0.36,0.58
23.43678617477417,-0.41,0.29,0.9,1.03
23.454766035079956,-0.45,0.75,1.39,1.64
23.45670986175537,-0.34,1.39,1.66,2.19
23.46684503555298,-0.17,2.15,1.46,2.6
23.47653293609619,0.0,2.53,0.62,2.6
23.486846923828125,0.37,2.72,-0.47,2.78
23.50521993637085,0.97,2.72,-1.35,3.18
23.50667905807495,1.56,2.3,-1.87,3.34
23.51670217514038,1.87,1.68,-2.03,3.23
23.526676177978516,2.21,1.06,-1.75,3.01
23.536782026290894,2.48,0.5,-0.93,2.69
23.55552101135254,2.58,0.14,0.11,2.58
23.556602001190186,2.65,0.02,0.77,2.75
23.566837072372437,2.66,0.25,0.49,2.71
23.57672905921936,2.67,0.38,-0.36,2.72
23.586920976638794,2.51,0.48,-0.78,2.67
23.605637073516846,2.31,0.73,-0.98,2.61
23.606600999832153,2.28,1.0,-1.2,2.76
23.616775035858154,2.51,1.17,-1.41,3.1
23.62667417526245,2.78,1.31,-1.53,3.43
23.636714935302734,3.05,1.22,-1.48,3.6
23.65612506866455,3.08,1.01,-1.25,3.47
23.656548976898193,2.92,0.89,-1.04,3.22
23.666861057281494,2.72,0.72,-0.8,2.92
23.67659306526184,2.54,0.52,-0.7,2.68
23.686920166015625,2.52,0.32,-0.75,2.64
23.705250024795532,2.56,0.16,-0.81,2.68
23.706637859344482,2.62,0.09,-0.83,2.74
23.7167329788208,2.67,0.03,-0.8,2.78
23.726588010787964,2.71,0.1,-0.78,2.82
23.73683500289917,2.61,0.22,-0.82,2.74
23.75543785095215,2.41,0.32,-0.87,2.58
23.756558895111084,2.26,0.43,-0.78,2.42
23.76684284210205,2.22,0.59,-0.6,2.37
23.7766170501709,2.2,0.49,-0.62,2.33
23.786843061447144,2.05,0.44,-0.83,2.25
23.80561590194702,1.71,0.33,-0.93,1.97
23.806750059127808,1.56,0.23,-0.9,1.81
23.816790103912354,1.46,0.13,-0.71,1.62
23.826644897460938,1.48,0.1,-0.54,1.57
23.8368501663208,1.57,0.0,-0.52,1.65
23.856139183044434,1.58,-0.07,-0.62,1.69
23.856564044952393,1.5,-0.13,-0.71,1.66
23.866838932037354,1.37,-0.25,-0.79,1.6
23.87669610977173,1.28,-0.31,-0.76,1.52
23.88689613342285,1.25,-0.38,-0.66,1.46
23.90535593032837,1.23,-0.42,-0.55,1.41
23.90666389465332,1.25,-0.34,-0.43,1.36
23.91677713394165,1.27,-0.25,-0.26,1.32
23.926692008972168,1.33,-0.19,-0.09,1.34
23.936796188354492,1.39,-0.06,0.08,1.39
23.956369876861572,1.36,0.04,0.18,1.37
23.95679497718811,1.24,0.2,0.28,1.28
23.966898918151855,1.08,0.49,0.48,1.27
23.97655701637268,0.95,0.85,0.71,1.45
23.986918926239014,0.89,1.15,0.78,1.65
24.006083965301514,0.92,1.53,0.73,1.92
24.006688117980957,1.01,1.64,0.51,1.99
24.01678991317749,1.22,1.62,0.24,2.04
24.02672815322876,1.42,1.26,-0.18,1.9
24.03677797317505,1.03,0.78,-0.65,1.44
24.056643962860107,0.46,0.39,-0.9,1.08
24.057059049606323,0.11,-0.16,-0.78,0.8
24.06689214706421,-0.06,-0.66,-0.39,0.76
24.076613903045654,-0.09,-0.98,-0.02,0.98
24.086977005004883,-0.03,-1.22,0.17,1.23
24.10606098175049,0.15,-1.3,0.09,1.31
24.106831073760986,0.33,-1.08,-0.15,1.13
24.116724967956543,0.18,-0.82,-0.35,0.9
24.126623153686523,-0.02,-0.59,-0.52,0.78
24.13684105873108,-0.17,-0.3,-0.61,0.7
24.156113147735596,-0.16,0.06,-0.49,0.51
24.15656304359436,-0.17,0.34,-0.19,0.42
24.1668438911438,-0.38,0.57,0.12,0.69
24.17659091949463,-0.66,0.75,0.32,1.04
24.187010049819946,-0.73,0.86,0.34,1.17
24.207167148590088,-0.66,0.91,0.28,1.15
24.207571029663086,-0.38,0.87,0.17,0.96
24.21686601638794,-0.06,0.65,-0.05,0.65
24.226776123046875,-0.26,0.35,-0.42,0.6
24.236874103546143,-0.61,0.21,-0.75,0.98
24.256134033203125,-0.72,0.03,-0.82,1.09
24.256639003753662,-0.86,-0.17,-0.65,1.09
24.266862869262695,-1.08,-0.41,-0.33,1.2
24.276726007461548,-1.33,-0.55,0.0,1.43
24.286895036697388,-1.45,-0.69,0.25,1.62
24.30669903755188,-1.47,-0.7,0.45,1.68
24.30711603164673,-1.59,-0.52,0.43,1.72
24.31684398651123,-1.52,-0.23,0.14,1.54
24.326859951019287,-1.37,0.04,-0.13,1.37
24.336820125579834,-1.24,0.51,-0.2,1.35
24.35771417617798,-1.12,0.94,-0.17,1.47
24.358142852783203,-1.11,1.26,0.04,1.67
24.36697006225586,-1.23,1.27,0.17,1.77
24.376705169677734,-1.37,0.86,-0.01,1.61
24.386996030807495,-1.29,0.45,-0.16,1.37
24.407434940338135,-1.14,-0.03,0.02,1.14
24.40785503387451,-1.02,-0.42,0.43,1.18
24.416944980621338,-0.88,-0.67,0.71,1.31
24.426764011383057,-0.83,-0.83,0.63,1.33
24.436965942382812,-0.82,-0.82,0.29,1.19
24.45746088027954,-0.87,-0.72,0.0,1.12
24.45789384841919,-0.9,-0.63,-0.18,1.11
24.466947078704834,-0.85,-0.48,-0.35,1.03
24.47671890258789,-0.8,-0.4,-0.41,0.98
24.48698616027832,-0.84,-0.33,-0.38,0.97
24.50740909576416,-0.85,-0.26,-0.41,0.97
24.507833003997803,-0.87,-0.21,-0.5,1.02
24.516885995864868,-0.91,-0.25,-0.48,1.05
24.526752948760986,-0.87,-0.26,-0.35,0.97
24.536921977996826,-0.79,-0.16,-0.33,0.87
24.55704689025879,-0.76,-0.01,-0.48,0.89
24.55745792388916,-0.8,0.1,-0.65,1.03
24.567018032073975,-0.88,0.17,-0.7,1.13
24.576624870300293,-0.91,0.19,-0.64,1.12
24.586955070495605,-0.92,0.21,-0.54,1.08
24.607056140899658,-0.98,0.15,-0.38,1.06
24.607479095458984,-1.09,0.07,-0.15,1.1
24.616916179656982,-1.22,0.05,0.04,1.22
24.626720905303955,-1.23,0.15,0.21,1.25
24.636937141418457,-1.1,0.25,0.47,1.22
24.657991886138916,-1.14,0.38,0.63,1.35
24.658401012420654,-1.17,0.6,0.76,1.51
24.666911125183105,-1.02,0.95,1.11,1.78
24.676715850830078,-0.69,1.23,1.43,2.0
24.687006950378418,-0.33,1.5,1.2,1.94
24.705355167388916,-0.04,1.37,0.28,1.39
24.706718921661377,0.07,0.95,-0.73,1.2
24.716830015182495,0.0,0.65,-1.02,1.2
24.726745128631592,-0.1,0.27,-0.32,0.43
24.736897945404053,-0.28,0.04,0.2,0.34
24.757089138031006,0.27,-0.62,-0.75,1.0
24.757444858551025,0.28,-1.09,-1.12,1.58
24.766918182373047,0.11,-1.42,0.31,1.45
24.77680015563965,0.11,-1.62,1.11,1.96
24.786947011947632,0.05,-1.49,0.16,1.49
24.806246995925903,-0.11,-1.0,-0.61,1.17
24.806766986846924,-0.15,-0.74,-0.54,0.92
24.816879987716675,-0.06,-0.53,-0.08,0.53
24.826877117156982,0.19,0.12,-0.02,0.22
24.836907863616943,0.45,0.54,-0.59,0.91
24.855692863464355,0.62,0.61,-0.84,1.2
24.856621980667114,0.7,0.52,-0.52,1.01
24.86692500114441,0.68,0.41,-0.17,0.81
24.876954078674316,0.4,0.23,-0.26,0.52
24.887019157409668,-0.16,0.07,-0.55,0.57
24.90638017654419,-0.16,-0.12,0.01,0.2
24.90689706802368,0.24,-0.32,0.09,0.41
24.916892051696777,0.76,-0.34,0.01,0.83
24.927021980285645,0.95,-0.28,-0.14,1.0
24.93692398071289,0.88,-0.08,-0.4,0.96
24.9572811126709,0.86,0.06,-0.59,1.04
24.957627058029175,0.98,0.21,-0.3,1.04
24.967050075531006,1.07,0.37,0.25,1.15
24.977063179016113,0.87,0.46,0.32,1.03
24.986992835998535,0.61,0.36,0.23,0.74
25.007358074188232,0.57,0.23,0.29,0.67
25.007722854614258,0.42,0.01,0.21,0.46
25.016983032226562,0.08,-0.16,0.17,0.24
25.027248859405518,-0.03,-0.28,0.13,0.31
25.036890029907227,0.22,-0.34,0.22,0.46
25.0571608543396,0.66,-0.28,0.21,0.74
25.057518005371094,0.99,0.01,-0.11,0.99
25.06691312789917,0.99,0.19,-0.09,1.01
25.077231884002686,0.51,0.13,-0.01,0.52
25.087046146392822,0.31,0.21,-0.23,0.43
25.10768699645996,0.15,0.32,0.16,0.38
25.10810089111328,0.01,0.45,0.36,0.57
25.117027044296265,-0.13,0.43,0.23,0.5
25.127549171447754,-0.09,0.26,0.02,0.27
25.136962890625,0.09,0.3,0.0,0.31
25.15893793106079,0.38,0.32,0.05,0.49
25.159318923950195,0.62,0.48,0.21,0.81
25.167150020599365,0.39,0.4,0.53,0.77
25.17780113220215,0.23,0.32,0.56,0.68
25.187099933624268,0.21,0.16,0.42,0.49
25.20665693283081,0.12,-0.02,0.23,0.26
25.207085132598877,0.09,-0.09,0.1,0.16
25.2170090675354,0.01,-0.14,0.14,0.19
25.22694206237793,-0.05,-0.27,0.25,0.37
25.241037845611572,-0.02,-0.28,0.07,0.28
25.246878147125244,0.17,-0.24,0.07,0.3
25.256864070892334,0.28,-0.13,0.2,0.36
25.266942024230957,0.3,-0.09,0.19,0.36
25.276998043060303,0.39,0.14,0.26,0.48
25.29139804840088,0.35,-0.04,0.3,0.46
25.296902179718018,0.57,-0.42,-0.07,0.71
25.307021141052246,0.34,0.09,-0.33,0.48
25.316955089569092,-0.06,-0.08,-0.65,0.65
25.327043056488037,0.51,0.14,-0.05,0.53
25.342639923095703,0.71,0.13,0.56,0.91
25.347055912017822,0.28,0.1,0.66,0.72
25.35691499710083,0.05,-0.08,0.27,0.28
25.36699104309082,-0.13,0.04,-0.08,0.15
25.376937866210938,-0.17,0.09,-0.31,0.36
25.392024040222168,-0.2,0.06,-0.1,0.23
25.39699697494507,-0.08,0.09,0.2,0.23
25.40700912475586,0.12,0.05,0.3,0.32
25.41700792312622,0.17,-0.03,0.29,0.33
25.427088022232056,0.14,-0.09,0.23,0.28
25.443506956100464,0.01,-0.2,0.21,0.29
25.446994066238403,-0.07,-0.28,0.22,0.36
25.456969022750854,-0.08,-0.31,0.21,0.38
25.467027187347412,-0.04,-0.28,0.15,0.32
25.47701096534729,-0.05,-0.27,0.07,0.28
25.492063999176025,-0.06,-0.18,-0.06,0.19
25.49684715270996,-0.08,-0.14,-0.2,0.25
25.506986141204834,-0.18,-0.03,-0.36,0.4
25.51703906059265,-0.22,0.19,-0.38,0.47
25.52700400352478,-0.22,0.33,-0.25,0.46
25.542391061782837,-0.25,0.4,-0.29,0.55
25.54698395729065,-0.29,0.34,-0.41,0.6
25.556901931762695,-0.28,0.1,-0.47,0.55
25.567124843597412,-0.22,-0.13,-0.14,0.29
25.576984882354736,-0.16,-0.28,0.32,0.45
25.592269897460938,-0.19,-0.41,0.59,0.74
25.596846103668213,-0.18,-0.49,0.57,0.77
25.607036113739014,-0.14,-0.43,0.39,0.59
25.617146015167236,-0.19,-0.24,0.28,0.41
25.62709403038025,-0.23,-0.06,0.23,0.33
25.64294195175171,-0.22,0.08,0.14,0.27
25.646912097930908,-0.25,0.13,0.06,0.28
25.656978130340576,-0.34,0.06,0.04,0.34
25.66717004776001,-0.37,0.02,0.05,0.37
25.677011966705322,-0.4,-0.02,0.14,0.42
25.693593978881836,-0.42,-0.08,0.21,0.47
25.69686985015869,-0.4,-0.13,0.22,0.47
25.742573022842407,-0.3,-0.09,0.18,0.36
25.74329400062561,-0.23,-0.06,0.11,0.26
25.743937969207764,-0.17,0.0,0.06,0.18
25.761553049087524,-0.13,0.04,-0.03,0.13
25.7626690864563,-0.16,0.03,-0.03,0.16
25.763077974319458,-0.19,0.07,0.06,0.21
25.76676893234253,-0.19,0.08,0.07,0.21
25.776705980300903,-0.22,0.0,0.06,0.22
25.78931713104248,-0.16,-0.01,0.07,0.17
25.796836853027344,-0.1,-0.07,0.08,0.14
25.806724071502686,-0.04,-0.14,0.08,0.16
25.817057132720947,0.01,-0.16,0.03,0.16
25.827022075653076,0.0,-0.11,0.02,0.11
25.843070030212402,-0.07,-0.06,0.05,0.1
25.846978187561035,-0.13,0.01,0.06,0.14
25.85695791244507,-0.14,0.04,0.04,0.15
25.86701488494873,-0.16,0.04,0.06,0.17
25.87694215774536,-0.17,0.02,0.04,0.17
25.89348793029785,-0.15,0.02,0.01,0.15
25.896818161010742,-0.14,0.05,-0.03,0.15
25.907185077667236,-0.13,-0.01,0.0,0.13
25.916998863220215,-0.03,-0.01,-0.14,0.14
26.081603050231934,-0.18,0.14,-0.15,0.27
26.085451126098633,-0.12,-0.05,0.11,0.17
26.08625888824463,-0.21,-0.03,0.21,0.29
26.0869619846344,-0.21,-0.15,0.03,0.25
26.08761501312256,-0.21,-0.14,-0.01,0.25
26.088375091552734,-0.17,-0.09,0.05,0.19
26.09150505065918,-0.1,-0.02,0.01,0.1
26.092177867889404,-0.1,0.06,0.0,0.11
26.09291696548462,-0.16,0.08,0.03,0.18
26.093677043914795,-0.15,0.04,0.01,0.15
26.09443998336792,-0.13,0.0,-0.01,0.13
26.097676992416382,-0.08,-0.01,-0.02,0.08
26.09848690032959,-0.1,-0.03,0.0,0.1
26.099236011505127,-0.15,-0.01,0.03,0.15
26.099982023239136,-0.19,0.02,0.08,0.2
26.10071086883545,-0.19,0.03,0.13,0.23
26.10318398475647,-0.12,0.04,0.14,0.18
26.103456020355225,-0.1,0.04,0.1,0.14
26.107605934143066,-0.09,0.03,0.03,0.09
26.117422103881836,-0.06,0.02,0.01,0.06
26.128046989440918,-0.1,0.01,-0.03,0.1
26.1393940448761,-0.12,0.0,-0.13,0.17
26.148370027542114,-0.14,0.01,0.02,0.14
26.161459922790527,-0.15,0.05,0.16,0.22
26.16964101791382,-0.16,0.04,0.24,0.29
26.179123878479004,-0.12,0.03,0.08,0.14
26.189287185668945,-0.08,-0.01,0.03,0.08
26.199048042297363,0.04,-0.06,0.13,0.14
26.209238052368164,0.12,-0.07,0.23,0.26
26.21932101249695,0.08,-0.02,0.3,0.31
26.22924304008484,-0.02,0.03,0.19,0.19
26.237958908081055,-0.12,0.09,0.04,0.15
26.24941897392273,-0.18,0.15,-0.06,0.24
26.25908613204956,-0.14,0.11,-0.09,0.19
26.26927089691162,-0.09,0.06,-0.01,0.1
26.279191970825195,-0.08,-0.05,0.09,0.13
26.289145946502686,-0.08,-0.09,0.1,0.15
26.297356128692627,-0.06,-0.1,0.1,0.15
26.309884071350098,-0.03,-0.12,0.08,0.14
26.318182945251465,-0.01,-0.04,0.05,0.06
26.329620838165283,-0.04,0.03,0.07,0.08
26.33991503715515,-0.06,0.08,0.06,0.11
26.34916114807129,-0.08,0.06,0.0,0.1
26.35954713821411,-0.07,-0.01,-0.03,0.07
26.369557857513428,-0.05,-0.03,0.01,0.05
26.379204034805298,-0.07,-0.04,-0.05,0.09
26.389907836914062,-0.13,-0.02,-0.13,0.18
26.39928388595581,-0.16,0.09,-0.15,0.23
26.409214973449707,-0.18,0.19,-0.2,0.32
26.419189929962158,-0.24,0.21,-0.18,0.36
26.429338932037354,-0.21,0.11,-0.12,0.26
26.439330101013184,0.1,-0.04,0.41,0.42
26.448909044265747,0.1,-0.04,0.59,0.59
26.45962405204773,-0.11,-0.14,0.45,0.48
26.469444036483765,-0.28,-0.13,0.25,0.39
26.47902202606201,-0.25,-0.06,0.01,0.25
26.489468097686768,-0.14,0.0,-0.28,0.31
26.499186038970947,-0.14,0.12,-0.24,0.3
26.509199142456055,-0.26,0.21,0.0,0.33
26.519299030303955,-0.22,0.29,0.09,0.37
26.529233932495117,-0.26,0.33,-0.03,0.42
26.539201021194458,-0.06,0.0,0.03,0.06
26.549796104431152,0.17,-0.04,0.3,0.34
26.559414863586426,0.13,-0.01,0.46,0.47
26.569310188293457,0.0,-0.09,0.46,0.46
26.581467151641846,0.21,-0.2,0.35,0.45
26.589591026306152,0.33,-0.34,0.13,0.49
26.599302053451538,0.25,-0.39,-0.07,0.46
26.60804796218872,0.05,-0.3,0.06,0.31
26.617922067642212,-0.12,-0.22,0.15,0.29
26.629534006118774,0.11,-0.14,0.28,0.33
26.639769077301025,0.66,-0.32,0.07,0.73
26.649138927459717,1.53,-0.52,-0.27,1.63
26.659430027008057,1.14,-0.1,0.59,1.28
26.669148921966553,-0.16,0.19,1.29,1.31
26.679501056671143,-0.75,0.29,0.77,1.11
26.689268112182617,-1.12,0.33,0.16,1.17
26.69946599006653,-1.42,0.13,-0.55,1.52
26.709235191345215,-1.41,0.05,-0.56,1.51
26.719440937042236,-1.04,-0.16,-0.29,1.09
26.729326009750366,-0.41,-0.22,-0.97,1.07
26.739283084869385,0.03,-0.18,-0.68,0.7
26.749507904052734,0.37,-0.09,-0.09,0.39
26.759042024612427,0.52,0.12,0.26,0.59
26.76932716369629,0.7,0.14,0.33,0.78
26.77917194366455,0.71,0.05,0.53,0.88
26.790555953979492,0.47,-0.04,0.83,0.95
26.799460887908936,-0.19,-0.33,0.7,0.79
26.81174898147583,-0.77,-0.5,-0.09,0.92
26.82200813293457,-0.83,-0.09,-0.71,1.09
26.832830905914307,-0.05,0.13,0.17,0.21
26.845157146453857,-0.13,0.27,0.11,0.31
26.84980607032776,0.33,0.28,0.19,0.47
26.859374046325684,0.4,0.27,0.56,0.73
26.86962890625,0.44,0.19,0.36,0.59
26.879657983779907,0.28,0.0,0.03,0.28
26.889660835266113,-0.1,-0.11,0.17,0.22
26.90579319000244,-0.28,-0.18,0.2,0.38
26.917837142944336,-0.28,-0.19,0.2,0.39
26.919833183288574,-0.24,-0.27,0.06,0.36
26.924214839935303,-0.22,-0.33,-0.17,0.43
26.935198068618774,-0.42,-0.18,-0.26,0.52
26.94356107711792,-0.46,0.0,-0.07,0.46
26.953860998153687,-0.02,-0.14,0.23,0.27
26.965773105621338,0.41,-0.19,0.47,0.65
26.97635793685913,0.32,-0.12,0.97,1.02
27.0259108543396,-0.41,-0.58,0.03,0.71
27.031981945037842,-0.62,-0.13,-0.36,0.72
27.03303813934326,1.19,0.36,0.28,1.27
27.035433053970337,1.81,0.18,0.68,1.94
27.038917064666748,1.04,0.23,0.55,1.19
27.045723915100098,-0.17,0.09,-0.14,0.23
27.047198057174683,-1.14,0.15,-0.36,1.2
27.05384397506714,-1.16,0.23,-0.82,1.43
27.06408405303955,-0.65,-0.05,-0.22,0.68
27.07412815093994,-0.11,-0.14,0.6,0.62
27.091673851013184,0.34,-0.16,0.59,0.69
27.09383487701416,0.3,-0.15,0.27,0.43
27.104434967041016,0.01,-0.15,0.07,0.16
27.11555814743042,-0.08,-0.1,0.03,0.13
27.125239849090576,-0.08,-0.02,0.11,0.13
27.135982036590576,-0.01,-0.04,0.2,0.2
27.146384954452515,-0.03,-0.07,0.18,0.19
27.16382098197937,-0.12,-0.09,0.1,0.18
27.180947065353394,-0.12,-0.1,0.05,0.16
27.184133052825928,-0.08,-0.13,0.01,0.15
27.187916040420532,-0.02,-0.15,0.03,0.15
27.194047927856445,-0.01,-0.12,0.09,0.15
27.205448150634766,-0.05,-0.05,0.09,0.11
27.21607208251953,-0.13,-0.01,0.06,0.14
27.223623991012573,-0.13,0.01,0.02,0.13
27.23531198501587,-0.06,0.03,0.02,0.06
27.250786066055298,0.01,0.01,0.05,0.05
27.258854866027832,-0.04,-0.03,0.06,0.07
27.26938009262085,-0.08,-0.06,0.11,0.14
27.27972984313965,-0.08,-0.07,0.14,0.17
27.296249866485596,-0.14,-0.08,0.1,0.18
27.29847812652588,-0.12,-0.07,0.06,0.15
27.312918186187744,-0.08,-0.04,0.06,0.1
27.318039894104004,-0.07,-0.02,0.02,0.07
27.32951593399048,-0.07,0.02,0.02,0.07
27.338119983673096,-0.07,0.04,0.06,0.1
27.350188970565796,0.0,0.09,-0.13,0.15
27.3596670627594,-0.07,0.12,-0.09,0.16
27.369529962539673,-0.1,0.08,0.15,0.19
27.379959106445312,-0.11,0.09,0.27,0.3
27.399561882019043,-0.11,0.07,0.19,0.23
27.402134895324707,-0.12,-0.02,0.1,0.15
27.408650875091553,-0.03,-0.09,0.1,0.13
27.419780015945435,0.04,-0.15,0.16,0.22
27.42993998527527,0.08,-0.12,0.2,0.24
27.44099187850952,0.02,-0.07,0.09,0.11
27.449849128723145,-0.07,-0.04,-0.04,0.09
27.459775924682617,-0.11,0.03,-0.04,0.12
27.47010087966919,-0.09,0.08,0.03,0.12
27.47886896133423,-0.11,0.1,0.05,0.15
27.48988103866577,-0.13,0.11,0.04,0.17
27.501328945159912,-0.09,0.12,0.03,0.15
27.509686946868896,-0.08,0.09,0.02,0.12
27.519405841827393,-0.06,0.04,0.01,0.07
27.529227018356323,-0.06,0.02,0.04,0.07
27.53975486755371,-0.08,-0.02,0.04,0.09
27.55054497718811,-0.08,-0.03,0.04,0.09
27.55985999107361,-0.08,-0.02,0.12,0.14
27.569747924804688,-0.08,0.01,0.1,0.12
27.579585075378418,-0.08,0.02,0.01,0.08
27.590309143066406,-0.05,0.05,0.02,0.07
27.60016393661499,0.0,0.08,0.05,0.09
27.610477924346924,0.05,0.06,0.0,0.07
27.618295192718506,0.04,0.06,-0.04,0.08
27.62823796272278,-0.02,0.03,-0.02,0.04
27.639029026031494,-0.06,0.03,-0.01,0.06
27.65015196800232,-0.08,0.01,0.03,0.08
27.659535884857178,-0.07,-0.01,0.03,0.07
27.6694278717041,-0.07,-0.04,0.02,0.08
27.67983913421631,-0.01,-0.03,0.03,0.04
27.68876886367798,0.02,-0.01,0.03,0.03
27.70038604736328,-0.01,0.06,0.03,0.06
27.709935188293457,-0.02,0.1,0.06,0.11
27.719611167907715,-0.02,0.16,0.04,0.16
27.72966718673706,-0.01,0.14,0.0,0.14
27.73951816558838,-0.03,0.14,0.0,0.14
27.751927852630615,-0.15,-0.07,-0.49,0.51
27.75902509689331,-0.42,0.29,-1.87,1.93
27.769783973693848,0.06,0.57,-0.18,0.6
27.778938055038452,0.32,0.03,0.99,1.04
27.788928985595703,0.31,0.08,1.03,1.07
27.79914402961731,0.18,-0.2,0.19,0.32
32.64377307891846,-0.18,-0.19,-0.11,0.28
32.646486043930054,-0.23,-0.15,0.32,0.42
32.65008902549744,-0.01,0.01,0.64,0.64
32.6548171043396,0.05,0.03,0.23,0.23
32.65553092956543,0.05,0.15,-0.18,0.23
32.656440019607544,-0.01,0.1,-0.28,0.29
32.65729284286499,-0.04,0.05,-0.03,0.07
32.658061027526855,0.0,0.12,-0.01,0.12
32.66131591796875,0.01,0.09,-0.36,0.37
32.6620819568634,-0.03,-0.04,0.22,0.22
32.66277599334717,-0.03,-0.11,0.8,0.8
32.66374111175537,-0.02,-0.26,0.7,0.74
32.66485404968262,-0.12,-0.29,0.45,0.54
32.66862916946411,-0.23,-0.27,0.35,0.49
32.66990518569946,-0.12,-0.18,-0.29,0.36
32.67099905014038,0.0,0.03,-1.01,1.01
32.671871185302734,-0.06,0.06,-0.69,0.69
32.672683000564575,-0.02,0.19,0.16,0.24
32.676130056381226,0.12,0.26,0.28,0.4
32.676923990249634,0.04,0.17,0.04,0.17
32.67752408981323,-0.01,-0.02,0.05,0.05
32.67807388305664,-0.01,-0.15,0.18,0.23
32.67860007286072,-0.01,-0.16,0.23,0.28
32.680960178375244,-0.09,-0.16,0.12,0.21
32.681538105010986,-0.13,-0.11,-0.02,0.17
32.68212890625,-0.09,-0.04,-0.05,0.11
32.682713985443115,-0.04,-0.02,-0.04,0.06
32.68325090408325,-0.01,0.07,-0.04,0.08
32.68560314178467,-0.01,0.08,-0.09,0.12
32.686148166656494,-0.01,0.06,-0.16,0.17
32.686667919158936,-0.03,0.06,-0.15,0.16
32.68724584579468,-0.05,0.03,-0.03,0.06
32.68782615661621,-0.07,-0.02,0.07,0.1
32.69015312194824,-0.07,-0.01,0.12,0.13
32.690733909606934,-0.1,-0.03,0.14,0.17
32.69124412536621,-0.1,-0.06,0.2,0.23
32.6917929649353,-0.07,-0.02,0.13,0.14
32.69233798980713,-0.13,0.04,0.04,0.14
32.69430112838745,-0.11,0.06,0.06,0.13
32.69472694396973,-0.02,0.07,0.11,0.13
32.69514608383179,0.01,0.07,0.15,0.16
32.69553804397583,0.03,0.04,0.15,0.15
32.69597101211548,0.01,0.01,0.11,0.11
32.69785785675049,-0.03,-0.01,0.09,0.09
32.69832396507263,-0.1,-0.02,0.11,0.15
32.69876194000244,-0.15,0.01,0.12,0.19
32.69917297363281,-0.14,0.0,0.14,0.19
32.699634075164795,-0.11,-0.05,0.12,0.17
32.701529026031494,-0.05,-0.08,0.08,0.12
32.70193386077881,-0.01,-0.07,0.08,0.1
32.702373027801514,-0.03,-0.03,0.11,0.11
32.70282006263733,-0.02,0.01,0.09,0.09
32.703208923339844,0.0,0.01,0.04,0.04
32.70494103431702,-0.02,0.01,0.02,0.03
32.705305099487305,-0.04,-0.01,0.0,0.04
32.70565104484558,-0.03,-0.02,0.02,0.04
32.70598793029785,-0.03,-0.05,0.09,0.1
32.70634198188782,-0.08,-0.01,0.12,0.14
32.70787811279297,-0.1,-0.01,0.1,0.14
32.708248138427734,-0.06,-0.03,0.12,0.13
32.70861196517944,-0.02,0.01,0.1,0.1
32.70897197723389,0.02,0.03,-0.11,0.11
32.7093460559845,-0.09,0.12,-1.72,1.72
32.710944175720215,-0.51,0.24,-0.27,0.62
32.711308002471924,0.16,1.09,0.23,1.12
32.7116961479187,0.73,0.3,0.95,1.23
32.71206617355347,-0.13,-0.63,0.92,1.12
32.712430000305176,-0.02,-0.13,0.21,0.24
32.71401309967041,-0.09,-0.47,-0.09,0.48
32.71438217163086,-0.39,-0.18,0.19,0.46
32.714763164520264,-0.34,-0.05,0.16,0.37
32.71512198448181,-0.18,-0.01,0.1,0.2
32.715514183044434,-0.02,0.03,0.14,0.14
32.71696496009827,0.11,0.03,0.09,0.14
32.717305183410645,0.12,-0.07,0.02,0.14
32.71762204170227,0.04,-0.12,-0.03,0.13
32.71794319152832,0.0,-0.08,0.05,0.09
32.71826791763306,-0.03,-0.12,0.19,0.22
32.71958899497986,-0.02,-0.12,0.39,0.4
32.719918966293335,0.03,-0.04,0.37,0.37
32.72025108337402,0.07,-0.13,0.25,0.29
32.72056198120117,0.14,-0.05,-0.1,0.17
32.72087597846985,0.19,0.13,-0.49,0.54
32.72225499153137,0.08,0.21,-0.43,0.48
32.72257399559021,-0.08,0.03,-0.16,0.18
32.72288703918457,-0.18,0.0,0.09,0.2
32.723196029663086,-0.27,0.19,0.11,0.34
32.723495960235596,-0.3,0.16,-0.04,0.34
32.72480392456055,-0.4,0.21,-0.12,0.46
32.72509288787842,-0.36,0.2,-0.04,0.41
32.72537803649902,-0.19,0.08,0.1,0.22
32.725664138793945,-0.08,0.01,0.12,0.14
32.725964069366455,0.03,-0.08,0.09,0.12
32.72720193862915,0.07,-0.09,0.16,0.19
32.727514028549194,-0.01,-0.08,0.17,0.18
32.72780084609985,-0.08,-0.07,0.07,0.12
32.72808599472046,-0.07,-0.05,-0.01,0.08
32.728352069854736,0.0,-0.03,-0.01,0.03
32.72956085205078,0.02,0.03,0.01,0.03
32.72984504699707,0.01,0.02,0.02,0.03
32.73013114929199,-0.06,0.03,0.03,0.07
32.73042106628418,-0.05,0.04,0.04,0.07
32.7307071685791,-0.08,-0.02,0.07,0.1
32.73190689086914,-0.11,-0.03,0.05,0.12
32.732197999954224,-0.13,-0.16,0.08,0.22
32.732468128204346,0.03,-0.14,0.22,0.26
32.732728004455566,0.06,-0.13,0.26,0.29
32.73298907279968,-0.03,-0.21,0.15,0.25
32.734063148498535,-0.03,-0.21,0.07,0.22
32.73430395126343,-0.04,-0.2,0.07,0.21
32.734567165374756,-0.17,-0.26,0.0,0.31
32.73482894897461,-0.19,-0.27,-0.13,0.35
32.73508906364441,-0.04,-0.17,-0.18,0.25
32.736196994781494,0.08,-0.16,-0.12,0.21
32.736451148986816,0.13,-0.19,-0.07,0.24
32.73669505119324,0.07,-0.16,-0.01,0.17
32.73693895339966,0.09,-0.15,0.0,0.17
32.73718214035034,0.16,-0.11,-0.03,0.19
32.738226890563965,0.19,0.03,0.05,0.19
32.738473892211914,0.3,0.18,0.1,0.36
32.73871612548828,0.26,0.21,0.12,0.35
32.73896098136902,0.12,0.08,0.09,0.17
32.739201068878174,0.09,0.16,0.06,0.19
32.74023485183716,0.17,0.38,-0.01,0.41
32.740477085113525,-0.02,0.36,-0.02,0.36
32.740715980529785,-0.15,0.13,-0.27,0.33
32.740954875946045,-0.28,0.09,-0.09,0.3
32.74119186401367,0.1,-0.38,0.26,0.47
32.742213010787964,-0.54,0.42,0.01,0.68
32.742454051971436,-0.95,0.72,0.1,1.19
32.74269390106201,-0.12,-0.42,0.16,0.46
32.74293398857117,0.22,-0.17,0.15,0.31
32.743170976638794,-0.05,0.12,0.01,0.13
32.74418306350708,-0.23,0.88,-2.21,2.38
32.744426012039185,-1.04,0.22,-1.77,2.06
32.744667053222656,0.09,0.39,0.59,0.71
32.74489903450012,0.7,0.47,1.32,1.56
32.745136976242065,0.2,-0.21,1.31,1.34
32.74615716934204,0.07,-0.41,0.75,0.85
32.746399879455566,0.15,-0.87,-0.24,0.91
32.74664306640625,0.06,-0.55,-0.35,0.65
32.74688196182251,0.04,-0.15,0.12,0.19
32.74713706970215,-0.16,-0.25,0.87,0.91
32.74814200401306,-0.12,-0.24,1.2,1.22
32.74838399887085,-0.02,-0.06,0.89,0.89
32.748623847961426,0.04,-0.28,0.77,0.82
32.74886202812195,0.18,-0.32,0.39,0.53
32.74910116195679,0.48,0.27,-0.48,0.73
32.75011706352234,0.04,0.2,-0.57,0.6
32.75035810470581,-0.18,0.09,-0.3,0.36
32.750596046447754,-0.79,0.12,0.76,1.1
32.75083589553833,-0.14,0.29,-0.18,0.36
32.75107383728027,0.36,0.22,-0.9,0.99
37.01446008682251,0.05,0.1,-0.73,0.73
37.015735149383545,-0.31,0.08,-0.13,0.34
37.01669788360596,-0.34,0.02,0.42,0.54
37.01747512817383,0.08,0.05,0.49,0.49
37.018256187438965,0.17,0.04,0.29,0.33
37.02234101295471,-0.04,-0.02,0.14,0.14
37.0234489440918,-0.22,-0.09,0.05,0.24
37.02431297302246,-0.25,-0.15,0.08,0.3
37.02510690689087,-0.01,0.04,0.11,0.11
37.0258731842041,0.04,-0.05,0.1,0.11
37.02972102165222,-0.13,-0.27,0.15,0.33
37.03061008453369,-0.09,-0.06,0.19,0.21
37.03141498565674,0.04,0.06,0.13,0.14
37.03222417831421,-0.01,-0.02,0.06,0.06
37.03303503990173,-0.06,-0.14,0.0,0.15
37.03661298751831,-0.06,-0.1,-0.03,0.12
37.03716993331909,-0.06,-0.1,-0.11,0.16
37.03786897659302,-0.11,-0.06,-0.02,0.12
37.03862404823303,0.12,0.14,0.07,0.19
37.039337158203125,0.1,0.01,0.15,0.18
37.04187297821045,-0.06,-0.08,0.21,0.23
37.04246997833252,-0.18,-0.07,0.12,0.22
37.043009996414185,-0.11,-0.01,0.12,0.16
37.04360485076904,0.08,0.06,0.17,0.19
37.04416513442993,0.1,0.05,0.22,0.24
37.04679012298584,-0.01,0.01,0.19,0.19
37.047399044036865,-0.13,0.02,0.1,0.16
37.04800510406494,-0.18,-0.04,-0.02,0.18
37.04859209060669,-0.17,-0.24,-0.05,0.29
37.04918098449707,0.06,-0.18,0.08,0.2
37.051673889160156,0.1,-0.01,0.14,0.17
37.052273988723755,0.02,0.11,0.15,0.18
37.05281686782837,0.05,0.07,0.16,0.18
37.05334496498108,0.13,0.15,0.16,0.25
37.05389404296875,0.12,0.16,0.12,0.23
37.05647087097168,0.0,0.09,0.13,0.15
38.162692070007324,-0.03,0.06,0.13,0.14
38.16659903526306,-0.07,0.03,0.06,0.09
38.16803002357483,-0.08,0.01,-0.02,0.08
38.16908884048462,-0.09,-0.03,0.0,0.09
38.173941135406494,-0.07,-0.02,0.03,0.07
38.17491388320923,-0.01,-0.02,-0.05,0.05
38.17596912384033,-0.01,-0.06,-0.05,0.07
38.177101135253906,-0.05,-0.09,0.01,0.1
38.17819905281067,-0.07,-0.06,0.1,0.13
38.18254518508911,-0.06,-0.01,0.09,0.1
38.183485984802246,-0.04,0.0,0.04,0.05
38.18439817428589,0.08,-0.02,-0.01,0.08
38.18535900115967,1.42,1.03,-5.02,5.31
38.1863009929657,0.01,-1.21,-2.34,2.63
38.19057607650757,-1.01,0.23,4.88,4.98
38.19143199920654,-0.1,0.97,3.93,4.04
38.19340515136719,0.42,0.09,0.68,0.8
38.19468402862549,-0.25,-0.44,-0.06,0.5
38.196659088134766,0.34,-0.53,-0.27,0.68
38.2002899646759,-1.34,-0.91,2.05,2.61
38.20112705230713,-2.05,-0.44,1.16,2.39
38.201942920684814,1.08,0.25,-1.72,2.04
38.20252513885498,1.06,0.08,-2.21,2.45
38.20309495925903,0.26,0.25,-1.84,1.87
38.20563101768494,-0.2,0.39,-0.63,0.76
38.20620393753052,-0.12,0.26,0.45,0.53
38.20677304267883,0.28,0.29,0.8,0.89
38.20732593536377,0.38,0.3,0.45,0.66
38.20787811279297,0.1,0.08,0.03,0.13
38.2104229927063,-0.19,-0.13,-0.07,0.24
38.211018085479736,-0.28,-0.18,0.06,0.33
38.21158313751221,-0.22,-0.15,0.22,0.34
38.212143898010254,-0.1,-0.09,0.3,0.32
38.21270513534546,0.0,-0.05,0.23,0.23
38.215182065963745,0.04,0.01,0.11,0.11
38.21569299697876,0.04,0.04,0.03,0.06
38.21622395515442,0.06,0.03,0.02,0.06
38.21678018569946,0.04,-0.01,0.1,0.1
38.21733093261719,0.03,0.03,0.17,0.17
38.219310998916626,-0.01,0.03,0.21,0.21
38.219698905944824,-0.04,0.01,0.21,0.21
38.220134973526,-0.05,-0.01,0.16,0.16
38.22053503990173,-0.05,0.01,0.08,0.09
38.22097301483154,-0.04,-0.02,0.04,0.06
38.2229208946228,-0.01,-0.07,0.06,0.09
38.22337293624878,0.01,-0.08,0.1,0.12
38.223774909973145,0.01,-0.07,0.13,0.14
38.224210023880005,0.02,-0.03,0.12,0.12
38.224607944488525,0.02,0.01,0.08,0.08
38.22650718688965,0.02,-0.03,0.07,0.07
38.226969957351685,-0.14,-0.19,-0.8,0.83
38.2274329662323,-0.21,0.03,-0.79,0.81
38.22790813446045,-0.23,0.14,0.4,0.48
38.22835397720337,0.19,0.0,1.01,1.02
38.23019313812256,0.28,0.03,1.14,1.17
38.23055601119995,0.0,-0.15,0.72,0.73
38.230918884277344,-0.36,-0.75,-1.02,1.31
38.231281995773315,-0.39,-0.51,-1.84,1.94
38.23164200782776,-0.2,0.32,-0.77,0.85
38.233217000961304,0.23,0.78,0.71,1.07
38.23357796669006,0.19,0.25,1.39,1.42
