time,ax,ay,az,atotal
0.01163792610168457,-0.08,0.05,0.35,0.36
0.01203608512878418,-0.01,0.1,0.72,0.72
0.02766108512878418,-0.03,0.0,0.74,0.74
0.030729055404663086,-0.06,-0.04,0.44,0.44
0.040917158126831055,-0.02,-0.03,0.03,0.04
0.050566911697387695,-0.02,-0.01,-0.2,0.2
0.06084799766540527,-0.04,-0.01,-0.16,0.16
0.07775998115539551,-0.12,-0.02,0.01,0.12
0.08077096939086914,-0.14,-0.04,0.12,0.18
0.09083795547485352,-0.06,-0.04,0.14,0.15
0.10073304176330566,-0.03,-0.09,0.1,0.13
0.1109011173248291,0.02,-0.07,0.04,0.08
0.12894988059997559,-0.03,-0.07,0.01,0.07
0.13072896003723145,-0.06,-0.04,0.07,0.1
0.14092302322387695,-0.02,-0.02,0.11,0.11
0.1507420539855957,-0.04,-0.03,0.12,0.13
0.1609508991241455,-0.04,-0.03,0.13,0.13
0.17989611625671387,-0.04,-0.05,0.12,0.13
0.18060803413391113,-0.04,-0.05,0.14,0.15
0.1908729076385498,-0.06,-0.06,0.14,0.16
0.20086407661437988,-0.04,-0.03,0.13,0.13
0.21107101440429688,0.04,-0.05,0.07,0.09
0.23263287544250488,0.06,-0.1,-0.09,0.14
0.23302698135375977,0.04,-0.13,-0.16,0.21
0.24099206924438477,0.1,-0.21,0.02,0.23
0.2508840560913086,0.26,-0.3,0.22,0.45
0.26113009452819824,0.25,-0.26,0.42,0.55
0.28055787086486816,0.13,-0.25,0.58,0.64
0.2809889316558838,0.03,-0.21,0.64,0.67
0.29093384742736816,-0.03,-0.09,0.54,0.54
0.3010880947113037,0.03,0.03,0.34,0.34
0.3110358715057373,0.13,0.04,0.13,0.18
0.3321859836578369,0.26,-0.01,0.03,0.26
0.33260607719421387,0.31,0.01,0.08,0.32
0.34099411964416504,0.31,0.02,0.13,0.33
0.3510620594024658,0.26,0.04,0.2,0.33
0.3612210750579834,0.18,0.06,0.21,0.28
0.3820230960845947,0.09,0.0,0.14,0.16
0.3824610710144043,0.06,-0.05,0.02,0.08
0.3910250663757324,0.05,-0.14,-0.07,0.16
0.40116190910339355,0.05,-0.17,-0.06,0.18
0.41112208366394043,0.07,-0.19,0.05,0.2
0.43224501609802246,0.11,-0.16,0.18,0.26
0.43266892433166504,0.15,-0.13,0.32,0.37
0.4409940242767334,0.12,-0.13,0.45,0.48
0.4511849880218506,0.19,-0.1,0.38,0.43
0.46113085746765137,0.19,-0.04,0.23,0.3
0.4824521541595459,0.12,-0.07,0.02,0.14
0.4828829765319824,0.2,-0.11,-0.15,0.27
0.49114298820495605,0.14,-0.19,-0.13,0.26
0.5013768672943115,0.07,-0.31,0.04,0.32
0.5110838413238525,0.12,-0.31,0.19,0.38
0.5323379039764404,0.15,-0.27,0.27,0.41
0.5327231884002686,0.19,-0.18,0.27,0.37
0.5410101413726807,0.16,-0.15,0.2,0.29
0.5513989925384521,0.07,-0.25,0.15,0.29
0.5611369609832764,0.01,-0.41,0.16,0.44
0.5822651386260986,0.01,-0.5,0.16,0.52
0.5826919078826904,0.0,-0.54,0.13,0.55
0.5911219120025635,-0.03,-0.48,0.16,0.5
0.6015641689300537,-0.09,-0.31,0.22,0.39
0.6111161708831787,-0.18,-0.12,0.39,0.44
0.6326920986175537,-0.23,0.03,0.64,0.68
0.6331131458282471,-0.25,0.15,0.8,0.85
0.6411511898040771,-0.31,0.24,0.79,0.88
0.6516129970550537,-0.3,0.21,0.67,0.76
0.6611239910125732,-0.39,0.06,0.53,0.66
0.6825389862060547,-0.49,-0.2,0.4,0.66
0.6829659938812256,-0.61,-0.49,0.25,0.82
0.6910650730133057,-0.68,-0.7,0.24,1.0
0.7016170024871826,-0.63,-0.7,0.39,1.01
0.7111141681671143,-0.62,-0.61,0.76,1.15
0.7324509620666504,-0.63,-0.49,1.26,1.49
0.7328810691833496,-0.67,-0.32,1.68,1.83
0.7411260604858398,-0.66,-0.11,1.84,1.95
0.7516858577728271,-0.62,0.25,1.74,1.86
0.7612180709838867,-0.52,0.6,1.6,1.78
0.7827589511871338,-0.34,0.84,1.64,1.87
0.7831871509552002,-0.26,0.86,1.68,1.9
0.7910821437835693,-0.18,0.78,1.59,1.78
0.8017740249633789,-0.08,0.65,1.36,1.5
0.811164140701294,-0.06,0.45,1.09,1.18
0.8330628871917725,-0.04,0.22,0.84,0.86
0.8334920406341553,0.03,-0.05,0.72,0.72
0.8411710262298584,0.09,-0.27,0.8,0.84
0.8511290550231934,0.12,-0.45,1.06,1.15
0.8611981868743896,0.16,-0.6,1.42,1.54
0.8829681873321533,0.14,-0.71,1.75,1.89
0.8833999633789062,0.1,-0.79,1.96,2.11
0.8910548686981201,0.0,-0.87,1.99,2.17
0.9011490345001221,-0.17,-0.95,1.81,2.05
0.9111900329589844,-0.33,-1.01,1.49,1.83
0.9329299926757812,-0.52,-1.14,1.18,1.72
0.9333410263061523,-0.52,-1.24,0.95,1.64
0.9411790370941162,-0.47,-1.21,0.93,1.59
0.9511439800262451,-0.42,-1.13,1.13,1.65
0.9612019062042236,-0.34,-1.08,1.52,1.89
0.9829099178314209,-0.3,-1.02,1.85,2.13
0.9833400249481201,-0.43,-0.84,1.98,2.19
0.9911270141601562,-0.61,-0.69,1.96,2.16
1.0011298656463623,-0.76,-0.52,1.77,1.99
1.0111889839172363,-0.81,-0.37,1.47,1.71
1.0329270362854004,-0.72,-0.24,1.22,1.43
1.0333499908447266,-0.64,-0.14,1.13,1.3
1.0411279201507568,-0.55,-0.09,1.14,1.26
1.0511610507965088,-0.57,0.03,1.27,1.39
1.0611720085144043,-0.57,0.24,1.45,1.57
1.083069086074829,-0.5,0.48,1.66,1.79
1.083503007888794,-0.44,0.65,1.85,2.0
1.091101884841919,-0.51,0.74,1.87,2.07
1.101212978363037,-0.66,0.68,1.63,1.88
1.1111891269683838,-0.76,0.55,1.22,1.53
1.133086919784546,-0.89,0.35,0.84,1.27
1.133514165878296,-1.01,0.12,0.68,1.22
1.1411468982696533,-0.98,-0.07,0.83,1.28
1.151181936264038,-0.93,-0.2,1.29,1.6
1.1612629890441895,-0.81,-0.03,1.84,2.01
1.1841180324554443,-0.64,0.44,2.32,2.44
1.1845650672912598,-0.49,1.04,2.55,2.79
1.1911299228668213,-0.39,1.62,2.55,3.04
1.201235055923462,-0.33,1.9,2.34,3.03
1.2111709117889404,-0.42,1.98,1.95,2.81
1.2327830791473389,-0.58,1.96,1.5,2.53
1.233206033706665,-0.78,1.77,1.1,2.22
1.2412221431732178,-0.93,1.56,0.9,2.02
1.251060962677002,-1.14,1.31,0.89,1.95
1.2613141536712646,-1.29,1.11,1.06,2.0
1.2830500602722168,-1.29,1.06,1.32,2.12
1.2834761142730713,-1.19,1.17,1.49,2.23
1.2911231517791748,-1.02,1.37,1.48,2.26
1.3011748790740967,-0.71,1.67,1.16,2.15
1.3112280368804932,-0.39,2.05,0.76,2.22
1.332792043685913,-0.09,2.33,0.47,2.37
1.3332290649414062,0.09,2.41,0.34,2.43
1.3411870002746582,0.22,2.25,0.19,2.26
1.3511359691619873,0.34,1.85,-0.07,1.88
1.3612580299377441,0.45,1.24,-0.57,1.43
1.3828189373016357,0.44,0.48,-1.28,1.43
1.3832581043243408,0.46,-0.28,-1.96,2.03
1.3911559581756592,0.46,-0.99,-2.24,2.49
1.4012119770050049,0.49,-1.61,-1.98,2.59
1.4112529754638672,0.67,-2.02,-1.36,2.52
1.4330170154571533,0.83,-2.19,-0.63,2.42
1.433439016342163,0.99,-2.17,0.17,2.39
1.441209077835083,1.1,-1.96,0.81,2.38
1.4511799812316895,1.18,-1.69,1.15,2.36
1.4613330364227295,1.25,-1.33,1.25,2.21
1.4830968379974365,1.09,-0.93,1.19,1.86
1.483532190322876,1.05,-0.43,0.86,1.42
1.4913129806518555,0.95,-0.03,0.66,1.15
1.5011520385742188,0.74,0.18,0.58,0.95
1.5113279819488525,0.42,0.11,0.38,0.57
1.533431053161621,0.27,-0.06,0.05,0.28
1.5338530540466309,0.2,-0.25,-0.2,0.37
1.5413260459899902,0.19,-0.48,-0.18,0.54
1.551285982131958,0.1,-0.85,0.12,0.86
1.561363935470581,0.02,-1.22,0.52,1.32
1.583604097366333,0.0,-1.45,0.9,1.7
1.5840208530426025,-0.04,-1.58,1.06,1.9
1.5911939144134521,0.01,-1.64,0.96,1.9
1.6013200283050537,0.11,-1.66,0.72,1.81
1.6113379001617432,0.07,-1.78,0.56,1.86
1.6337831020355225,0.03,-1.92,0.5,1.98
1.634199857711792,0.0,-2.02,0.48,2.07
1.6413090229034424,-0.14,-2.08,0.46,2.13
1.651257038116455,-0.22,-2.02,0.61,2.12
1.6613619327545166,-0.03,-2.09,0.91,2.27
1.683415174484253,0.12,-2.18,1.14,2.46
1.6838328838348389,0.26,-2.0,1.3,2.39
1.691352128982544,0.39,-1.8,1.4,2.31
1.7013399600982666,0.31,-1.62,1.35,2.13
1.7113490104675293,0.23,-1.3,1.13,1.73
1.7337620258331299,0.3,-1.01,0.8,1.32
1.734217882156372,0.42,-0.83,0.59,1.1
1.7413089275360107,0.57,-0.68,0.52,1.02
1.7513060569763184,0.65,-0.49,0.5,0.95
1.7613489627838135,0.72,-0.24,0.57,0.94
1.783843994140625,0.68,0.01,0.7,0.97
1.7842600345611572,0.61,0.25,0.95,1.15
1.791260004043579,0.57,0.58,1.22,1.46
1.8013131618499756,0.58,0.99,1.38,1.79
1.8113460540771484,0.64,1.43,1.4,2.1
1.8338358402252197,0.75,1.88,1.31,2.41
1.8342621326446533,0.81,2.23,1.17,2.64
1.8413689136505127,0.83,2.26,1.07,2.63
1.8513238430023193,0.93,1.92,1.15,2.42
1.86142897605896,1.01,1.54,1.36,2.28
1.8833670616149902,0.96,1.63,1.54,2.43
1.8837840557098389,0.97,2.52,1.72,3.2
1.8913099765777588,0.9,3.88,2.33,4.61
1.9011871814727783,0.9,5.1,3.2,6.08
1.9113361835479736,0.67,5.86,3.62,6.92
1.9339001178741455,0.14,6.08,2.91,6.74
1.9343230724334717,-0.27,5.76,1.19,5.88
1.9413139820098877,-0.61,4.88,-0.77,4.97
1.9513728618621826,-0.99,3.53,-2.2,4.27
1.9613821506500244,-1.16,1.96,-3.06,3.81
1.9841721057891846,-1.13,0.48,-3.39,3.6
1.9846110343933105,-1.01,-0.66,-3.21,3.42
1.9913561344146729,-0.92,-1.36,-2.72,3.17
2.0014021396636963,-0.9,-1.83,-2.14,2.95
2.011348009109497,-0.94,-2.09,-1.52,2.74
2.0342209339141846,-1.01,-2.17,-0.71,2.49
2.0346429347991943,-1.14,-2.06,0.03,2.35
2.0413248538970947,-1.14,-1.82,0.48,2.2
2.051339864730835,-0.88,-1.51,0.39,1.79
2.061411142349243,-0.54,-1.22,-0.1,1.33
2.084151029586792,-0.13,-0.86,-0.5,1.0
2.0845789909362793,0.11,-0.55,-0.64,0.85
2.0913140773773193,0.11,-0.39,-0.47,0.62
2.101410150527954,0.1,-0.33,-0.22,0.4
2.1114189624786377,0.02,-0.4,-0.09,0.41
2.134722948074341,-0.07,-0.58,-0.16,0.6
2.135136842727661,-0.06,-0.82,-0.34,0.88
2.1413660049438477,0.07,-1.13,-0.39,1.19
2.1513140201568604,0.19,-1.58,-0.26,1.61
2.161454916000366,0.33,-1.97,-0.04,1.99
2.1844429969787598,0.38,-2.27,0.1,2.3
2.184859037399292,0.37,-2.5,0.08,2.52
2.1913368701934814,0.34,-2.61,0.04,2.63
2.2014000415802,0.29,-2.75,0.03,2.76
2.2114319801330566,0.21,-2.89,0.15,2.9
2.234471082687378,0.24,-2.95,0.3,2.97
2.2349140644073486,0.26,-2.92,0.42,2.96
2.2413551807403564,0.19,-2.86,0.5,2.9
2.25137996673584,0.05,-2.75,0.51,2.79
2.2614691257476807,-0.11,-2.58,0.54,2.63
2.284882068634033,-0.19,-2.41,0.63,2.49
2.2852680683135986,-0.19,-2.3,0.76,2.42
2.2913191318511963,-0.3,-2.19,0.9,2.38
2.301470994949341,-0.44,-2.05,1.04,2.34
2.3113880157470703,-0.6,-1.72,0.92,2.04
2.334275007247925,-0.53,-1.21,0.57,1.43
2.3347020149230957,-0.51,-0.67,0.31,0.89
2.341433048248291,-0.35,-0.36,0.47,0.68
2.351374864578247,-0.2,-0.23,0.87,0.92
2.361553907394409,-0.28,-0.16,1.1,1.14
2.3843870162963867,-0.48,0.12,0.97,1.08
2.384812116622925,-0.66,0.63,0.81,1.22
2.391390085220337,-0.69,1.34,0.82,1.71
2.4013919830322266,-0.61,2.12,1.06,2.44
2.412348985671997,-0.65,2.67,1.5,3.13
2.4343631267547607,-0.81,3.08,1.98,3.75
2.4347779750823975,-1.03,3.25,2.08,3.99
2.441457986831665,-1.19,3.27,1.77,3.9
2.451364040374756,-1.04,3.44,1.34,3.83
2.461517095565796,-0.55,4.08,1.17,4.27
2.4842779636383057,-0.1,5.03,1.61,5.28
2.48470401763916,0.21,5.72,2.53,6.25
2.4913840293884277,0.37,6.15,3.29,6.98
2.501368999481201,0.68,6.73,3.05,7.42
2.5115320682525635,0.87,7.07,1.75,7.33
2.534773111343384,0.84,6.38,0.01,6.43
2.535200834274292,0.57,4.63,-1.85,5.01
2.5414421558380127,0.45,2.64,-3.65,4.52
2.551413059234619,0.58,0.8,-4.95,5.04
2.5616018772125244,0.7,-0.71,-5.19,5.28
2.584510087966919,0.6,-1.85,-4.17,4.6
2.5849339962005615,0.18,-2.69,-2.37,3.58
2.591405153274536,0.05,-3.08,-0.56,3.13
2.6014630794525146,0.25,-2.99,0.7,3.08
2.6114940643310547,0.56,-2.74,1.16,3.02
2.634467840194702,0.8,-2.42,0.88,2.69
2.634906053543091,0.92,-1.94,0.11,2.14
2.641461133956909,0.98,-1.22,-0.65,1.69
2.6514618396759033,0.75,-0.63,-0.9,1.33
2.6615068912506104,0.29,-0.36,-0.5,0.68
2.684857130050659,-0.27,-0.29,0.0,0.39
2.6852810382843018,-0.69,-0.46,0.08,0.83
2.691452980041504,-0.89,-0.63,-0.28,1.12
2.70149302482605,-0.87,-0.9,-0.73,1.44
2.7115471363067627,-0.69,-1.26,-0.97,1.73
2.734302043914795,-0.4,-1.74,-0.82,1.96
2.734722852706909,-0.23,-2.22,-0.39,2.26
2.741476058959961,-0.12,-2.56,0.01,2.56
2.751436948776245,-0.07,-2.68,0.4,2.71
2.7615549564361572,-0.09,-2.63,0.62,2.7
2.7846970558166504,-0.22,-2.59,0.68,2.68
2.7851178646087646,-0.35,-2.6,0.62,2.69
2.7914788722991943,-0.37,-2.62,0.45,2.68
2.801527976989746,-0.33,-2.64,0.23,2.67
2.811553955078125,-0.28,-2.61,0.04,2.62
2.8346168994903564,-0.21,-2.55,-0.03,2.55
2.8350419998168945,-0.23,-2.47,-0.08,2.48
2.8414008617401123,-0.21,-2.37,-0.12,2.38
2.8514301776885986,-0.1,-2.19,-0.05,2.19
2.8616011142730713,0.02,-2.0,0.25,2.01
2.884996175765991,0.06,-1.82,0.6,1.91
2.8854148387908936,0.08,-1.53,0.84,1.74
2.891541004180908,0.01,-1.16,0.83,1.42
2.9015891551971436,-0.06,-0.78,0.61,0.99
2.9116580486297607,-0.02,-0.26,0.19,0.32
2.9346580505371094,0.28,0.37,-0.1,0.47
2.9350860118865967,0.45,1.01,-0.04,1.1
2.941627025604248,0.52,1.61,0.47,1.75
2.951493978500366,0.32,2.12,1.15,2.43
2.9616589546203613,0.2,2.8,1.54,3.2
2.984740972518921,0.54,3.37,1.53,3.74
2.9851601123809814,0.97,3.49,1.33,3.85
2.991621971130371,1.26,3.12,1.29,3.6
3.0014898777008057,1.2,2.26,1.14,2.8
3.011631965637207,0.82,2.02,0.65,2.27
3.0355470180511475,0.57,2.96,0.32,3.03
3.0359609127044678,0.49,4.07,0.92,4.2
3.0416600704193115,0.23,4.68,1.91,5.05
3.051604986190796,-0.04,5.0,2.2,5.46
3.0617079734802246,-0.15,4.91,1.47,5.12
3.085474967956543,-0.52,4.45,0.08,4.48
3.085913896560669,-1.14,3.6,-1.4,4.02
3.0915658473968506,-1.61,2.54,-2.63,3.99
3.101548910140991,-1.77,1.53,-3.24,3.99
3.1116788387298584,-1.64,0.5,-3.17,3.6
3.1359000205993652,-1.48,-0.22,-2.59,2.99
3.1363298892974854,-1.27,-0.62,-1.79,2.28
3.1415770053863525,-1.09,-0.56,-0.97,1.56
3.151531934738159,-0.96,-0.46,-0.14,1.07
3.1616709232330322,-1.05,-0.55,0.56,1.31
3.1862759590148926,-1.29,-0.73,0.71,1.64
3.186697006225586,-1.14,-0.71,0.15,1.35
3.1915080547332764,-0.79,-0.58,-0.52,1.1
3.2015769481658936,-0.58,-0.54,-0.8,1.12
3.211621046066284,-0.55,-0.69,-0.71,1.13
3.2361459732055664,-0.52,-0.99,-0.52,1.23
3.236570119857788,-0.3,-1.29,-0.41,1.38
3.241377115249634,-0.04,-1.53,-0.46,1.59
3.2515270709991455,0.08,-1.76,-0.34,1.79
3.2615840435028076,0.18,-2.01,-0.09,2.02
3.2867109775543213,0.18,-2.34,0.1,2.34
3.2871429920196533,0.16,-2.62,0.19,2.63
3.2914910316467285,0.14,-2.89,0.21,2.9
3.301503896713257,0.15,-3.14,0.25,3.15
3.311553955078125,0.14,-3.34,0.3,3.35
3.336055040359497,0.15,-3.46,0.3,3.47
3.3364498615264893,0.15,-3.54,0.28,3.55
3.3415348529815674,0.18,-3.51,0.22,3.52
3.351525068283081,0.23,-3.4,0.14,3.41
3.3615739345550537,0.21,-3.3,0.11,3.3
3.3860960006713867,0.12,-3.23,0.19,3.23
3.386528968811035,0.05,-3.09,0.34,3.1
3.3915109634399414,0.03,-2.91,0.46,2.94
3.401672124862671,0.0,-2.6,0.51,2.64
3.4116551876068115,-0.01,-2.13,0.48,2.18
3.436497926712036,-0.05,-1.64,0.44,1.69
3.436915159225464,-0.1,-1.14,0.37,1.2
3.4417810440063477,-0.04,-0.81,0.44,0.92
3.4517629146575928,0.02,-0.42,0.63,0.75
3.4618120193481445,0.19,-0.02,0.8,0.82
3.4874751567840576,0.14,0.48,0.91,1.03
3.487895965576172,0.01,1.16,0.97,1.51
3.4915311336517334,-0.08,1.97,1.08,2.24
3.5016701221466064,-0.41,2.67,1.29,2.99
3.511708974838257,-0.87,3.29,1.53,3.73
3.5355918407440186,-1.44,3.52,1.67,4.15
3.5360171794891357,-1.92,3.59,1.54,4.35
3.5416200160980225,-2.14,3.54,1.12,4.28
3.5516979694366455,-1.88,3.71,0.66,4.21
3.5617458820343018,-0.95,4.42,0.51,4.54
3.5864059925079346,-0.04,5.53,0.9,5.6
3.5868980884552,0.64,6.66,1.53,6.86
3.5916411876678467,1.22,7.43,1.68,7.71
3.601771116256714,1.55,7.7,0.67,7.88
3.611664056777954,1.69,6.98,-1.6,7.35
3.621626138687134,1.46,5.29,-3.97,6.77
3.6369168758392334,1.04,3.22,-5.23,6.22
3.641728162765503,0.62,1.3,-5.16,5.35
3.651686906814575,0.28,-0.36,-3.71,3.73
3.661742925643921,0.17,-1.8,-1.6,2.41
3.671631097793579,0.35,-2.55,0.25,2.58
3.6872761249542236,0.73,-2.74,1.24,3.09
3.69195294380188,1.0,-2.55,1.2,2.99
3.7016971111297607,1.03,-1.91,0.36,2.19
3.7117278575897217,0.83,-1.14,-0.73,1.58
3.7216379642486572,0.55,-0.56,-1.16,1.4
3.73752498626709,-0.05,-0.35,-0.86,0.92
3.7417240142822266,-0.71,-0.48,-0.43,0.95
3.7517240047454834,-1.23,-0.76,-0.4,1.5
3.7617909908294678,-1.55,-1.05,-0.9,2.07
3.7716610431671143,-1.5,-1.37,-1.43,2.48
3.787536859512329,-1.19,-1.78,-1.39,2.55
3.791611909866333,-0.7,-2.21,-0.86,2.47
3.801737070083618,-0.28,-2.52,-0.07,2.53
3.8117010593414307,-0.01,-2.72,0.69,2.8
3.821666955947876,0.04,-2.75,1.08,2.95
3.8375251293182373,0.03,-2.71,1.06,2.91
3.841928005218506,-0.06,-2.73,0.72,2.82
3.8517539501190186,-0.08,-2.84,0.28,2.85
3.8618030548095703,-0.11,-3.09,-0.03,3.09
3.871980905532837,-0.15,-3.3,-0.17,3.3
3.8880231380462646,-0.22,-3.43,-0.16,3.44
3.891616106033325,-0.3,-3.43,-0.02,3.44
3.901764154434204,-0.27,-3.25,0.14,3.26
3.9117648601531982,-0.28,-3.09,0.23,3.11
3.921627998352051,-0.19,-2.89,0.32,2.91
3.9369449615478516,-0.06,-2.56,0.44,2.59
3.941572904586792,0.12,-2.19,0.54,2.25
3.9516451358795166,0.3,-1.89,0.54,1.98
3.961785078048706,0.42,-1.54,0.49,1.66
3.9717299938201904,0.55,-1.0,0.31,1.18
3.987351179122925,0.63,-0.35,0.21,0.75
3.991750955581665,0.6,0.33,0.35,0.76
4.001759052276611,0.33,1.0,0.72,1.27
4.012005090713501,0.03,1.65,1.13,2.0
4.019160032272339,-0.08,2.39,1.31,2.72
4.037006139755249,0.2,3.1,1.31,3.37
4.039502859115601,0.64,3.4,1.3,3.69
4.049250841140747,1.08,3.27,1.3,3.68
4.059058904647827,1.15,2.91,1.15,3.33
4.0691750049591064,0.81,2.99,0.73,3.18
4.08716607093811,0.58,3.93,0.54,4.0
4.089760065078735,0.56,5.4,0.98,5.51
4.099348068237305,0.59,6.65,1.91,6.94
4.10928201675415,0.56,7.46,2.44,7.86
4.119342088699341,0.37,7.29,1.7,7.49
4.137845039367676,0.06,6.29,-0.29,6.29
4.139837026596069,-0.58,4.57,-2.74,5.35
4.149222135543823,-1.08,2.61,-4.69,5.47
4.159080982208252,-1.16,0.77,-5.33,5.5
4.169243097305298,-1.15,-0.71,-4.57,4.76
4.18717098236084,-1.04,-1.46,-3.04,3.52
4.189828157424927,-0.96,-1.28,-1.51,2.2
4.19928503036499,-0.81,-0.6,-0.19,1.02
4.209047079086304,-0.43,-0.07,0.8,0.91
4.2193028926849365,-0.37,-0.07,1.07,1.13
4.237202882766724,-0.64,-0.21,0.63,0.92
4.239098072052002,-0.75,-0.36,-0.31,0.88
4.249366998672485,-0.73,-0.39,-1.06,1.34
4.259304046630859,-0.82,-0.48,-1.22,1.54
4.269356966018677,-0.77,-0.64,-1.0,1.41
4.287230014801025,-0.47,-0.88,-0.68,1.2
4.2892820835113525,-0.15,-1.21,-0.49,1.31
4.299339056015015,0.11,-1.62,-0.45,1.68
4.3092310428619385,0.29,-2.05,-0.44,2.11
4.319554090499878,0.38,-2.44,-0.34,2.49
4.3377180099487305,0.31,-2.85,-0.13,2.86
4.339319944381714,0.19,-3.24,0.05,3.24
4.34934401512146,0.1,-3.59,0.22,3.59
4.3591248989105225,0.05,-3.81,0.22,3.81
4.369351148605347,0.13,-3.85,0.02,3.85
4.387701988220215,0.22,-3.81,-0.25,3.82
4.389108896255493,0.35,-3.75,-0.37,3.78
4.399289846420288,0.39,-3.65,-0.31,3.68
4.410562992095947,0.25,-3.55,-0.02,3.55
4.420665979385376,0.14,-3.5,0.43,3.52
4.439013957977295,-0.07,-3.41,0.86,3.51
4.440402984619141,-0.29,-3.36,1.18,3.57
4.450554132461548,-0.36,-3.23,1.29,3.49
4.460520029067993,-0.43,-2.98,1.18,3.23
4.470618009567261,-0.34,-2.64,0.87,2.8
4.488499879837036,-0.27,-2.14,0.63,2.24
4.4903600215911865,-0.23,-1.52,0.62,1.65
4.500562906265259,-0.16,-0.87,0.76,1.16
4.51054310798645,-0.21,-0.24,0.88,0.93
4.520521879196167,-0.28,0.42,0.95,1.07
4.5379478931427,-0.37,1.0,1.15,1.56
4.540418863296509,-0.42,1.52,1.52,2.19
4.550619840621948,-0.37,2.05,1.89,2.81
4.560602903366089,-0.35,2.72,1.98,3.38
4.570555925369263,-0.38,3.47,1.6,3.83
4.587687969207764,-0.58,3.92,1.02,4.09
4.590401887893677,-1.0,3.87,0.55,4.03
4.600707054138184,-1.26,3.49,0.38,3.72
4.6106650829315186,-1.05,3.18,0.39,3.37
4.620627164840698,-0.19,3.87,0.47,3.9
4.637765169143677,0.86,5.58,0.87,5.71
4.640506029129028,1.27,6.94,2.11,7.36
4.65068793296814,1.37,7.7,3.4,8.52
4.6605119705200195,1.3,8.26,3.03,8.89
4.6705849170684814,1.25,8.1,0.39,8.2
4.687547922134399,1.12,6.88,-3.04,7.6
4.690503835678101,1.05,4.88,-5.8,7.65
4.700798988342285,1.01,2.69,-7.14,7.69
4.71050500869751,0.8,0.6,-6.7,6.77
4.720659017562866,0.68,-1.21,-4.75,4.94
4.737226963043213,0.52,-2.27,-2.14,3.16
4.740649938583374,0.31,-2.72,-0.05,2.73
4.750745058059692,0.43,-2.53,1.03,2.76
4.760692834854126,0.66,-2.03,1.07,2.38
4.770606994628906,0.88,-1.39,0.35,1.68
4.787306070327759,0.93,-0.87,-0.59,1.4
4.790678977966309,0.59,-0.66,-1.2,1.49
4.8007471561431885,0.14,-0.69,-1.28,1.46
4.8106701374053955,-0.32,-1.02,-0.97,1.44
4.820672988891602,-0.57,-1.56,-0.7,1.8
4.837402105331421,-0.55,-2.05,-0.81,2.27
4.840703010559082,-0.54,-2.58,-0.93,2.79
4.850691080093384,-0.49,-3.12,-0.67,3.22
4.86055588722229,-0.55,-3.53,-0.2,3.57
4.87066912651062,-0.68,-3.79,0.21,3.85
4.887531042098999,-0.65,-3.83,0.41,3.9
4.890733957290649,-0.39,-3.68,0.34,3.71
4.90059494972229,-0.17,-3.42,0.17,3.42
4.910642862319946,-0.11,-3.29,0.07,3.29
4.920634984970093,-0.19,-3.31,0.09,3.31
4.937146902084351,-0.38,-3.44,0.16,3.46
4.940942049026489,-0.54,-3.47,0.21,3.51
4.9506330490112305,-0.58,-3.42,0.27,3.47
4.960566997528076,-0.55,-3.29,0.36,3.35
4.970623016357422,-0.48,-3.14,0.2,3.18
4.988049030303955,-0.38,-2.9,0.01,2.92
4.990976095199585,-0.22,-2.54,0.01,2.54
5.000745058059692,0.01,-2.14,0.25,2.15
5.0105509757995605,0.22,-1.69,0.59,1.8
5.020657062530518,0.49,-1.23,0.95,1.62
5.0381019115448,0.39,-0.93,1.12,1.5
5.041043996810913,0.41,-0.43,0.78,0.98
5.05077600479126,0.49,0.24,0.11,0.55
5.060739040374756,0.56,0.96,-0.27,1.14
5.07056999206543,0.48,1.58,0.09,1.65
5.0879950523376465,0.4,1.95,0.99,2.22
5.091048002243042,0.24,2.35,1.76,2.94
5.100687026977539,0.09,2.75,1.89,3.33
5.110552072525024,0.12,3.17,1.4,3.46
5.120650053024292,0.28,3.37,0.74,3.46
5.137655019760132,0.46,3.27,0.33,3.31
5.141200065612793,0.52,3.37,0.17,3.41
5.150788068771362,0.54,4.27,0.1,4.3
5.160693883895874,0.73,5.46,0.61,5.54
5.170551061630249,0.73,6.43,1.84,6.72
5.188244104385376,0.48,6.87,2.95,7.49
5.191226005554199,-0.05,6.64,2.77,7.19
5.200825929641724,-0.76,5.74,0.97,5.87
5.210682153701782,-1.27,4.39,-1.74,4.89
5.220782041549683,-1.64,2.84,-3.98,5.15
5.238234043121338,-1.76,1.36,-5.14,5.6
5.241253137588501,-1.69,0.2,-5.08,5.35
5.250975847244263,-1.17,-0.52,-4.03,4.22
5.2608349323272705,-0.58,-0.65,-2.52,2.66
5.270730972290039,-0.34,-0.35,-1.09,1.19
5.287707090377808,-0.46,-0.13,-0.16,0.5
5.290585041046143,-0.59,-0.2,0.23,0.66
5.300904989242554,-0.71,-0.48,0.01,0.85
5.310633897781372,-0.82,-0.68,-0.61,1.22
5.320813894271851,-0.65,-0.7,-1.27,1.58
5.33817195892334,-0.52,-0.7,-1.5,1.73
5.34141993522644,-0.5,-0.86,-1.14,1.51
5.350804090499878,-0.44,-0.99,-0.62,1.24
5.360798120498657,-0.3,-1.17,-0.3,1.24
5.370718955993652,-0.21,-1.46,-0.08,1.47
5.388902902603149,-0.1,-1.75,0.15,1.75
5.390660047531128,0.02,-2.13,0.42,2.17
5.400920152664185,-0.02,-2.5,0.65,2.58
5.410856008529663,-0.19,-2.88,0.73,2.97
5.420773983001709,-0.22,-3.2,0.65,3.27
5.4389731884002686,-0.21,-3.5,0.39,3.52
5.4408040046691895,0.08,-3.71,0.16,3.71
5.450894117355347,0.37,-3.77,-0.02,3.78
5.460840940475464,0.54,-3.72,-0.13,3.76
5.47074294090271,0.47,-3.75,0.01,3.77
5.4887800216674805,0.07,-3.83,0.44,3.85
5.490546941757202,-0.31,-3.93,0.97,4.05
5.500882863998413,-0.51,-3.9,1.26,4.13
5.510622024536133,-0.4,-3.7,1.29,3.93
5.52088189125061,-0.12,-3.39,1.07,3.55
5.539031028747559,0.13,-2.98,0.7,3.06
5.540605068206787,0.2,-2.39,0.33,2.42
5.550915002822876,0.14,-1.79,0.18,1.8
5.560894012451172,-0.08,-1.2,0.27,1.23
5.570804834365845,-0.37,-0.66,0.5,0.9
5.588984966278076,-0.54,-0.19,0.74,0.93
5.590657949447632,-0.54,0.28,0.83,1.02
5.600893020629883,-0.53,0.75,0.71,1.16
5.610733985900879,-0.65,1.14,0.57,1.43
5.620795965194702,-0.8,1.58,0.48,1.83
5.639137029647827,-0.9,1.97,0.51,2.22
5.640580892562866,-1.03,2.45,0.66,2.73
5.6508660316467285,-1.2,2.85,0.87,3.21
5.6607091426849365,-1.39,3.05,1.1,3.52
5.670758008956909,-1.51,3.02,1.23,3.59
5.689094066619873,-1.49,3.13,1.23,3.67
5.690706014633179,-0.79,4.1,1.19,4.34
5.70088005065918,0.2,5.95,1.2,6.07
5.710706949234009,1.05,7.88,1.62,8.11
5.720793962478638,1.6,9.04,2.08,9.41
5.7391321659088135,1.84,9.55,1.33,9.81
5.740789175033569,1.8,8.98,-1.3,9.25
5.750905990600586,1.67,7.15,-4.87,8.81
5.760737180709839,1.39,4.63,-7.55,8.96
5.770791053771973,1.02,1.98,-7.95,8.25
5.789232969284058,0.78,-0.52,-5.97,6.04
5.7906129360198975,0.55,-2.55,-2.66,3.72
5.8009068965911865,0.34,-3.9,0.56,3.95
5.810714960098267,0.26,-4.14,2.58,4.88
5.820814847946167,0.53,-3.42,2.81,4.45
5.839501142501831,1.1,-2.23,1.44,2.87
5.84431004524231,1.37,-0.95,-0.37,1.7
5.850820064544678,1.21,0.05,-1.39,1.84
5.860805034637451,0.72,0.54,-1.44,1.69
5.870816946029663,-0.01,0.54,-1.05,1.18
5.8892810344696045,-0.7,0.16,-0.84,1.1
5.890616178512573,-1.12,-0.45,-1.04,1.59
5.900910139083862,-1.21,-1.26,-1.35,2.2
5.910712957382202,-1.0,-2.05,-1.22,2.58
5.9209558963775635,-0.63,-2.7,-0.56,2.82
5.939597845077515,-0.35,-3.18,0.32,3.21
5.940721035003662,-0.01,-3.27,0.89,3.38
5.950945138931274,0.18,-3.17,1.01,3.33
5.960924863815308,0.06,-3.1,0.79,3.19
5.970867872238159,-0.17,-3.02,0.45,3.05
5.989820957183838,-0.42,-3.09,0.17,3.12
5.990670919418335,-0.55,-3.25,-0.04,3.29
6.000975847244263,-0.65,-3.34,-0.14,3.4
6.010874032974243,-0.66,-3.33,-0.14,3.39
6.020972013473511,-0.64,-3.23,-0.15,3.29
6.0399839878082275,-0.62,-3.06,-0.22,3.12
6.040725946426392,-0.47,-2.8,-0.21,2.84
6.050946950912476,-0.21,-2.54,0.08,2.54
6.060950994491577,0.06,-2.41,0.62,2.48
6.070894956588745,0.19,-2.21,1.04,2.44
6.090275049209595,0.19,-1.9,1.13,2.21
6.090780019760132,0.05,-1.6,1.0,1.88
6.100972890853882,-0.05,-1.12,0.66,1.3
6.110846996307373,-0.01,-0.56,0.2,0.59
6.121026992797852,0.14,0.1,-0.09,0.19
6.1400768756866455,0.41,0.72,0.09,0.83
6.140727996826172,0.59,1.25,0.8,1.59
6.150984048843384,0.62,1.69,1.61,2.41
6.160811185836792,0.62,2.32,2.02,3.13
6.170725107192993,0.59,2.84,2.02,3.53
6.190231084823608,0.64,3.11,1.77,3.63
6.190783977508545,0.72,3.05,1.34,3.4
6.20098614692688,0.83,2.63,0.88,2.89
6.210767984390259,0.69,1.95,0.39,2.1
6.2209250926971436,0.15,2.16,-0.14,2.16
6.240020036697388,-0.09,3.84,-0.42,3.86
6.24084997177124,-0.02,5.66,0.32,5.66
6.251021146774292,-0.38,6.66,1.84,6.91
6.260774850845337,-0.65,7.18,2.55,7.64
6.270911931991577,-0.75,7.01,1.21,7.15
6.289734125137329,-0.82,5.7,-1.85,6.04
6.290714979171753,-0.96,3.96,-4.95,6.41
6.300919055938721,-1.08,2.25,-6.56,7.01
6.310832977294922,-1.11,0.82,-6.24,6.39
6.320981979370117,-1.19,-0.35,-4.38,4.55
6.34020209312439,-1.38,-1.1,-1.91,2.6
6.340802907943726,-1.4,-1.45,0.11,2.01
6.350921869277954,-1.44,-1.47,1.26,2.41
6.3608129024505615,-1.28,-1.38,1.28,2.27
6.370905160903931,-0.7,-0.96,0.34,1.23
6.389516115188599,-0.09,-0.51,-0.71,0.87
6.390796899795532,0.19,-0.41,-1.19,1.27
6.400840997695923,0.36,-0.51,-1.04,1.21
6.410785913467407,0.48,-0.69,-0.48,0.96
6.421025991439819,0.47,-0.93,-0.01,1.04
6.440065145492554,0.45,-1.21,0.08,1.29
6.4408040046691895,0.4,-1.49,-0.07,1.54
6.450962066650391,0.33,-1.78,-0.11,1.81
6.460829019546509,0.24,-2.11,0.01,2.12
6.470895051956177,0.13,-2.44,0.22,2.45
6.49008584022522,-0.06,-2.77,0.56,2.82
6.490803003311157,-0.04,-3.09,0.72,3.17
6.501010179519653,0.09,-3.37,0.63,3.42
6.510840177536011,0.16,-3.7,0.37,3.72
6.520943880081177,0.15,-3.97,0.0,3.97
6.540334939956665,0.16,-4.11,-0.35,4.12
6.540786027908325,0.14,-4.12,-0.45,4.14
6.551005125045776,0.03,-4.07,-0.29,4.08
6.560899972915649,-0.13,-3.91,0.01,3.91
6.570988893508911,-0.31,-3.65,0.3,3.67
6.590947866439819,-0.48,-3.44,0.54,3.51
6.591377019882202,-0.56,-3.25,0.7,3.37
6.601135969161987,-0.54,-3.0,0.73,3.13
6.610881090164185,-0.61,-2.82,0.71,2.97
6.621042013168335,-0.57,-2.44,0.63,2.58
6.640894174575806,-0.52,-1.92,0.5,2.05
6.64132285118103,-0.69,-1.33,0.32,1.53
6.65109395980835,-0.86,-0.5,0.1,0.99
6.660861015319824,-0.89,0.39,0.1,0.97
6.670996904373169,-0.82,1.19,0.5,1.52
6.690705060958862,-0.64,1.82,1.15,2.24
6.691133975982666,-0.49,2.48,1.82,3.11
6.701072931289673,-0.53,3.05,2.2,3.79
6.710896015167236,-0.8,3.58,2.06,4.2
6.72101616859436,-1.36,3.84,1.71,4.41
6.741223096847534,-1.77,3.73,1.39,4.35
6.7416698932647705,-1.76,3.41,1.28,4.04
6.7511351108551025,-1.22,3.31,1.21,3.72
6.76093602180481,-0.07,4.04,1.02,4.16
6.771100044250488,1.13,5.61,1.05,5.81
6.790960073471069,1.81,6.95,1.81,7.4
6.791391134262085,2.0,7.83,2.55,8.47
6.80112099647522,2.03,8.41,1.71,8.81
6.810935020446777,2.15,8.33,-0.99,8.65
6.821130037307739,2.09,6.79,-4.28,8.29
6.8412768840789795,1.81,4.42,-6.33,7.92
6.84171986579895,1.37,2.06,-6.5,6.95
6.851155996322632,1.0,0.14,-5.08,5.17
6.8609700202941895,0.72,-1.18,-2.68,3.01
6.87109112739563,0.64,-1.98,-0.2,2.09
6.891287088394165,0.87,-2.15,1.36,2.68
6.891711950302124,1.09,-2.0,1.79,2.89
6.901053190231323,1.09,-1.52,1.15,2.19
6.910949945449829,1.13,-0.91,-0.1,1.45
6.921144962310791,0.9,-0.43,-1.08,1.47
6.941664934158325,0.44,-0.32,-1.16,1.28
6.942092180252075,-0.09,-0.7,-0.66,0.96
6.951195001602173,-0.66,-1.29,-0.39,1.5
6.960954904556274,-1.08,-1.97,-0.58,2.32
6.971098184585571,-1.27,-2.59,-0.98,3.04
6.9913489818573,-1.18,-3.04,-1.17,3.46
6.991764068603516,-1.02,-3.42,-0.92,3.68
7.0011961460113525,-0.95,-3.8,-0.37,3.93
7.010873079299927,-0.87,-3.92,0.17,4.01
7.021144151687622,-0.79,-3.85,0.57,3.97
7.041218042373657,-0.76,-3.64,0.8,3.8
7.041701078414917,-0.79,-3.52,0.81,3.69
7.050999879837036,-1.01,-3.5,0.59,3.69
7.060970067977905,-1.17,-3.57,0.15,3.75
7.071137189865112,-1.16,-3.51,-0.42,3.72
7.09102201461792,-1.02,-3.37,-0.84,3.61
7.091464042663574,-0.86,-3.18,-0.82,3.39
7.101070165634155,-0.53,-2.93,-0.36,2.99
7.1109349727630615,-0.34,-2.63,0.21,2.66
7.121164083480835,-0.11,-2.3,0.64,2.38
7.141119956970215,0.05,-2.1,0.92,2.29
7.141553163528442,0.17,-1.86,0.95,2.09
7.151134967803955,0.31,-1.66,0.76,1.85
7.1609179973602295,0.31,-1.5,0.46,1.59
7.1710710525512695,0.27,-1.02,0.03,1.05
7.191166162490845,0.41,-0.3,-0.31,0.59
7.191593885421753,0.48,0.56,-0.15,0.75
7.201016187667847,0.47,1.25,0.52,1.43
7.2110679149627686,0.59,1.92,1.46,2.48
7.221144914627075,0.59,2.49,2.15,3.34
7.2409608364105225,0.6,3.08,2.18,3.82
7.241390943527222,0.78,3.54,1.7,4.0
7.251100063323975,0.82,3.48,1.25,3.78
7.261142015457153,0.88,3.13,0.76,3.33
7.271064043045044,0.81,2.63,0.27,2.76
7.291344881057739,0.42,3.16,-0.17,3.19
7.291763067245483,0.26,4.96,-0.09,4.96
7.3011109828948975,0.6,6.59,1.11,6.7
7.311028003692627,0.61,7.26,2.9,7.84
7.321171998977661,0.4,7.54,3.25,8.22
7.342182874679565,-0.13,7.25,1.1,7.33
7.342607021331787,-0.97,6.16,-2.35,6.66
7.35114312171936,-1.6,4.43,-4.94,6.82
7.361178159713745,-1.87,2.73,-6.0,6.85
7.371225118637085,-1.78,1.11,-5.49,5.87
7.39153790473938,-1.16,-0.08,-4.03,4.19
7.391952991485596,-0.48,-0.67,-2.36,2.49
7.4011218547821045,-0.2,-0.94,-0.92,1.33
7.411237955093384,-0.28,-1.14,0.11,1.17
7.421272039413452,-0.48,-1.21,0.38,1.35
7.441421031951904,-0.53,-1.17,0.01,1.28
7.441838979721069,-0.61,-0.91,-0.59,1.24
7.4510979652404785,-0.59,-0.66,-1.03,1.35
7.461246013641357,-0.52,-0.44,-1.07,1.26
7.471145868301392,-0.42,-0.41,-0.75,0.95
7.491466045379639,-0.3,-0.54,-0.33,0.7
7.491883039474487,-0.13,-0.78,-0.02,0.79
7.501149892807007,0.04,-1.14,0.23,1.16
7.511330842971802,0.17,-1.77,0.35,1.81
7.521178960800171,0.21,-2.29,0.28,2.31
7.541776895523071,0.08,-2.77,0.03,2.77
7.542196035385132,0.06,-3.12,-0.33,3.13
7.551229953765869,0.11,-3.17,-0.63,3.23
7.561467885971069,0.25,-3.19,-0.66,3.26
7.5711350440979,0.36,-3.29,-0.53,3.35
7.592129945755005,0.22,-3.56,-0.32,3.58
7.592551946640015,0.13,-3.83,-0.19,3.83
7.601176023483276,0.01,-4.11,-0.13,4.11
7.611447095870972,-0.02,-4.3,0.0,4.3
7.621258020401001,0.06,-4.39,0.09,4.39
7.641829013824463,0.13,-4.33,0.07,4.33
7.642273187637329,0.23,-4.07,0.0,4.07
7.6512291431427,0.19,-3.69,-0.01,3.69
7.661520957946777,-0.01,-3.25,0.14,3.25
7.671199083328247,-0.35,-2.8,0.33,2.84
7.691725969314575,-0.53,-2.28,0.53,2.4
7.69215202331543,-0.65,-1.68,0.65,1.91
7.701212167739868,-0.53,-0.98,0.63,1.27
7.711579084396362,-0.32,-0.27,0.44,0.6
7.721238851547241,-0.15,0.42,0.24,0.5
7.741727113723755,-0.1,0.98,0.26,1.01
7.742154836654663,-0.36,1.27,0.75,1.51
7.751152038574219,-0.6,1.59,1.3,2.13
7.761603116989136,-0.62,1.97,1.57,2.59
7.771245956420898,-0.52,2.36,1.52,2.85
7.791999101638794,-0.53,2.67,1.3,3.01
7.7923970222473145,-0.67,2.68,1.3,3.05
7.8012001514434814,-0.86,2.6,1.55,3.14
7.811632871627808,-0.87,2.63,1.76,3.28
7.821258068084717,-0.3,3.47,1.75,3.89
7.841791868209839,0.44,5.08,1.78,5.4
7.842206001281738,0.76,6.54,2.14,6.92
7.851166009902954,0.58,7.5,2.43,7.9
7.8616859912872314,0.45,8.27,1.78,8.47
7.871256113052368,0.55,8.35,-0.6,8.38
7.891939878463745,1.09,7.43,-3.7,8.37
7.892351865768433,1.53,5.6,-5.9,8.27
7.901202917098999,1.71,3.27,-6.14,7.16
7.911821126937866,1.69,1.07,-4.73,5.13
7.9213550090789795,1.52,-0.63,-2.81,3.25
7.942260026931763,1.06,-1.69,-1.23,2.34
7.94270396232605,0.7,-2.24,-0.19,2.35
7.951267957687378,0.74,-2.31,0.32,2.44
7.961211919784546,0.84,-2.12,0.4,2.31
7.9764440059661865,0.83,-1.84,0.07,2.01
7.981202840805054,0.84,-1.48,-0.52,1.77
7.991173982620239,0.77,-1.1,-0.92,1.62
8.001260042190552,0.48,-0.88,-0.8,1.28
8.011919975280762,0.18,-0.84,-0.44,0.96
8.019942045211792,-0.1,-0.89,-0.33,0.95
8.041355848312378,-0.33,-1.03,-0.5,1.19
8.04177212715149,-0.35,-1.26,-0.75,1.5
8.04977297782898,-0.38,-1.62,-0.83,1.85
8.059890985488892,-0.49,-2.08,-0.58,2.21
8.074488878250122,-0.56,-2.55,-0.14,2.61
8.079799890518188,-0.52,-2.9,0.27,2.95
8.089885950088501,-0.51,-3.08,0.46,3.15
8.09994387626648,-0.39,-3.1,0.55,3.17
8.109920024871826,-0.37,-3.12,0.45,3.17
8.124873876571655,-0.46,-3.07,0.26,3.11
8.129791021347046,-0.43,-2.94,0.05,2.97
8.139997959136963,-0.49,-2.83,-0.04,2.87
8.149983167648315,-0.51,-2.7,-0.04,2.74
8.159955024719238,-0.53,-2.62,-0.05,2.67
8.175219058990479,-0.63,-2.66,-0.04,2.73
8.179687023162842,-0.56,-2.66,-0.06,2.71
8.189915895462036,-0.44,-2.7,-0.06,2.73
8.20002007484436,-0.17,-2.57,0.09,2.57
8.21003794670105,0.1,-2.42,0.34,2.44
8.225342035293579,0.37,-2.23,0.57,2.33
8.229942083358765,0.44,-1.83,0.72,2.01
8.239938020706177,0.35,-1.46,0.68,1.64
8.250022172927856,0.34,-0.91,0.46,1.07
8.260146856307983,0.35,-0.37,0.2,0.54
8.276292085647583,0.47,0.31,0.09,0.57
8.27987790107727,0.53,1.01,0.38,1.2
8.290004014968872,0.47,1.66,0.89,1.94
8.300137042999268,0.62,2.42,1.29,2.81
8.310170888900757,0.85,2.98,1.3,3.36
8.326581001281738,1.09,3.22,1.06,3.56
8.330013036727905,1.1,3.06,0.74,3.33
8.339982032775879,1.0,2.59,0.31,2.79
8.350034952163696,0.87,2.14,-0.01,2.31
8.360113859176636,0.58,2.27,-0.05,2.34
8.375901937484741,0.22,3.44,0.44,3.47
8.379837989807129,0.13,5.13,1.75,5.42
8.390034914016724,0.04,6.38,3.28,7.17
8.400110960006714,-0.27,6.86,3.71,7.8
8.410091161727905,-0.41,6.68,2.05,6.99
8.426644086837769,-0.56,6.0,-1.17,6.13
8.429889917373657,-0.93,4.66,-3.92,6.16
8.440054178237915,-1.25,3.13,-5.04,6.06
8.450154066085815,-1.36,1.8,-4.54,5.06
8.460085153579712,-1.14,0.74,-3.24,3.51
8.476401090621948,-0.79,0.14,-1.93,2.09
8.480095148086548,-0.57,-0.13,-1.04,1.19
8.489995956420898,-0.58,-0.29,-0.41,0.76
8.500084161758423,-0.84,-0.56,0.0,1.0
8.510102033615112,-1.15,-0.97,0.04,1.5
8.5260169506073,-1.14,-1.04,-0.25,1.56
8.530009031295776,-0.84,-0.83,-0.64,1.34
8.539932012557983,-0.73,-0.51,-0.8,1.19
8.55010199546814,-0.71,-0.53,-0.53,1.03
8.560127973556519,-0.63,-0.78,-0.17,1.01
8.575337171554565,-0.49,-1.19,-0.06,1.28
8.580006837844849,-0.21,-1.6,-0.23,1.63
8.589915990829468,0.03,-2.07,-0.25,2.08
8.599990129470825,0.2,-2.7,0.02,2.7
8.610160112380981,0.33,-3.15,0.23,3.17
8.626453161239624,0.4,-3.43,0.27,3.46
8.629963159561157,0.27,-3.79,0.25,3.8
8.640099048614502,0.04,-3.98,0.12,3.98
8.650049924850464,-0.25,-4.07,0.02,4.07
8.660070180892944,-0.34,-4.05,-0.13,4.06
8.675803899765015,-0.19,-3.97,-0.15,3.97
8.679961919784546,-0.03,-3.97,0.0,3.97
8.690031051635742,0.12,-4.0,0.18,4.0
8.70023512840271,0.15,-3.87,0.31,3.88
8.710093021392822,0.14,-3.58,0.33,3.59
8.725435972213745,0.1,-3.28,0.43,3.3
8.729946851730347,0.06,-2.96,0.54,3.0
8.740174055099487,0.01,-2.64,0.63,2.71
8.750110864639282,-0.16,-2.28,0.69,2.38
8.760118961334229,-0.43,-1.87,0.68,2.03
8.775860071182251,-0.71,-1.43,0.66,1.72
8.780050039291382,-0.83,-1.07,0.77,1.55
8.79012417793274,-0.76,-0.6,0.76,1.23
8.800235986709595,-0.44,0.09,0.57,0.72
8.810127973556519,-0.2,0.87,0.43,0.99
8.82594609260559,-0.18,1.63,0.63,1.75
8.829966068267822,-0.29,2.25,1.02,2.48
8.840184926986694,-0.47,2.84,1.4,3.2
8.85008692741394,-0.54,3.42,1.49,3.76
8.860160112380981,-0.73,3.74,1.42,4.06
8.875740051269531,-1.02,3.5,1.43,3.91
8.880009889602661,-1.23,3.11,1.41,3.62
8.890141010284424,-1.16,2.88,1.25,3.34
8.900141954421997,-0.27,3.56,0.87,3.67
8.910133123397827,0.67,4.99,0.64,5.07
8.925706148147583,1.0,6.19,1.15,6.37
8.929975986480713,1.13,7.06,1.89,7.39
8.940234899520874,1.19,7.76,1.54,8.0
8.950162172317505,1.34,7.85,-0.54,7.98
8.960220098495483,1.45,7.05,-3.37,7.94
8.975261926651001,1.34,5.41,-5.31,7.69
8.98010516166687,1.48,3.22,-5.52,6.55
8.990211963653564,1.53,0.97,-4.11,4.49
9.000003099441528,1.41,-1.03,-2.14,2.76
9.010164022445679,1.09,-2.25,-0.5,2.54
9.026211977005005,0.75,-2.5,0.42,2.64
9.030049085617065,0.6,-2.02,0.56,2.18
9.040269136428833,0.63,-1.45,0.27,1.6
9.050130128860474,0.63,-0.86,-0.19,1.08
9.06019902229309,0.56,-0.45,-0.78,1.06
9.076401948928833,0.4,-0.2,-1.12,1.2
9.080029964447021,0.08,-0.31,-0.99,1.04
9.090204954147339,-0.23,-0.65,-0.6,0.91
9.100116968154907,-0.51,-1.15,-0.3,1.29
9.110191106796265,-0.7,-1.65,-0.35,1.82
9.126558065414429,-0.76,-2.1,-0.66,2.32
9.130169153213501,-0.66,-2.47,-0.92,2.71
9.140281915664673,-0.7,-2.92,-0.86,3.12
9.15027117729187,-0.61,-3.23,-0.47,3.32
9.160217046737671,-0.51,-3.44,0.07,3.47
9.177129983901978,-0.45,-3.64,0.42,3.69
9.180283069610596,-0.39,-3.72,0.49,3.77
9.19024395942688,-0.36,-3.81,0.4,3.84
9.200123071670532,-0.31,-3.85,0.1,3.86
9.210199117660522,-0.26,-3.86,-0.28,3.87
9.227524995803833,-0.41,-3.76,-0.36,3.79
9.230372190475464,-0.47,-3.57,-0.18,3.6
9.240337133407593,-0.48,-3.35,0.07,3.38
9.250144004821777,-0.44,-3.1,0.28,3.14
9.260277032852173,-0.31,-2.86,0.36,2.89
9.277384996414185,-0.16,-2.58,0.41,2.61
9.280318975448608,0.02,-2.25,0.51,2.3
9.29035997390747,0.18,-2.01,0.83,2.18
9.300276041030884,0.33,-1.7,1.11,2.05
9.310265064239502,0.47,-1.28,1.02,1.7
9.327808141708374,0.54,-0.63,0.54,0.99
9.330782175064087,0.6,0.05,0.15,0.62
9.340227842330933,0.47,0.69,0.14,0.84
9.35016417503357,0.3,1.29,0.62,1.46
9.360224962234497,0.08,1.92,1.45,2.4
9.37785005569458,0.08,2.57,2.17,3.36
9.380449056625366,0.3,3.28,2.45,4.1
9.390363931655884,0.61,3.68,2.17,4.31
9.400202989578247,0.86,3.67,1.51,4.06
9.410282850265503,0.99,3.41,0.63,3.6
9.427937984466553,1.02,3.25,-0.14,3.4
9.430588960647583,0.88,3.74,-0.32,3.85
9.440354108810425,0.55,4.81,0.52,4.86
9.450304985046387,0.26,5.72,1.94,6.04
9.46033000946045,-0.18,6.49,2.65,7.01
9.478337049484253,-0.42,7.01,1.81,7.25
9.480645895004272,-0.75,6.89,-0.35,6.93
9.490339994430542,-1.22,5.89,-2.71,6.59
9.500339984893799,-1.49,4.41,-4.38,6.39
9.510313034057617,-1.4,2.7,-5.01,5.86
9.528656005859375,-1.11,1.02,-4.89,5.11
9.530992984771729,-0.7,-0.47,-4.09,4.17
9.540363073348999,-0.29,-1.41,-2.83,3.17
9.550410985946655,-0.11,-1.88,-1.34,2.31
9.560456991195679,-0.29,-2.15,-0.02,2.16
9.57936406135559,-0.48,-2.12,0.83,2.32
9.580878973007202,-0.55,-1.84,0.92,2.12
9.590391874313354,-0.54,-1.41,0.24,1.52
9.600237131118774,-0.52,-1.1,-0.58,1.34
9.61040997505188,-0.42,-0.98,-0.95,1.42
9.628839015960693,-0.25,-0.9,-0.79,1.22
9.630192041397095,-0.08,-0.92,-0.44,1.02
9.640452146530151,0.14,-0.99,-0.19,1.01
9.65028691291809,0.38,-1.18,-0.01,1.23
9.660335063934326,0.46,-1.46,0.04,1.53
9.678351163864136,0.28,-1.88,0.0,1.9
9.680215120315552,0.07,-2.36,0.16,2.36
9.690376043319702,-0.15,-2.75,0.4,2.78
9.700245141983032,-0.33,-3.06,0.53,3.12
9.710326910018921,-0.35,-3.27,0.54,3.33
9.728535890579224,-0.2,-3.39,0.44,3.42
9.730234861373901,-0.13,-3.48,0.2,3.48
9.74036192893982,-0.02,-3.57,0.07,3.57
9.750198125839233,0.01,-3.58,0.02,3.58
9.760296106338501,0.05,-3.56,0.02,3.56
9.778968095779419,0.1,-3.5,0.09,3.5
9.780275106430054,0.07,-3.38,0.23,3.38
9.790403127670288,-0.04,-3.23,0.35,3.24
9.800240993499756,-0.23,-3.09,0.49,3.13
9.810373067855835,-0.3,-2.93,0.53,2.99
9.8279709815979,-0.29,-2.58,0.48,2.64
9.830270051956177,-0.23,-2.12,0.42,2.17
9.840512990951538,-0.17,-1.71,0.31,1.74
9.85020399093628,-0.17,-1.29,0.27,1.32
9.860424041748047,-0.08,-0.61,0.35,0.7
9.878519058227539,0.0,0.23,0.5,0.55
9.880298852920532,-0.11,1.13,0.8,1.38
9.890480041503906,-0.55,1.87,1.27,2.32
9.900480031967163,-0.84,2.58,1.76,3.23
9.910445928573608,-1.17,3.17,1.85,3.85
9.929067850112915,-1.38,3.48,1.45,4.01
9.930346012115479,-1.52,3.43,0.69,3.81
9.940438032150269,-1.47,3.13,0.06,3.45
9.950253009796143,-1.18,2.85,0.05,3.08
9.960424184799194,-0.57,3.11,0.61,3.22
9.979151964187622,-0.02,4.19,1.53,4.46
9.980309963226318,0.21,5.39,2.63,6.0
9.990498065948486,0.2,6.47,3.43,7.32
10.000323057174683,0.25,7.58,2.93,8.13
10.010442018508911,0.72,8.1,0.72,8.16
10.029244184494019,1.32,7.61,-2.5,8.11
10.030161142349243,1.98,6.22,-5.13,8.3
10.040470838546753,2.48,4.09,-6.17,7.8
10.050330877304077,2.55,1.77,-5.62,6.42
10.0603768825531,2.36,-0.36,-4.12,4.76
10.079298973083496,1.93,-1.98,-2.35,3.62
10.080197095870972,1.24,-2.73,-0.68,3.07
10.090492010116577,0.54,-2.88,0.64,2.99
10.10044002532959,0.29,-2.55,1.42,2.93
10.11038088798523,0.36,-1.87,1.35,2.33
10.129047155380249,0.71,-1.03,0.43,1.32
10.13032603263855,0.9,-0.43,-0.67,1.2
10.140468835830688,0.74,-0.3,-1.3,1.52
10.15038800239563,0.55,-0.24,-1.47,1.58
10.160453081130981,0.27,-0.34,-1.4,1.46
10.179200887680054,-0.07,-0.64,-1.19,1.35
10.180177927017212,-0.34,-1.12,-0.91,1.48
10.190469980239868,-0.58,-1.7,-0.41,1.84
10.20030403137207,-0.83,-2.38,0.08,2.52
10.210383176803589,-0.85,-2.87,0.3,3.0
10.228921175003052,-0.7,-3.16,0.26,3.24
10.230206966400146,-0.54,-3.33,0.2,3.37
10.240458011627197,-0.48,-3.42,0.11,3.45
10.250262022018433,-0.48,-3.59,0.08,3.62
10.26044487953186,-0.58,-3.73,0.06,3.77
10.279287099838257,-0.56,-3.7,-0.07,3.74
10.280277013778687,-0.49,-3.64,-0.19,3.67
10.290469884872437,-0.48,-3.55,-0.2,3.58
10.300319910049438,-0.4,-3.37,-0.08,3.39
10.310436964035034,-0.46,-3.3,0.03,3.33
10.329038858413696,-0.46,-3.2,0.05,3.23
10.330235004425049,-0.37,-3.07,0.2,3.09
10.340462923049927,-0.19,-2.8,0.38,2.83
10.350536108016968,-0.02,-2.45,0.64,2.53
10.360488176345825,0.19,-1.95,0.88,2.14
10.379079103469849,0.28,-1.31,0.89,1.6
10.380264043807983,0.36,-0.63,0.47,0.86
10.390490055084229,0.38,0.06,0.03,0.38
10.40034794807434,0.43,0.68,-0.15,0.81
10.410469055175781,0.41,1.29,0.17,1.36
10.428922891616821,0.47,1.84,0.95,2.12
10.430361986160278,0.43,2.4,1.76,3.0
10.440572023391724,0.54,3.04,2.23,3.8
10.450325965881348,0.61,3.49,2.22,4.18
10.460474967956543,0.66,3.56,1.82,4.05
10.47946286201477,0.6,3.23,1.03,3.44
10.480278015136719,0.45,3.16,0.28,3.2
10.49042296409607,0.37,3.89,-0.15,3.91
10.50042986869812,0.41,5.15,0.25,5.17
10.510509014129639,0.19,6.19,1.72,6.42
10.529865980148315,-0.18,6.75,2.87,7.33
10.530303955078125,-0.43,7.05,2.06,7.35
10.540560960769653,-0.74,6.91,-0.59,6.97
10.5503408908844,-1.09,5.81,-3.48,6.85
10.560526132583618,-1.45,4.28,-5.25,6.92
10.579483032226562,-1.65,2.6,-5.4,6.21
10.580320119857788,-1.54,1.16,-4.32,4.73
10.590482950210571,-1.32,0.1,-2.86,3.15
10.600362062454224,-1.08,-0.38,-1.58,1.95
10.610522031784058,-0.92,-0.43,-0.66,1.21
10.62960410118103,-0.85,-0.42,0.04,0.94
10.630300998687744,-0.76,-0.48,0.39,0.97
10.640498876571655,-0.7,-0.51,0.21,0.89
10.650430917739868,-0.5,-0.41,-0.39,0.75
10.66055703163147,-0.26,-0.31,-0.97,1.05
10.679550886154175,-0.12,-0.38,-1.06,1.13
10.680377960205078,0.05,-0.71,-0.69,0.99
10.690726041793823,0.17,-1.25,-0.23,1.28
10.700481176376343,0.23,-1.83,-0.01,1.84
10.710556030273438,0.25,-2.33,-0.11,2.34
10.730037927627563,0.15,-2.86,-0.26,2.87
10.730483055114746,-0.02,-3.27,-0.33,3.28
10.740610837936401,0.09,-3.72,-0.2,3.72
10.750431060791016,0.21,-3.97,-0.15,3.97
10.760533094406128,0.21,-4.24,-0.01,4.24
10.780096054077148,0.18,-4.56,0.09,4.56
10.780545949935913,0.15,-4.75,0.02,4.75
10.790548086166382,-0.03,-4.78,-0.05,4.78
10.800464868545532,-0.04,-4.62,-0.14,4.62
10.810537099838257,0.14,-4.39,-0.17,4.39
10.829699993133545,0.21,-4.13,-0.15,4.13
10.830323934555054,0.22,-3.83,0.02,3.83
10.84053897857666,0.21,-3.44,0.28,3.45
10.850407838821411,0.04,-3.08,0.48,3.11
10.860581159591675,-0.06,-2.76,0.61,2.82
10.880039930343628,-0.06,-2.45,0.51,2.5
10.880483865737915,0.11,-2.16,0.29,2.18
10.890560865402222,0.0,-2.05,0.12,2.05
10.900427103042603,-0.09,-1.79,0.07,1.79
10.91058087348938,-0.32,-1.44,0.16,1.48
10.93019700050354,-0.45,-0.97,0.4,1.14
10.93060302734375,-0.45,-0.32,0.65,0.85
10.940572023391724,-0.32,0.53,1.02,1.19
10.950420141220093,-0.21,1.37,1.74,2.22
10.960622072219849,-0.19,2.06,2.54,3.27
10.980171918869019,-0.32,2.64,2.93,3.95
10.98061203956604,-0.53,3.33,2.66,4.29
10.990532159805298,-0.81,4.0,1.93,4.51
11.000493049621582,-1.26,4.18,1.3,4.55
11.010571002960205,-1.59,3.88,1.12,4.34
11.030617952346802,-1.63,3.63,1.25,4.17
11.03107500076294,-1.03,3.96,1.46,4.34
11.040629148483276,-0.09,5.23,1.65,5.48
11.050432920455933,0.71,6.65,2.06,6.99
11.060546159744263,1.15,7.72,2.45,8.18
11.08072805404663,1.53,8.41,2.05,8.79
11.081156969070435,1.67,8.61,0.19,8.77
11.090590953826904,1.76,7.94,-2.77,8.59
11.100517988204956,1.51,6.04,-5.26,8.15
11.110576868057251,0.97,3.72,-6.03,7.15
11.130483865737915,0.44,1.33,-5.02,5.21
11.130908966064453,0.14,-0.7,-3.15,3.22
11.140751123428345,0.28,-2.14,-1.46,2.6
11.150469064712524,0.52,-2.74,-0.33,2.8
11.160607099533081,0.7,-2.84,0.18,2.93
11.180436849594116,0.91,-2.59,0.17,2.75
11.180865049362183,0.93,-2.05,-0.25,2.26
11.190632104873657,0.82,-1.31,-0.86,1.76
11.200525045394897,0.61,-0.66,-1.22,1.51
11.21062684059143,0.34,-0.36,-1.03,1.14
11.230232000350952,-0.05,-0.45,-0.58,0.73
11.23065996170044,-0.39,-0.82,-0.3,0.95
11.240651845932007,-0.52,-1.43,-0.31,1.55
11.250493049621582,-0.66,-2.09,-0.58,2.26
11.260733842849731,-0.78,-2.66,-0.66,2.84
11.280685186386108,-0.72,-3.1,-0.43,3.21
11.281102895736694,-0.68,-3.45,-0.17,3.52
11.290747880935669,-0.59,-3.64,0.05,3.68
11.300539016723633,-0.5,-3.71,0.07,3.74
11.310621976852417,-0.42,-3.72,0.06,3.74
11.331523180007935,-0.45,-3.71,0.08,3.73
11.33194613456726,-0.49,-3.76,0.11,3.79
11.340676069259644,-0.46,-3.69,0.12,3.72
11.350443124771118,-0.51,-3.6,0.06,3.63
11.36073088645935,-0.54,-3.36,0.0,3.4
11.381340980529785,-0.43,-3.01,-0.06,3.04
11.381757020950317,-0.41,-2.77,-0.03,2.8
11.3905930519104,-0.35,-2.58,0.18,2.6
11.400495052337646,-0.23,-2.49,0.44,2.53
11.410721063613892,0.05,-2.33,0.67,2.42
11.431396007537842,0.33,-2.13,0.84,2.31
11.43181586265564,0.59,-1.7,0.99,2.05
11.440701961517334,0.62,-1.21,1.03,1.7
11.450491189956665,0.46,-0.65,0.86,1.17
11.46074104309082,0.48,0.08,0.45,0.66
11.481443166732788,0.48,0.75,0.0,0.89
11.481866121292114,0.69,1.22,-0.22,1.41
11.490604162216187,0.79,1.59,0.14,1.78
11.500516176223755,0.77,1.78,1.1,2.22
11.510730981826782,0.64,2.1,2.0,2.96
11.531620025634766,0.35,2.43,2.22,3.3
11.53204607963562,0.18,2.87,1.75,3.36
11.540771007537842,0.17,3.14,0.96,3.28
11.550524950027466,0.18,3.34,0.36,3.36
11.56070590019226,0.19,4.05,0.06,4.05
11.581352949142456,0.23,5.28,0.33,5.29
11.581768989562988,0.36,6.59,1.21,6.7
11.590720891952515,0.15,7.41,2.12,7.7
11.600640058517456,-0.3,7.51,2.06,7.79
11.610781908035278,-0.74,6.98,0.36,7.02
11.631163835525513,-1.33,5.93,-2.22,6.47
11.63158392906189,-1.77,4.35,-4.45,6.46
11.640740156173706,-2.04,2.54,-5.46,6.35
11.65068793296814,-1.99,0.93,-5.09,5.54
11.66081690788269,-1.71,-0.25,-3.71,4.09
11.681859970092773,-1.19,-0.69,-1.99,2.41
11.68229603767395,-0.73,-0.46,-0.6,1.05
11.69072413444519,-0.49,-0.08,0.2,0.53
11.70074200630188,-0.47,-0.04,0.45,0.65
11.710792064666748,-0.52,-0.13,0.2,0.57
11.73181700706482,-0.46,-0.1,-0.4,0.61
11.7322518825531,-0.23,-0.05,-0.97,0.99
11.740777969360352,-0.13,-0.06,-1.07,1.07
11.75084900856018,-0.14,-0.29,-0.68,0.75
11.76078200340271,0.03,-0.68,-0.23,0.71
11.781599998474121,0.2,-1.18,-0.09,1.2
11.782016038894653,0.41,-1.72,-0.15,1.77
11.790724039077759,0.42,-2.41,-0.16,2.45
11.800915002822876,0.32,-3.12,-0.02,3.13
11.810819864273071,0.23,-3.69,0.17,3.7
11.831727981567383,0.13,-4.12,0.35,4.13
11.832159996032715,-0.02,-4.41,0.41,4.42
11.840811014175415,-0.12,-4.61,0.31,4.62
11.851014852523804,-0.16,-4.75,0.28,4.76
11.860813856124878,-0.09,-4.72,0.09,4.72
11.882118940353394,0.07,-4.6,-0.23,4.6
11.88255500793457,0.08,-4.42,-0.4,4.43
11.890666007995605,-0.03,-4.24,-0.26,4.24
11.901134014129639,-0.12,-4.04,0.22,4.04
11.910754919052124,-0.3,-3.82,0.82,3.91
11.932041883468628,-0.37,-3.54,1.17,3.74
11.932462930679321,-0.35,-3.24,1.03,3.41
11.94074296951294,-0.29,-2.85,0.68,2.94
11.951205015182495,-0.24,-2.43,0.39,2.47
11.96085500717163,-0.23,-1.97,0.28,2.0
11.982486009597778,-0.22,-1.46,0.35,1.51
11.982898950576782,-0.16,-0.83,0.42,0.94
11.990673065185547,0.0,-0.15,0.41,0.43
12.00128698348999,0.05,0.55,0.59,0.8
12.011110067367554,-0.13,1.16,1.03,1.55
12.031006097793579,-0.39,1.72,1.54,2.34
12.031422853469849,-0.49,2.39,1.98,3.14
12.040705919265747,-0.55,3.1,2.05,3.75
12.05125117301941,-0.63,3.72,1.76,4.16
12.060776948928833,-0.87,3.94,1.46,4.29
12.081392049789429,-1.23,3.73,1.25,4.12
12.081804037094116,-1.37,3.38,1.15,3.82
12.090896844863892,-0.91,3.47,1.18,3.77
12.10136604309082,0.05,4.33,1.37,4.54
12.110871076583862,0.87,5.55,1.92,5.93
12.132315874099731,1.31,6.53,2.79,7.22
12.132723093032837,1.58,7.24,2.76,7.9
12.14079999923706,1.64,8.02,1.07,8.25
12.150729894638062,1.64,7.85,-1.67,8.19
12.160827875137329,1.61,6.43,-4.36,7.93
12.182223081588745,1.44,4.12,-5.72,7.19
12.182637929916382,1.02,1.66,-5.15,5.5
12.19086503982544,0.71,-0.5,-3.34,3.45
12.200738191604614,0.53,-2.0,-1.42,2.5
12.210821866989136,0.44,-2.89,-0.07,2.92
12.232340097427368,0.5,-3.06,0.45,3.13
12.232722997665405,0.61,-2.88,0.45,2.97
12.240763902664185,0.75,-2.45,0.16,2.56
12.250722169876099,0.81,-1.78,-0.25,1.97
12.260854959487915,0.69,-1.16,-0.55,1.45
12.282297849655151,0.57,-0.57,-0.51,0.95
12.282716035842896,0.5,-0.22,-0.37,0.65
12.290910005569458,0.42,-0.13,-0.55,0.7
12.300801992416382,0.24,-0.46,-1.1,1.21
12.31090497970581,0.15,-0.92,-1.52,1.78
12.33275294303894,0.0,-1.46,-1.39,2.01
12.333253145217896,-0.35,-2.21,-0.7,2.34
12.340954065322876,-0.53,-2.76,0.11,2.81
12.350775957107544,-0.65,-3.11,0.68,3.24
12.360871076583862,-0.72,-3.41,0.89,3.59
12.382426023483276,-0.54,-3.53,0.68,3.63
12.382853984832764,-0.39,-3.59,0.33,3.62
12.39079999923706,-0.41,-3.67,0.17,3.69
12.400768041610718,-0.49,-3.82,0.24,3.85
12.410891056060791,-0.58,-3.85,0.37,3.91
12.43402886390686,-0.59,-3.68,0.42,3.75
12.434448003768921,-0.52,-3.36,0.29,3.41
12.44079303741455,-0.41,-3.04,0.13,3.07
12.450874090194702,-0.35,-2.78,0.08,2.8
12.460914850234985,-0.23,-2.52,0.15,2.53
12.48345398902893,-0.03,-2.33,0.22,2.34
12.48388409614563,0.08,-2.17,0.29,2.19
12.490830183029175,0.14,-1.85,0.16,1.86
12.500826120376587,0.21,-1.36,-0.25,1.39
12.510892152786255,0.48,-0.64,-0.54,0.96
12.533074140548706,0.67,0.16,-0.4,0.79
12.533499956130981,0.73,0.78,0.46,1.16
12.540845155715942,0.64,1.24,1.6,2.12
12.550871133804321,0.51,1.88,2.17,2.91
12.561010122299194,0.6,2.78,2.04,3.49
12.583039045333862,0.63,3.59,1.43,3.91
12.583456993103027,0.61,3.93,0.66,4.03
12.59092903137207,0.6,3.71,0.05,3.75
12.6008939743042,0.5,3.42,-0.23,3.46
12.610924005508423,0.33,3.89,-0.19,3.9
12.633147954940796,0.21,4.89,0.52,4.92
12.633580923080444,0.02,5.68,1.92,5.99
12.640936136245728,-0.28,6.04,3.03,6.76
12.650904893875122,-0.52,6.18,2.49,6.68
12.660984992980957,-0.92,5.89,0.25,5.96
12.683197021484375,-1.32,5.08,-2.37,5.75
12.683642148971558,-1.61,3.9,-4.07,5.86
12.690891981124878,-1.72,2.61,-4.47,5.45
12.70094895362854,-1.54,1.48,-3.89,4.43
12.711004972457886,-1.17,0.66,-2.79,3.09
12.733178853988647,-0.84,0.27,-1.61,1.83
12.733595132827759,-0.57,0.24,-0.54,0.82
12.740975141525269,-0.5,0.21,0.16,0.56
12.750902891159058,-0.52,0.14,0.35,0.64
12.761030912399292,-0.6,0.12,-0.06,0.61
12.783569097518921,-0.4,0.21,-0.72,0.85
12.784004926681519,-0.43,0.16,-1.11,1.2
12.79089093208313,-0.51,-0.1,-0.98,1.1
12.800978899002075,-0.47,-0.46,-0.59,0.88
12.811012983322144,-0.34,-0.96,-0.3,1.06
12.83390212059021,-0.33,-1.54,-0.23,1.59
12.834331035614014,-0.17,-2.08,-0.34,2.11
12.84103512763977,0.03,-2.56,-0.37,2.58
12.850978136062622,-0.02,-3.25,-0.27,3.26
12.861007928848267,0.1,-3.76,0.04,3.76
12.88333010673523,0.04,-4.25,0.28,4.25
12.883753061294556,-0.12,-4.69,0.36,4.7
12.890918016433716,-0.18,-4.85,0.23,4.85
12.900943994522095,-0.15,-4.91,-0.11,4.91
12.911026000976562,0.06,-4.8,-0.35,4.81
12.933557987213135,0.29,-4.63,-0.38,4.65
12.933984994888306,0.31,-4.43,-0.21,4.44
12.94094705581665,0.24,-4.28,0.12,4.28
12.950989007949829,0.1,-4.03,0.47,4.05
12.961179971694946,-0.19,-3.7,0.73,3.77
12.983668088912964,-0.48,-3.38,0.85,3.51
12.984111070632935,-0.53,-2.97,0.75,3.1
12.990999937057495,-0.46,-2.42,0.64,2.54
13.000959157943726,-0.43,-1.94,0.65,2.09
13.011027097702026,-0.44,-1.47,0.66,1.67
13.033169031143188,-0.54,-0.97,0.63,1.27
13.033591985702515,-0.44,-0.44,0.59,0.85
13.041017055511475,-0.4,0.23,0.39,0.6
13.050976037979126,-0.45,1.03,0.12,1.13
13.061040163040161,-0.41,1.76,0.18,1.81
13.08312201499939,-0.44,2.34,0.69,2.47
13.083538055419922,-0.5,2.82,1.5,3.23
13.091028928756714,-0.57,3.26,2.17,3.95
13.100967168807983,-0.74,3.61,2.4,4.39
13.111063003540039,-0.87,3.87,2.23,4.55
13.13353705406189,-1.01,3.86,1.74,4.35
13.133951902389526,-0.85,4.18,1.19,4.42
13.140998125076294,-0.27,4.94,0.71,4.99
13.150925874710083,0.38,6.08,0.38,6.1
13.161082029342651,0.79,7.15,0.37,7.2
13.183345079421997,1.26,7.93,0.62,8.05
13.183758020401001,1.57,8.2,0.32,8.35
13.190958023071289,1.57,7.53,-1.24,7.79
13.200926065444946,1.67,6.26,-3.27,7.25
13.21106505393982,1.57,4.51,-4.54,6.58
13.233381986618042,1.42,2.56,-4.62,5.46
13.233804941177368,1.47,0.73,-3.7,4.04
13.240987062454224,1.49,-0.87,-2.26,2.84
13.250931978225708,1.31,-1.88,-0.81,2.43
13.261093854904175,1.03,-2.33,0.16,2.55
13.28358507156372,0.82,-2.33,0.55,2.53
13.284012079238892,0.6,-2.02,0.39,2.14
13.291081190109253,0.68,-1.48,-0.17,1.63
13.30109715461731,0.53,-1.07,-0.71,1.38
13.311202049255371,0.3,-0.89,-1.15,1.48
13.333621978759766,0.19,-0.86,-1.19,1.48
13.334048986434937,-0.09,-1.2,-1.14,1.65
13.34113597869873,-0.18,-1.58,-1.13,1.95
13.35087513923645,-0.28,-2.11,-1.0,2.35
13.361066102981567,-0.46,-2.72,-0.71,2.84
13.383529901504517,-0.58,-3.2,-0.22,3.25
13.383949995040894,-0.74,-3.69,0.31,3.77
13.391103029251099,-0.89,-4.14,0.75,4.3
13.401068925857544,-0.89,-4.37,1.07,4.58
13.411079168319702,-0.69,-4.44,0.93,4.58
13.434128046035767,-0.5,-4.37,0.58,4.43
13.434563875198364,-0.36,-4.23,0.25,4.25
13.441120862960815,-0.16,-3.99,0.02,3.99
13.451135873794556,-0.08,-3.77,-0.04,3.77
13.46118712425232,0.04,-3.53,-0.02,3.53
13.484393835067749,0.13,-3.31,0.05,3.31
13.484812021255493,0.06,-3.15,0.14,3.15
13.491095066070557,0.04,-3.01,0.28,3.02
13.501142024993896,0.17,-2.85,0.55,2.9
13.511133909225464,0.19,-2.47,0.91,2.63
13.534574031829834,0.22,-2.19,1.17,2.49
13.534992933273315,0.38,-1.55,1.19,1.99
13.541157007217407,0.31,-1.02,1.05,1.49
13.550992012023926,0.27,-0.36,0.61,0.75
13.561218023300171,0.29,0.39,0.13,0.5
13.58422589302063,0.35,1.08,-0.13,1.14
13.584666967391968,0.29,1.58,0.04,1.6
13.591089963912964,0.33,2.03,0.74,2.18
13.601096868515015,0.49,2.54,1.64,3.06
13.611194849014282,0.5,2.97,2.33,3.8
13.634867906570435,0.58,3.28,2.34,4.07
13.635288000106812,0.72,3.46,1.58,3.87
13.641105890274048,0.76,3.35,0.4,3.45
13.651089906692505,0.75,3.27,-0.44,3.38
13.661224126815796,0.46,3.75,-0.63,3.83
13.684601068496704,-0.03,4.75,-0.03,4.75
13.685034990310669,-0.5,5.86,1.29,6.02
13.690963983535767,-0.9,6.62,2.29,7.06
13.70121693611145,-1.22,6.95,2.09,7.35
13.711139917373657,-1.66,6.81,0.19,7.01
13.734925031661987,-1.77,5.96,-2.91,6.86
13.73534607887268,-1.55,4.6,-5.77,7.54
13.741044998168945,-1.37,3.0,-7.2,7.91
13.751024961471558,-0.94,1.44,-6.8,7.01
13.761178016662598,-0.48,0.22,-4.67,4.69
13.784590005874634,-0.3,-0.4,-1.73,1.8
13.78501009941101,-0.36,-0.63,0.6,0.94
13.791014909744263,-0.44,-0.58,1.76,1.9
13.801092863082886,-0.6,-0.49,1.6,1.77
13.811131954193115,-0.68,-0.35,0.51,0.91
13.834961175918579,-0.48,-0.13,-0.71,0.86
13.835376024246216,-0.27,-0.09,-1.34,1.36
13.841102838516235,-0.1,-0.16,-1.33,1.34
13.851188898086548,0.0,-0.43,-1.04,1.12
13.861212015151978,0.21,-0.8,-0.83,1.17
13.885125875473022,0.35,-1.44,-0.72,1.64
13.885595083236694,0.4,-2.22,-0.54,2.31
13.891159057617188,0.38,-3.02,-0.1,3.04
13.901144027709961,0.13,-3.8,0.4,3.82
13.911201000213623,-0.06,-4.35,0.82,4.42
13.934885025024414,-0.15,-4.66,1.09,4.78
13.935306072235107,-0.12,-4.74,1.11,4.86
13.940988063812256,-0.12,-4.8,0.95,4.89
13.951210021972656,-0.04,-4.78,0.56,4.81
13.961199045181274,0.17,-4.65,0.24,4.65
13.985327005386353,0.21,-4.6,0.04,4.6
13.985713958740234,0.13,-4.51,0.04,4.51
13.990936040878296,-0.08,-4.29,0.24,4.29
14.001157999038696,-0.23,-3.99,0.53,4.03
14.011203050613403,-0.39,-3.62,0.77,3.72
14.035054922103882,-0.52,-3.21,0.83,3.35
14.03548789024353,-0.45,-2.72,0.69,2.84
14.04099702835083,-0.31,-2.22,0.6,2.32
14.05105996131897,-0.19,-1.74,0.56,1.83
14.061217069625854,-0.06,-1.22,0.57,1.34
14.085044145584106,0.01,-0.63,0.54,0.82
14.085467100143433,0.0,0.02,0.47,0.47
14.091147184371948,-0.01,0.82,0.46,0.94
14.101220846176147,-0.15,1.59,0.72,1.75
14.111248016357422,-0.26,2.33,1.24,2.65
14.135624170303345,-0.32,3.01,1.79,3.51
14.136044025421143,-0.37,3.65,2.07,4.21
14.141034841537476,-0.52,4.14,2.0,4.62
14.151072978973389,-0.75,4.27,1.76,4.67
14.161205053329468,-1.02,4.05,1.47,4.42
14.185978174209595,-1.0,3.78,1.34,4.13
14.18640398979187,-0.52,3.89,1.39,4.16
14.191190004348755,0.22,4.59,1.56,4.85
14.201220989227295,0.74,5.55,1.87,5.9
14.211239099502563,0.92,6.17,2.14,6.59
14.235438108444214,0.97,6.86,1.69,7.13
14.235854864120483,1.24,7.21,0.16,7.31
14.241039991378784,1.47,6.67,-2.13,7.15
14.251037836074829,1.47,5.32,-4.31,7.0
14.26126503944397,1.62,3.48,-5.42,6.64
14.285299062728882,1.55,1.63,-5.06,5.53
14.285721063613892,1.37,-0.23,-3.58,3.84
14.291121006011963,1.29,-1.53,-1.82,2.7
14.301228046417236,1.35,-2.13,-0.42,2.55
14.311414957046509,1.16,-2.31,0.45,2.62
14.335628032684326,0.82,-2.35,0.73,2.59
14.33605694770813,0.63,-2.13,0.52,2.28
14.341304063796997,0.47,-1.67,0.03,1.73
14.351228952407837,0.32,-1.23,-0.3,1.3
14.361330032348633,0.26,-0.96,-0.42,1.07
14.38607406616211,0.22,-0.87,-0.58,1.06
14.386523962020874,0.14,-1.09,-0.92,1.43
14.391134023666382,0.05,-1.42,-1.25,1.89
14.40124797821045,-0.05,-1.78,-1.39,2.25
14.411287069320679,-0.3,-2.31,-1.2,2.62
14.436450958251953,-0.45,-2.76,-0.69,2.88
14.436872959136963,-0.76,-3.26,0.03,3.34
14.441273927688599,-1.01,-3.8,0.57,3.97
14.451244115829468,-0.82,-4.09,0.9,4.26
14.461254835128784,-0.53,-4.16,0.9,4.28
14.486379861831665,-0.39,-4.32,0.73,4.39
14.486830949783325,-0.22,-4.34,0.45,4.36
14.491127014160156,-0.15,-4.27,0.16,4.27
14.501306056976318,-0.25,-4.05,-0.02,4.05
14.51132607460022,-0.35,-3.72,-0.01,3.73
14.536028146743774,-0.39,-3.29,0.12,3.31
14.536470174789429,-0.44,-2.9,0.26,2.94
14.541218042373657,-0.38,-2.56,0.36,2.61
14.551296949386597,-0.24,-2.2,0.44,2.25
14.561370134353638,-0.08,-1.79,0.56,1.87
14.5863778591156,0.04,-1.34,0.74,1.53
14.586802959442139,0.13,-1.01,0.8,1.29
14.591338872909546,0.35,-0.46,0.58,0.81
14.601348161697388,0.58,0.13,0.23,0.63
14.61130690574646,0.83,0.91,-0.06,1.23
14.636734962463379,0.86,1.49,0.12,1.72
14.637151002883911,0.81,1.93,0.77,2.23
14.641283988952637,0.68,2.46,1.54,2.98
14.651252031326294,0.32,2.85,1.99,3.49
14.661295175552368,0.07,3.13,1.72,3.57
14.686881065368652,0.04,3.37,1.11,3.54
14.687296152114868,0.05,3.15,0.49,3.18
14.691329002380371,0.24,3.17,0.07,3.17
14.70130705833435,0.41,3.87,-0.09,3.89
14.71133303642273,0.32,4.85,0.39,4.87
14.736972093582153,0.12,5.99,1.46,6.16
14.737406015396118,-0.13,6.86,2.23,7.21
14.741209983825684,-0.44,7.32,1.6,7.5
14.751317024230957,-0.85,7.06,-0.52,7.12
14.761369943618774,-1.22,5.85,-3.14,6.75
14.771302938461304,-1.56,4.26,-4.99,6.74
14.78728985786438,-1.74,2.67,-5.39,6.26
14.79131007194519,-1.5,1.35,-4.42,4.85
14.801362037658691,-1.18,0.41,-2.74,3.01
14.811474084854126,-0.89,0.01,-1.23,1.51
14.821407079696655,-0.75,-0.03,-0.25,0.79
14.837555170059204,-0.66,0.07,0.09,0.66
14.841369867324829,-0.73,0.12,-0.08,0.74
14.851280927658081,-0.73,0.21,-0.6,0.96
14.861346006393433,-0.59,0.22,-1.1,1.26
14.871302843093872,-0.53,0.04,-1.15,1.26
14.887382984161377,-0.33,-0.29,-0.81,0.92
14.891390085220337,-0.14,-0.83,-0.43,0.94
14.901312112808228,0.22,-1.42,-0.22,1.45
14.911504983901978,0.48,-1.96,-0.3,2.04
14.921318054199219,0.42,-2.74,-0.36,2.79
14.936300992965698,0.38,-3.31,-0.3,3.34
14.941320180892944,0.23,-3.77,-0.12,3.77
14.95125412940979,0.19,-4.21,0.08,4.21
14.961375951766968,0.25,-4.52,0.27,4.53
14.971333980560303,0.18,-4.74,0.23,4.74
14.986314058303833,0.14,-4.94,0.04,4.94
14.991294145584106,0.05,-5.06,-0.14,5.06
15.00135588645935,-0.09,-5.09,-0.19,5.09
15.011315107345581,-0.19,-4.92,-0.14,4.92
15.021327018737793,-0.15,-4.63,0.09,4.63
15.036288976669312,-0.16,-4.37,0.45,4.39
15.041384935379028,-0.14,-4.14,0.75,4.2
15.051267862319946,-0.07,-3.82,0.8,3.9
15.061470985412598,-0.09,-3.52,0.68,3.58
15.071293115615845,-0.15,-3.15,0.45,3.18
15.086498975753784,-0.13,-2.66,0.29,2.67
15.091279983520508,-0.04,-2.12,0.31,2.14
15.101292848587036,0.01,-1.63,0.49,1.7
15.111377954483032,0.03,-1.09,0.72,1.3
15.121372938156128,-0.01,-0.46,0.74,0.87
15.136633157730103,-0.06,0.36,0.62,0.71
15.141350984573364,-0.15,1.16,0.59,1.31
15.151335000991821,-0.26,1.93,0.9,2.14
15.161422967910767,-0.21,2.67,1.6,3.11
15.171333074569702,-0.22,3.35,2.38,4.11
15.186769962310791,-0.27,3.86,2.99,4.89
15.191438913345337,-0.65,4.0,3.16,5.13
15.201381921768188,-1.15,3.76,2.61,4.71
15.211456060409546,-1.08,3.98,1.69,4.45
15.221413850784302,-0.71,4.75,0.98,4.9
15.23688292503357,-0.06,6.08,0.81,6.13
15.241628885269165,0.57,7.32,1.37,7.46
15.251526117324829,0.93,8.23,2.06,8.53
15.261437177658081,1.17,8.79,1.66,9.02
15.271322965621948,1.33,8.56,-0.52,8.67
15.286962985992432,1.4,7.37,-3.52,8.28
15.291363954544067,1.23,5.38,-5.81,8.01
15.301323175430298,0.98,3.08,-6.19,6.98
15.31138801574707,0.84,0.82,-4.82,4.96
15.321347951889038,0.85,-0.95,-2.72,3.0
15.336467981338501,0.79,-2.03,-0.89,2.35
15.341372013092041,0.77,-2.23,0.15,2.36
15.35135006904602,0.84,-1.82,0.5,2.06
15.361474990844727,0.95,-1.46,0.44,1.79
15.371442079544067,0.97,-1.13,0.16,1.49
15.38686203956604,0.87,-0.83,-0.3,1.23
15.391391038894653,0.66,-0.68,-0.87,1.28
15.401403188705444,0.52,-0.64,-1.35,1.58
15.411478996276855,0.3,-0.87,-1.43,1.7
15.421385049819946,0.0,-1.43,-1.24,1.89
15.43675684928894,-0.14,-2.09,-0.88,2.27
15.441269159317017,-0.34,-2.77,-0.44,2.82
15.45150113105774,-0.58,-3.44,0.14,3.49
15.46142315864563,-1.01,-4.06,0.66,4.23
15.47152590751648,-1.23,-4.47,0.81,4.7
15.486418008804321,-1.25,-4.61,0.56,4.8
15.491720914840698,-1.09,-4.61,0.21,4.74
15.501394033432007,-0.89,-4.47,-0.07,4.55
15.511406183242798,-0.8,-4.28,-0.13,4.35
15.521487951278687,-0.75,-4.12,-0.01,4.18
15.536751985549927,-0.71,-3.92,0.28,3.99
15.541477918624878,-0.67,-3.76,0.62,3.86
15.55140995979309,-0.55,-3.5,0.8,3.63
15.561487913131714,-0.46,-3.32,0.82,3.45
15.571424961090088,-0.32,-3.07,0.61,3.14
15.586716890335083,-0.27,-2.65,0.36,2.68
15.591279983520508,-0.33,-2.33,0.09,2.35
15.601389169692993,-0.14,-1.79,-0.01,1.79
15.611521005630493,0.22,-1.15,0.32,1.21
15.621445894241333,0.43,-0.83,0.9,1.29
15.637131929397583,0.57,-0.46,1.1,1.32
15.641524076461792,0.8,0.07,0.73,1.08
15.651421070098877,0.85,0.64,0.44,1.15
15.661570072174072,0.65,1.15,0.56,1.43
15.671525001525879,0.63,1.75,1.07,2.14
15.687698125839233,0.37,2.17,1.86,2.88
15.691416025161743,0.21,2.79,2.26,3.59
15.701491117477417,0.16,3.33,2.12,3.95
15.711529016494751,0.21,3.59,1.5,3.89
15.721529006958008,0.32,3.62,0.47,3.66
15.7378671169281,0.34,3.78,-0.55,3.83
15.741502046585083,0.42,4.43,-0.85,4.53
15.752058982849121,0.37,5.48,-0.09,5.49
15.761490106582642,0.27,6.27,1.43,6.43
15.771517992019653,0.03,6.73,2.61,7.21
15.787636041641235,-0.2,6.83,2.11,7.15
15.791506052017212,-0.57,6.58,-0.17,6.6
15.801438093185425,-1.06,5.52,-3.06,6.39
15.811569929122925,-1.53,4.0,-5.16,6.7
15.821542024612427,-1.79,2.42,-5.83,6.56
15.837378978729248,-1.7,0.85,-4.72,5.08
15.841549158096313,-1.33,-0.27,-2.56,2.89
15.851521968841553,-0.94,-0.71,-0.51,1.28
15.861566066741943,-0.73,-0.66,0.69,1.2
15.871530055999756,-0.84,-0.6,0.95,1.4
15.88797402381897,-1.09,-0.71,0.58,1.42
15.891329050064087,-1.12,-0.72,-0.27,1.35
15.901583909988403,-0.88,-0.59,-1.13,1.54
15.911638021469116,-0.74,-0.58,-1.42,1.7
15.921581029891968,-0.65,-0.68,-1.03,1.39
15.938091039657593,-0.37,-0.96,-0.44,1.11
15.94148302078247,-0.02,-1.37,-0.06,1.37
15.951596975326538,0.18,-2.04,0.02,2.04
15.961649179458618,0.49,-2.57,-0.07,2.61
15.971554040908813,0.45,-3.22,0.03,3.25
15.988286972045898,0.29,-3.86,0.21,3.87
15.991521120071411,0.2,-4.26,0.3,4.27
16.001702070236206,0.1,-4.6,0.34,4.61
16.011936902999878,-0.1,-4.66,0.34,4.67
16.02151083946228,-0.15,-4.7,0.32,4.71
16.03700613975525,-0.14,-4.53,0.24,4.53
16.041409015655518,-0.06,-4.42,0.28,4.42
16.051506996154785,-0.02,-4.29,0.39,4.3
16.061578035354614,0.04,-4.16,0.51,4.19
16.07151198387146,0.06,-3.94,0.64,3.99
16.08678412437439,-0.08,-3.7,0.78,3.78
16.09139895439148,-0.3,-3.43,0.84,3.54
16.101664066314697,-0.4,-3.02,0.77,3.14
16.111937046051025,-0.42,-2.49,0.62,2.6
16.121540069580078,-0.43,-1.9,0.62,2.04
16.137505054473877,-0.34,-1.32,0.82,1.59
16.14139699935913,-0.22,-0.78,1.01,1.29
16.151447057724,-0.02,-0.08,0.91,0.91
16.16164994239807,0.01,0.75,0.5,0.9
16.17143702507019,-0.15,1.66,0.2,1.67
16.186693906784058,-0.32,2.49,0.43,2.54
16.191495180130005,-0.43,3.21,1.0,3.38
16.201523065567017,-0.67,3.69,1.53,4.05
16.211541891098022,-0.8,4.28,1.48,4.59
16.221641063690186,-1.05,4.52,1.05,4.75
16.236844062805176,-1.48,4.22,0.66,4.52
16.241402864456177,-1.5,3.82,0.49,4.13
16.251381158828735,-1.02,3.74,0.58,3.91
16.261715173721313,-0.08,4.5,0.95,4.59
16.27157998085022,0.39,5.65,1.58,5.87
16.287019968032837,0.67,6.63,2.52,7.12
16.291476011276245,0.85,7.43,2.77,7.97
16.301594018936157,0.93,7.71,1.22,7.86
16.311836004257202,1.11,7.24,-1.7,7.51
16.321643114089966,1.32,5.9,-4.42,7.48
16.33798384666443,1.6,4.08,-5.92,7.36
16.341530084609985,1.78,1.99,-5.85,6.43
16.35155987739563,1.74,0.08,-4.3,4.63
16.361657857894897,1.45,-1.31,-2.22,2.95
16.371518850326538,1.09,-2.05,-0.52,2.37
16.387727975845337,0.8,-2.33,0.41,2.49
16.391424894332886,0.62,-2.23,0.82,2.45
16.401635885238647,0.66,-1.92,0.81,2.18
16.415484189987183,0.6,-1.45,0.4,1.61
16.439400911331177,0.47,-1.12,-0.06,1.21
16.439821004867554,0.29,-1.01,-0.41,1.12
16.445536851882935,0.08,-1.13,-0.57,1.26
16.45542001724243,0.05,-1.28,-0.62,1.42
16.46549105644226,-0.09,-1.64,-0.73,1.79
16.48865008354187,-0.18,-2.13,-0.68,2.24
16.48906683921814,-0.29,-2.57,-0.44,2.62
16.495362997055054,-0.61,-3.14,-0.06,3.19
16.505419969558716,-0.8,-3.57,0.24,3.66
16.515462160110474,-0.84,-3.87,0.43,3.98
16.538450956344604,-0.84,-4.12,0.4,4.22
16.538876056671143,-0.81,-4.22,0.29,4.3
16.545412063598633,-0.74,-4.24,0.3,4.31
16.5553719997406,-0.64,-4.17,0.32,4.23
16.56553602218628,-0.6,-4.07,0.23,4.12
16.588731050491333,-0.64,-3.92,0.07,3.97
16.58915686607361,-0.71,-3.69,0.03,3.75
16.59537696838379,-0.57,-3.47,0.19,3.52
16.605411052703857,-0.4,-3.17,0.5,3.23
16.615451097488403,-0.32,-2.9,0.75,3.01
16.63891291618347,-0.04,-2.64,0.85,2.77
16.639348030090332,0.19,-2.29,0.86,2.45
16.645428895950317,0.28,-2.04,0.8,2.2
16.65543293952942,0.34,-1.73,0.67,1.88
16.66560196876526,0.29,-1.26,0.31,1.32
16.68898892402649,0.28,-0.7,-0.11,0.76
16.689411878585815,0.46,0.1,-0.32,0.56
16.695329904556274,0.7,0.86,-0.05,1.1
16.705451011657715,0.76,1.49,0.63,1.78
16.71549916267395,0.73,2.15,1.41,2.67
16.73838996887207,0.76,2.89,2.07,3.63
16.738797903060913,0.8,3.47,2.3,4.23
16.745394945144653,0.94,3.71,1.93,4.28
16.75543713569641,1.1,3.56,1.07,3.87
16.765583992004395,1.03,3.27,0.13,3.43
16.789581060409546,0.67,4.01,-0.45,4.09
16.790004014968872,0.63,5.22,-0.21,5.26
16.795315980911255,0.48,6.36,0.97,6.45
16.80543804168701,0.1,7.28,2.48,7.69
16.815470933914185,-0.49,7.56,2.93,8.12
16.83902907371521,-1.07,7.27,1.45,7.49
16.839452028274536,-1.22,6.28,-1.58,6.58
16.845532178878784,-1.23,4.73,-4.46,6.61
16.85545516014099,-1.42,2.9,-5.85,6.68
16.865544080734253,-1.34,1.21,-5.82,6.09
16.88878607749939,-1.07,-0.16,-4.78,4.9
16.889196157455444,-0.92,-0.9,-3.01,3.27
16.895414113998413,-0.94,-1.11,-1.12,1.83
16.905526876449585,-0.94,-1.03,0.3,1.42
16.915492057800293,-0.93,-1.05,1.11,1.78
16.94018816947937,-1.22,-1.03,1.16,1.97
16.94066309928894,-1.41,-0.71,0.63,1.69
16.945486068725586,-1.32,-0.51,0.0,1.41
16.955368995666504,-1.1,-0.56,-0.33,1.27
16.96557593345642,-0.8,-0.67,-0.33,1.09
16.989289045333862,-0.43,-0.98,-0.28,1.1
16.989765882492065,0.13,-1.29,-0.43,1.36
16.995641946792603,0.5,-1.74,-0.58,1.9
17.005449056625366,0.69,-2.28,-0.53,2.44
17.01555609703064,0.75,-2.81,-0.3,2.92
17.039098978042603,0.6,-3.17,0.04,3.22
17.039520978927612,0.16,-3.68,0.33,3.69
17.045505046844482,-0.06,-4.03,0.54,4.06
17.055393934249878,-0.2,-4.3,0.53,4.33
17.06557297706604,-0.16,-4.46,0.38,4.47
17.089525938034058,-0.11,-4.53,0.18,4.53
17.089937925338745,-0.1,-4.47,0.04,4.47
17.09541392326355,-0.11,-4.29,0.07,4.29
17.10543704032898,-0.22,-3.99,0.29,4.0
17.115538835525513,-0.36,-3.61,0.6,3.67
17.139847993850708,-0.45,-3.2,0.88,3.34
17.140258073806763,-0.39,-2.86,1.03,3.06
17.1454918384552,-0.26,-2.55,1.04,2.76
17.15550398826599,-0.18,-2.2,0.96,2.4
17.165695905685425,-0.12,-1.72,0.85,1.92
17.190058946609497,-0.21,-1.23,0.79,1.47
17.190489053726196,-0.33,-0.74,0.65,1.03
17.195430994033813,-0.41,-0.2,0.41,0.61
17.205420970916748,-0.49,0.44,0.3,0.72
17.21550488471985,-0.53,1.08,0.55,1.32
17.240355968475342,-0.5,1.66,1.1,2.05
17.240787029266357,-0.35,2.24,1.75,2.86
17.245504140853882,-0.26,2.89,2.14,3.6
17.255521059036255,-0.26,3.5,2.19,4.13
17.26563000679016,-0.42,3.76,1.88,4.22
17.290309190750122,-0.62,3.68,1.48,4.01
17.290735960006714,-0.39,3.77,1.12,3.95
17.29542088508606,0.36,4.56,0.77,4.63
17.30550789833069,0.98,6.03,0.8,6.16
17.31559109687805,1.24,7.41,1.56,7.67
17.340116024017334,1.14,8.35,2.31,8.73
17.3405339717865,1.19,8.95,1.52,9.15
17.345547914505005,1.4,8.58,-1.19,8.77
17.355511903762817,1.79,7.1,-4.61,8.65
17.365648984909058,2.05,4.71,-6.85,8.56
17.390612840652466,2.36,1.97,-7.25,7.87
17.391036987304688,2.48,-0.63,-5.74,6.28
17.3956401348114,1.91,-2.07,-3.11,4.19
17.40555500984192,1.3,-2.54,-0.48,2.89
17.415579080581665,0.57,-2.37,1.35,2.78
17.440737009048462,0.31,-1.98,2.03,2.85
17.44116187095642,0.46,-1.39,1.65,2.2
17.445654153823853,0.54,-0.97,0.7,1.31
17.455597162246704,0.29,-0.75,-0.47,0.93
17.4656400680542,0.17,-0.7,-1.23,1.42
17.49065899848938,-0.14,-0.95,-1.36,1.66
17.49109387397766,-0.49,-1.3,-1.16,1.8
17.49548888206482,-0.83,-1.87,-0.95,2.25
17.505593061447144,-1.15,-2.46,-0.9,2.86
17.515625,-1.18,-2.99,-0.76,3.3
17.540919065475464,-0.97,-3.47,-0.43,3.62
17.54141902923584,-0.7,-3.88,0.1,3.94
17.545643091201782,-0.34,-4.17,0.59,4.22
17.555493116378784,-0.14,-4.17,0.69,4.22
17.565701007843018,-0.15,-4.13,0.6,4.17
17.57554006576538,-0.38,-4.16,0.4,4.19
17.59145998954773,-0.68,-4.18,0.19,4.23
17.595649003982544,-0.9,-4.23,0.06,4.32
17.605632066726685,-0.93,-4.26,0.1,4.36
17.615633964538574,-0.69,-4.02,0.28,4.08
17.625581979751587,-0.49,-3.68,0.56,3.75
17.641314029693604,-0.24,-3.28,0.82,3.38
17.645498991012573,0.06,-2.81,0.85,2.93
17.655504941940308,0.33,-2.32,0.73,2.45
17.66570806503296,0.64,-1.89,0.74,2.12
17.675573110580444,0.85,-1.53,0.82,1.93
17.691166162490845,1.02,-1.15,0.8,1.73
17.695637941360474,0.9,-0.78,0.58,1.32
17.70564293861389,0.69,-0.29,0.24,0.78
17.715759992599487,0.41,0.27,-0.15,0.51
17.725629091262817,0.44,0.93,-0.17,1.04
17.74087691307068,0.4,1.53,0.38,1.62
17.745512008666992,0.3,1.89,1.23,2.27
17.755558013916016,0.32,2.39,1.82,3.02
17.765688180923462,0.55,2.9,1.92,3.52
17.77553915977478,0.82,3.11,1.59,3.58
17.790333032608032,0.98,2.95,1.06,3.28
17.795539140701294,1.14,2.72,0.47,2.98
17.805629014968872,1.08,2.94,-0.02,3.13
17.81564998626709,0.9,4.02,-0.23,4.12
17.825641870498657,0.84,5.75,-0.14,5.81
17.840816974639893,0.61,7.4,0.77,7.46
17.845623016357422,0.02,8.34,1.94,8.56
17.855623960494995,-0.52,8.48,1.74,8.67
17.865841150283813,-1.02,7.61,-0.72,7.71
17.875638008117676,-1.11,6.03,-4.33,7.5
17.891209840774536,-1.04,4.12,-7.19,8.35
17.895703077316284,-0.82,1.99,-7.8,8.09
17.90575098991394,-0.54,0.21,-5.85,5.87
17.915695905685425,-0.54,-0.95,-2.56,2.78
17.925726175308228,-0.71,-1.37,0.33,1.57
17.941744089126587,-0.93,-1.23,1.85,2.4
17.945740938186646,-1.14,-0.84,1.87,2.34
17.955651998519897,-1.07,-0.38,0.79,1.38
17.96585488319397,-0.83,-0.04,-0.61,1.03
17.97565197944641,-0.6,-0.11,-1.41,1.53
17.99234104156494,-0.36,-0.37,-1.3,1.39
17.995754957199097,0.02,-0.78,-0.72,1.06
18.005712032318115,0.4,-1.17,-0.26,1.26
18.01579785346985,0.67,-1.7,-0.08,1.82
18.025667905807495,0.76,-2.33,-0.06,2.45
18.04201102256775,0.68,-2.96,-0.04,3.03
18.045570135116577,0.4,-3.55,0.05,3.57
18.055640935897827,0.21,-3.98,0.18,3.98
18.065757989883423,0.07,-4.28,0.33,4.29
18.075623989105225,0.06,-4.48,0.49,4.5
18.092201948165894,0.15,-4.47,0.55,4.5
18.095558881759644,0.18,-4.55,0.42,4.57
18.105612993240356,0.14,-4.59,0.25,4.59
18.11576199531555,0.09,-4.55,0.19,4.55
18.125678062438965,0.07,-4.41,0.23,4.41
18.141175031661987,-0.09,-4.18,0.36,4.19
18.145641088485718,-0.32,-3.83,0.44,3.86
18.15562415122986,-0.39,-3.46,0.52,3.52
18.165712118148804,-0.22,-3.19,0.65,3.26
18.175660848617554,-0.14,-2.86,0.69,2.94
18.19179105758667,-0.18,-2.57,0.73,2.67
18.195614099502563,-0.19,-2.2,0.73,2.32
18.205749988555908,-0.3,-1.87,0.71,2.02
18.215789079666138,-0.42,-1.45,0.56,1.61
18.225669145584106,-0.33,-0.85,0.22,0.93
18.241565942764282,-0.25,-0.08,-0.13,0.29
18.24558711051941,-0.17,0.72,0.09,0.74
18.255702018737793,-0.28,1.42,1.03,1.77
18.265806913375854,-0.4,2.21,2.08,3.06
18.27565312385559,-0.36,3.09,2.55,4.02
18.291524171829224,-0.34,3.97,2.31,4.6
18.295613050460815,-0.57,4.64,1.72,4.98
18.305708169937134,-0.89,4.64,1.3,4.9
18.31575083732605,-1.06,4.19,1.19,4.48
18.325743913650513,-0.86,3.84,1.2,4.11
18.34192395210266,0.0,4.39,0.99,4.5
18.345815896987915,0.76,5.55,0.85,5.66
18.355733156204224,1.05,6.59,1.59,6.85
18.365748167037964,1.13,7.45,2.37,7.89
18.375720977783203,1.1,8.24,1.72,8.48
18.39191699028015,0.97,8.29,-0.68,8.37
18.395750999450684,1.0,7.19,-3.66,8.12
18.405872106552124,1.25,5.13,-6.02,8.0
18.415842056274414,1.45,2.76,-6.59,7.29
18.425817012786865,1.4,0.39,-5.37,5.56
18.443016052246094,1.14,-1.57,-3.09,3.64
18.445850133895874,0.74,-2.84,-0.98,3.09
18.455744981765747,0.39,-3.17,0.22,3.2
18.46584916114807,0.35,-3.0,0.63,3.08
18.475838899612427,0.43,-2.55,0.57,2.64
18.49294114112854,0.58,-1.95,0.36,2.06
18.495869874954224,0.51,-1.3,-0.08,1.39
18.505829095840454,0.41,-0.67,-0.45,0.9
18.51592707633972,0.24,-0.33,-0.49,0.63
18.52593207359314,-0.06,-0.35,-0.44,0.56
18.542548894882202,-0.12,-0.6,-0.64,0.88
18.54570198059082,-0.12,-1.08,-0.9,1.41
18.55582308769226,-0.18,-1.76,-0.93,1.99
18.565886974334717,-0.21,-2.4,-0.76,2.52
18.57583498954773,-0.34,-3.02,-0.16,3.04
18.59239888191223,-0.61,-3.63,0.3,3.69
18.595667123794556,-0.52,-3.92,0.58,3.99
18.605769872665405,-0.53,-4.09,0.62,4.17
18.61585783958435,-0.62,-4.14,0.44,4.2
18.625920057296753,-0.63,-4.05,0.25,4.1
18.642038106918335,-0.66,-3.94,0.05,3.99
18.64570116996765,-0.78,-3.87,-0.06,3.94
18.65574288368225,-0.73,-3.67,0.06,3.74
18.665865182876587,-0.63,-3.44,0.36,3.51
18.675827980041504,-0.47,-3.22,0.53,3.29
18.692535161972046,-0.31,-2.87,0.52,2.93
18.695675134658813,-0.18,-2.66,0.44,2.7
18.70580005645752,0.05,-2.21,0.38,2.24
18.71586799621582,0.07,-1.88,0.43,1.92
18.72581195831299,0.22,-1.53,0.57,1.64
18.742997884750366,0.22,-1.42,0.74,1.61
18.745815992355347,0.31,-1.26,0.63,1.44
18.75584602355957,0.6,-0.82,0.23,1.04
18.76588201522827,0.59,-0.34,-0.13,0.69
18.77581000328064,0.63,0.38,-0.06,0.73
18.793169021606445,0.56,0.98,0.64,1.29
18.795871019363403,0.6,1.59,1.53,2.28
18.8057279586792,0.56,2.2,2.03,3.04
18.81584596633911,0.57,2.68,1.86,3.31
18.825809001922607,0.63,2.79,1.45,3.2
18.843064069747925,0.51,2.69,1.02,2.92
18.845618963241577,0.33,2.65,0.51,2.71
18.855693101882935,0.18,3.42,0.1,3.42
18.865859031677246,0.11,4.98,0.08,4.98
18.87576985359192,0.31,6.46,0.91,6.53
18.89309811592102,0.45,7.49,2.38,7.87
18.895670175552368,0.31,7.92,2.95,8.45
18.905883073806763,0.1,7.75,1.47,7.88
18.915859937667847,-0.36,7.07,-1.88,7.32
18.92579698562622,-0.85,5.61,-5.13,7.64
18.943488836288452,-1.26,4.01,-7.08,8.23
18.945611000061035,-1.56,2.4,-7.01,7.57
18.955886125564575,-1.51,0.98,-5.14,5.44
18.96594500541687,-1.29,-0.01,-2.6,2.9
18.97585701942444,-0.97,-0.22,-0.57,1.14
18.993417024612427,-0.82,-0.13,0.58,1.01
18.995985984802246,-0.91,-0.07,0.96,1.32
19.005854845046997,-1.19,-0.2,0.73,1.41
19.01565718650818,-1.36,-0.34,-0.06,1.4
19.02587914466858,-1.1,-0.35,-1.04,1.55
19.043543100357056,-0.84,-0.53,-1.54,1.83
19.045719861984253,-0.69,-0.97,-1.38,1.82
19.055824041366577,-0.43,-1.52,-0.88,1.8
19.06591010093689,-0.17,-2.13,-0.47,2.18
19.075938940048218,0.15,-2.66,-0.18,2.67
19.09355092048645,0.21,-3.22,0.17,3.23
19.095783948898315,0.12,-3.71,0.56,3.75
19.106000185012817,0.04,-4.13,0.77,4.2
19.115983963012695,0.01,-4.37,0.78,4.43
19.12588095664978,0.01,-4.51,0.76,4.57
19.143152952194214,-0.05,-4.57,0.67,4.61
19.145742177963257,-0.07,-4.63,0.5,4.65
19.155941009521484,-0.07,-4.66,0.38,4.67
19.16604995727539,-0.02,-4.59,0.29,4.59
19.17579197883606,-0.04,-4.46,0.3,4.47
19.193544149398804,-0.14,-4.26,0.39,4.28
19.195974111557007,-0.18,-3.9,0.59,3.94
19.205940008163452,-0.22,-3.45,0.71,3.52
19.215906858444214,-0.37,-2.97,0.88,3.11
19.225954055786133,-0.47,-2.63,1.01,2.85
19.243659019470215,-0.51,-2.24,0.97,2.49
19.246158838272095,-0.53,-1.84,0.7,2.03
19.256109952926636,-0.52,-1.58,0.31,1.69
19.266034841537476,-0.44,-1.41,-0.18,1.48
19.2759211063385,-0.38,-1.09,-0.62,1.31
19.28984498977661,-0.26,-0.65,-0.73,1.01
19.296043157577515,-0.21,0.01,-0.32,0.38
19.306097984313965,-0.13,0.73,0.48,0.88
19.315964937210083,0.02,1.52,1.39,2.05
19.32584500312805,0.11,2.27,2.12,3.1
19.33871102333069,0.12,2.94,2.33,3.75
19.34585404396057,-0.07,3.49,2.04,4.04
19.355772018432617,-0.45,3.68,1.47,3.98
19.365856885910034,-0.88,3.61,0.87,3.81
19.375750064849854,-1.07,3.44,0.29,3.61
19.392232179641724,-0.49,3.91,-0.12,3.94
19.396074056625366,0.17,4.95,0.05,4.95
19.40628218650818,0.47,6.24,0.95,6.32
19.416093111038208,0.72,7.42,2.25,7.78
19.42622208595276,1.05,8.23,2.63,8.7
19.445418119430542,1.06,8.38,1.0,8.5
19.446626901626587,1.1,7.62,-2.29,8.03
19.456055879592896,1.32,6.1,-5.3,8.18
19.465980052947998,1.62,4.05,-6.5,7.82
19.476011037826538,1.66,1.78,-5.46,5.97
19.496379137039185,1.62,-0.17,-3.22,3.6
19.49750804901123,1.31,-1.46,-1.17,2.28
19.50588583946228,0.82,-1.93,-0.14,2.1
19.51580786705017,0.6,-1.73,0.01,1.83
19.525819063186646,0.68,-1.23,-0.17,1.41
19.54486918449402,0.96,-0.93,0.01,1.33
19.545865058898926,0.88,-0.81,0.24,1.21
19.555959939956665,0.61,-0.66,0.13,0.9
19.56581711769104,0.36,-0.45,-0.2,0.61
19.575942993164062,0.15,-0.54,-0.39,0.68
19.59542202949524,0.06,-0.9,-0.44,1.0
19.59599995613098,-0.03,-1.54,-0.53,1.62
19.605977058410645,-0.12,-2.29,-0.7,2.39
19.615942001342773,0.03,-2.98,-0.7,3.06
19.626019954681396,-0.12,-3.6,-0.43,3.62
19.64458703994751,-0.33,-4.07,0.18,4.08
19.645781993865967,-0.51,-4.33,0.49,4.38
19.655956029891968,-0.44,-4.3,0.51,4.35
19.66593098640442,-0.41,-4.12,0.45,4.16
19.6759250164032,-0.51,-4.05,0.38,4.09
19.69550895690918,-0.66,-3.88,0.37,3.95
19.695950031280518,-0.75,-3.76,0.29,3.84
19.70621085166931,-0.7,-3.6,0.0,3.66
19.715909957885742,-0.63,-3.36,-0.25,3.42
19.72603487968445,-0.53,-3.18,-0.36,3.24
19.74489188194275,-0.34,-2.97,-0.16,2.99
19.745949029922485,-0.15,-2.78,0.17,2.78
19.75604796409607,0.04,-2.62,0.49,2.66
19.76593804359436,0.16,-2.46,0.67,2.55
19.776077032089233,0.26,-2.12,0.65,2.23
19.794545888900757,0.41,-1.7,0.6,1.84
19.795910120010376,0.41,-1.29,0.6,1.48
19.806090116500854,0.48,-0.72,0.44,0.97
19.815953016281128,0.63,-0.07,0.21,0.66
19.826071977615356,0.73,0.63,0.2,0.98
19.844682931900024,0.66,1.15,0.5,1.41
19.84598994255066,0.59,1.62,0.98,1.98
19.856019973754883,0.63,2.1,1.52,2.66
19.86595106124878,0.48,2.62,1.85,3.24
19.876109838485718,0.31,2.92,1.79,3.43
19.894613027572632,0.38,3.12,1.47,3.46
19.895949125289917,0.51,3.09,0.91,3.26
19.906057119369507,0.6,3.02,0.37,3.1
19.915980100631714,0.73,3.47,0.09,3.54
19.926084995269775,0.82,4.63,0.36,4.71
19.94523787498474,0.73,6.13,1.2,6.28
19.9458589553833,0.53,7.19,2.17,7.52
19.956094980239868,0.21,7.52,2.22,7.84
19.965874910354614,-0.06,7.17,0.47,7.18
19.97602105140686,-0.59,6.31,-2.46,6.79
19.99520707130432,-1.2,4.6,-5.12,6.98
19.995913982391357,-1.67,2.85,-6.28,7.09
20.006101846694946,-1.88,1.27,-5.49,5.94
20.01217818260193,-1.81,-0.08,-3.3,3.76
20.026810884475708,-1.49,-0.87,-1.01,1.99
20.032269954681396,-1.15,-0.9,0.34,1.49
20.04228401184082,-0.98,-0.34,0.54,1.16
20.052243947982788,-0.86,0.11,0.18,0.88
20.062433004379272,-0.82,0.01,-0.24,0.85
20.07724118232727,-0.6,-0.14,-0.72,0.94
20.08220100402832,-0.34,-0.27,-1.01,1.09
20.09222102165222,-0.25,-0.46,-1.1,1.21
20.102375030517578,-0.15,-0.71,-1.04,1.26
20.11231303215027,0.02,-1.02,-0.81,1.3
20.127758979797363,0.2,-1.4,-0.49,1.49
20.132297039031982,0.32,-1.89,-0.2,1.92
20.142232179641724,0.51,-2.41,0.02,2.46
20.152270078659058,0.56,-2.97,0.15,3.02
20.162342071533203,0.58,-3.31,0.14,3.36
20.17745304107666,0.43,-3.57,0.28,3.6
20.18220806121826,0.17,-3.71,0.31,3.72
20.192301988601685,-0.02,-3.82,0.29,3.83
20.20246195793152,-0.19,-3.88,0.19,3.88
20.21234703063965,-0.24,-3.91,0.0,3.91
20.227882146835327,-0.2,-3.87,-0.12,3.87
20.23224711418152,-0.18,-3.76,-0.11,3.76
20.242482900619507,-0.13,-3.56,0.1,3.56
20.25242805480957,-0.12,-3.31,0.42,3.33
20.26276993751526,-0.26,-3.18,0.68,3.26
20.27832007408142,-0.33,-3.02,0.82,3.14
20.282203912734985,-0.34,-2.87,0.79,2.99
20.292361974716187,-0.39,-2.74,0.61,2.83
20.302608966827393,-0.31,-2.5,0.38,2.54
20.312350034713745,-0.3,-2.19,0.32,2.23
20.32848596572876,-0.26,-1.85,0.37,1.9
20.33222198486328,-0.18,-1.49,0.44,1.56
20.342429876327515,-0.09,-0.95,0.37,1.02
20.35245108604431,-0.08,-0.17,0.23,0.29
20.362383127212524,-0.06,0.69,0.25,0.73
20.377970933914185,-0.1,1.44,0.6,1.56
20.382436990737915,-0.12,2.07,1.15,2.37
20.392343997955322,-0.14,2.52,1.62,2.99
20.40243101119995,-0.29,2.93,1.72,3.4
20.413644075393677,-0.45,3.21,1.44,3.54
20.430049180984497,-0.72,3.14,1.01,3.37
20.433676958084106,-0.94,2.83,0.67,3.05
20.443679094314575,-0.96,2.67,0.51,2.88
20.453598976135254,-0.63,3.01,0.64,3.14
20.463728189468384,-0.04,4.01,1.0,4.13
20.48004698753357,0.52,5.34,1.63,5.6
20.483597993850708,0.94,6.33,2.37,6.82
20.493661165237427,1.3,7.08,2.18,7.52
20.50373387336731,1.51,7.29,0.16,7.44
20.5137460231781,1.81,6.9,-2.88,7.69
20.529682874679565,2.1,5.51,-5.37,7.97
20.533735036849976,2.3,3.62,-6.1,7.45
20.54370617866516,2.19,1.38,-4.96,5.59
20.553797006607056,1.77,-0.6,-2.83,3.39
20.563709020614624,1.36,-1.93,-0.8,2.49
20.579580068588257,1.09,-2.23,0.34,2.5
20.583686113357544,0.88,-1.99,0.79,2.31
20.593672037124634,0.79,-1.58,0.72,1.9
20.603781938552856,0.76,-1.28,0.46,1.55
20.613785982131958,0.71,-0.9,-0.04,1.14
20.629381895065308,0.71,-0.53,-0.63,1.08
20.63363003730774,0.58,-0.43,-1.03,1.25
20.6437029838562,0.45,-0.46,-0.99,1.18
20.653741121292114,0.25,-0.63,-0.65,0.93
20.663782835006714,0.1,-0.99,-0.33,1.04
20.67937684059143,-0.13,-1.5,-0.2,1.51
20.683660984039307,-0.28,-2.07,-0.14,2.09
20.693689107894897,-0.52,-2.68,-0.01,2.73
20.70369791984558,-0.7,-3.17,0.05,3.24
20.713688135147095,-0.58,-3.47,0.16,3.52
20.729233980178833,-0.23,-3.67,0.29,3.68
20.7336208820343,-0.05,-3.91,0.33,3.92
20.743609189987183,-0.15,-3.97,0.33,3.98
20.753602981567383,-0.4,-3.95,0.28,3.98
20.7637460231781,-0.77,-3.85,0.36,3.94
20.77975606918335,-1.07,-3.73,0.54,3.91
20.783571004867554,-1.01,-3.51,0.59,3.69
20.793575048446655,-0.76,-3.31,0.55,3.44
20.803674936294556,-0.48,-3.16,0.47,3.23
20.813615083694458,-0.24,-3.0,0.33,3.02
20.82973599433899,0.0,-2.75,0.15,2.75
20.83345913887024,0.2,-2.29,0.12,2.3
20.843775987625122,0.22,-1.83,0.41,1.88
20.853626012802124,0.17,-1.49,0.82,1.7
20.863749980926514,0.25,-1.09,0.9,1.43
20.879554986953735,0.4,-0.61,0.52,0.89
20.88356614112854,0.67,-0.03,-0.01,0.67
20.893675088882446,0.76,0.54,-0.15,0.94
20.903671979904175,0.77,1.16,0.25,1.41
20.91370415687561,0.66,1.72,1.01,2.1
20.929381132125854,0.48,2.3,1.57,2.82
20.93355917930603,0.45,2.81,1.63,3.27
20.943660974502563,0.41,3.0,1.15,3.23
20.953684091567993,0.5,2.88,0.42,2.95
20.963767051696777,0.61,2.53,-0.08,2.6
20.979678869247437,0.64,2.19,-0.09,2.28
20.983619928359985,0.52,2.54,0.17,2.59
20.99372100830078,0.23,3.75,0.7,3.82
21.00369095802307,0.28,5.42,1.77,5.7
21.013725996017456,0.4,6.78,2.97,7.41
21.029302835464478,0.26,7.51,3.12,8.13
21.033593893051147,0.02,7.66,1.18,7.75
21.04370903968811,-0.41,6.92,-2.28,7.29
21.053706884384155,-0.79,5.2,-5.63,7.7
21.063810110092163,-1.27,3.11,-7.1,7.85
21.079329013824463,-1.54,1.14,-6.27,6.55
21.08357310295105,-1.51,-0.4,-3.86,4.16
21.093754053115845,-1.37,-1.43,-1.18,2.3
21.1037118434906,-1.19,-1.64,0.4,2.06
21.113763093948364,-0.87,-1.06,0.81,1.59
21.12940001487732,-0.66,-0.33,0.59,0.94
21.133530855178833,-0.56,0.04,0.25,0.61
21.14371418952942,-0.59,0.17,-0.33,0.69
21.153752088546753,-0.47,0.27,-1.15,1.27
21.16375184059143,-0.4,0.27,-1.7,1.76
21.178904056549072,-0.31,0.01,-1.75,1.77
21.18361210823059,-0.19,-0.47,-1.49,1.57
21.193732976913452,0.15,-0.97,-1.16,1.51
21.20367693901062,0.36,-1.53,-0.8,1.76
21.21374201774597,0.6,-2.08,-0.4,2.2
21.228555917739868,0.69,-2.52,-0.02,2.61
21.233572959899902,0.66,-2.87,0.17,2.94
21.243799924850464,0.52,-3.14,0.15,3.18
21.253749132156372,0.32,-3.32,0.12,3.33
21.263776063919067,0.12,-3.43,0.1,3.43
21.279617071151733,-0.07,-3.65,0.14,3.65
21.283666849136353,-0.11,-3.77,0.09,3.77
21.29374599456787,-0.14,-3.8,-0.04,3.8
21.30378794670105,-0.1,-3.72,-0.12,3.72
21.313751935958862,-0.01,-3.54,-0.01,3.54
21.32952094078064,0.04,-3.28,0.33,3.29
21.333620071411133,0.05,-3.02,0.65,3.08
21.343809843063354,0.0,-2.69,0.7,2.77
21.35371994972229,0.0,-2.27,0.6,2.34
21.363817930221558,0.1,-2.01,0.56,2.08
21.380136013031006,0.1,-1.79,0.56,1.87
21.383718013763428,0.1,-1.53,0.52,1.61
21.393798112869263,0.08,-1.42,0.48,1.5
21.403927087783813,-0.14,-1.35,0.3,1.39
21.413779973983765,-0.38,-1.29,0.14,1.35
21.430390119552612,-0.53,-1.11,0.0,1.23
21.433655977249146,-0.59,-0.8,-0.13,1.0
21.443823099136353,-0.46,-0.33,-0.13,0.58
21.453840970993042,-0.22,0.24,0.23,0.39
21.46382784843445,-0.05,0.82,0.9,1.21
21.481525182724,0.01,1.34,1.38,1.92
21.483731031417847,0.01,1.91,1.4,2.36
21.493875980377197,-0.05,2.44,1.04,2.65
21.50381302833557,-0.34,2.65,0.59,2.73
21.513829946517944,-0.67,2.69,0.14,2.77
21.532552003860474,-0.63,3.12,-0.27,3.19
21.533684015274048,-0.26,4.12,-0.42,4.14
21.544018983840942,0.27,5.63,0.05,5.63
21.553961992263794,0.43,6.89,1.42,7.04
21.56398606300354,0.8,7.26,2.42,7.69
21.581115007400513,1.02,7.57,1.45,7.77
21.583791971206665,1.55,7.15,-1.37,7.44
21.593868017196655,1.78,5.91,-4.66,7.73
21.603824853897095,2.18,4.21,-6.88,8.35
21.61385989189148,2.33,2.22,-7.42,8.08
21.630922079086304,2.66,0.27,-6.18,6.73
21.633931875228882,2.36,-1.37,-3.92,4.77
21.643970012664795,1.39,-2.24,-1.6,3.08
21.653931856155396,0.56,-2.51,-0.02,2.57
21.663910150527954,0.15,-2.25,0.64,2.34
21.6816508769989,0.11,-2.02,0.59,2.1
21.683982133865356,0.23,-1.81,0.02,1.82
21.693835020065308,0.39,-1.51,-1.01,1.85
21.703989028930664,0.47,-1.02,-2.08,2.36
21.713927030563354,0.51,-0.56,-2.55,2.66
21.73113512992859,0.34,-0.31,-2.37,2.41
21.734094858169556,0.15,-0.21,-1.86,1.87
21.74411416053772,-0.04,-0.22,-1.3,1.31
21.7538058757782,-0.16,-0.36,-0.85,0.93
21.76407217979431,-0.18,-0.54,-0.66,0.87
21.78198790550232,-0.19,-0.8,-0.63,1.03
21.784162998199463,-0.19,-0.95,-0.6,1.13
21.79407286643982,-0.23,-1.14,-0.47,1.25
21.80391001701355,-0.14,-1.14,-0.33,1.19
21.813891172409058,-0.26,-1.36,-0.25,1.4
21.83250117301941,-0.32,-1.55,-0.26,1.6
21.83441996574402,-0.4,-1.74,-0.3,1.81
21.844146966934204,-0.55,-1.85,-0.34,1.95
21.85392117500305,-0.62,-1.84,-0.42,1.98
21.863972902297974,-0.58,-1.8,-0.38,1.92
21.882344007492065,-0.64,-1.83,-0.26,1.95
21.88455104827881,-0.63,-1.81,-0.24,1.93
21.89417290687561,-0.57,-1.78,-0.26,1.88
21.903892040252686,-0.55,-1.82,-0.39,1.94
21.913992166519165,-0.42,-1.79,-0.56,1.92
21.93205714225769,-0.27,-1.69,-0.54,1.79
21.933759927749634,-0.16,-1.63,-0.5,1.71
21.944053888320923,-0.07,-1.68,-0.53,1.76
21.95381498336792,-0.03,-1.79,-0.6,1.88
21.964181184768677,0.06,-1.92,-0.66,2.03
21.9831759929657,0.07,-1.94,-0.69,2.06
21.984673023223877,0.06,-1.69,-0.68,1.82
21.993865966796875,0.12,-1.27,-0.48,1.36
22.00395703315735,0.19,-0.81,0.04,0.83
22.014031171798706,0.37,-0.37,0.66,0.84
22.032758951187134,0.54,0.1,0.99,1.13
22.03386092185974,0.6,0.64,0.8,1.18
22.04395604133606,0.58,1.06,0.36,1.26
22.0538489818573,0.5,1.35,-0.06,1.44
22.064017057418823,0.52,1.44,-0.38,1.57
22.082978010177612,0.67,1.29,-0.69,1.6
22.083935022354126,0.86,0.9,-0.82,1.49
22.094048976898193,1.08,0.51,-0.71,1.38
22.10385489463806,1.23,0.61,-0.53,1.47
22.114119052886963,1.18,1.45,-0.14,1.87
22.132462978363037,0.94,2.52,0.65,2.76
22.133804082870483,0.53,3.19,1.6,3.6
22.14412498474121,0.15,3.97,1.84,4.37
22.15419101715088,-0.13,4.84,0.97,4.93
22.164232969284058,-0.61,5.28,-0.31,5.32
22.182953119277954,-0.95,5.05,-1.53,5.36
22.18396806716919,-1.04,4.29,-2.76,5.2
22.193976163864136,-0.98,3.37,-3.97,5.29
22.203845977783203,-0.81,2.43,-4.57,5.23
22.21404504776001,-0.79,1.28,-4.27,4.52
22.232665061950684,-0.98,0.23,-3.41,3.55
22.23409390449524,-0.96,-0.47,-2.45,2.67
22.244197130203247,-0.83,-0.92,-1.71,2.11
22.253979921340942,-0.6,-1.17,-1.35,1.88
22.26415514945984,-0.25,-1.14,-1.22,1.68
22.282124996185303,-0.1,-1.12,-1.25,1.68
22.283901929855347,0.04,-1.07,-1.45,1.8
22.2940890789032,0.13,-0.95,-1.74,1.98
22.304033994674683,0.19,-0.76,-1.98,2.12
22.314133882522583,0.21,-0.53,-2.09,2.16
22.335253953933716,0.21,-0.35,-2.05,2.09
22.33638906478882,0.24,-0.21,-1.82,1.84
22.344156980514526,0.33,-0.12,-1.75,1.78
22.35549306869507,0.33,-0.16,-1.88,1.91
22.364195108413696,0.25,-0.23,-2.04,2.06
22.3821439743042,0.06,-0.29,-1.99,2.01
22.3839750289917,-0.16,-0.44,-1.66,1.72
22.39407515525818,-0.31,-0.55,-1.18,1.33
22.40388298034668,-0.46,-0.58,-0.82,1.1
22.414005041122437,-0.54,-0.55,-0.72,1.05
22.433016061782837,-0.59,-0.5,-0.82,1.12
22.43376398086548,-0.57,-0.4,-0.93,1.16
22.44402503967285,-0.53,-0.26,-0.96,1.12
22.453842878341675,-0.35,-0.11,-0.95,1.01
22.46404504776001,-0.16,0.0,-0.96,0.97
22.483186960220337,-0.02,0.02,-1.13,1.13
22.484020948410034,0.1,0.03,-1.36,1.36
22.494056940078735,0.08,-0.06,-1.38,1.38
22.504031896591187,-0.01,-0.23,-1.21,1.23
22.514012098312378,0.05,-0.32,-0.97,1.02
22.533273935317993,0.06,-0.37,-0.86,0.93
22.533889055252075,0.0,-0.41,-0.89,0.97
22.54408288002014,-0.14,-0.49,-1.02,1.14
22.553887128829956,-0.33,-0.69,-1.14,1.37
22.564094066619873,-0.32,-0.73,-1.28,1.5
22.583778142929077,-0.31,-0.72,-1.37,1.57
22.58421015739441,-0.4,-0.69,-1.33,1.55
22.594205141067505,-0.43,-0.62,-1.22,1.43
22.60389494895935,-0.55,-0.6,-1.16,1.41
22.614171028137207,-0.75,-0.43,-1.12,1.41
22.63308095932007,-0.64,0.09,-1.16,1.32
22.633960008621216,-0.48,0.74,-1.06,1.37
22.644188165664673,-0.59,0.84,-0.73,1.25
22.653964042663574,-0.42,0.59,-0.49,0.87
22.664159059524536,-0.07,0.39,-0.62,0.73
22.68277096748352,-0.13,0.04,-1.13,1.13
22.683923959732056,-0.27,-0.05,-1.82,1.84
22.694059133529663,-0.4,0.05,-2.05,2.08
22.703893899917603,-0.46,0.22,-1.57,1.65
22.714092016220093,-0.63,0.41,-0.63,0.98
22.733304023742676,-0.72,0.5,0.33,0.93
22.733853101730347,-0.56,0.6,0.67,1.05
22.74412989616394,-0.27,0.62,0.26,0.72
22.75413703918457,-0.01,0.68,-0.62,0.92
22.764260053634644,0.12,0.55,-1.36,1.47
22.78407096862793,0.12,0.33,-1.61,1.64
22.78450083732605,0.04,0.02,-1.48,1.48
22.794109106063843,-0.12,-0.26,-1.12,1.15
22.803953886032104,-0.17,-0.42,-0.73,0.85
22.814182996749878,-0.14,-0.6,-0.46,0.76
22.833297967910767,-0.08,-0.75,-0.34,0.82
22.83384919166565,-0.05,-0.81,-0.29,0.86
22.8440420627594,0.02,-0.86,-0.37,0.93
22.853916883468628,0.05,-0.87,-0.46,0.98
22.864134073257446,0.04,-0.8,-0.57,0.98
22.88396716117859,0.03,-0.71,-0.64,0.95
22.88439106941223,0.09,-0.57,-0.65,0.86
22.894163846969604,0.14,-0.4,-0.69,0.8
22.90411400794983,0.07,-0.24,-0.64,0.68
22.91414999961853,-0.02,-0.04,-0.44,0.44
22.93470788002014,-0.04,0.23,-0.25,0.34
22.935126066207886,-0.12,0.42,-0.19,0.47
22.9441978931427,-0.13,0.57,-0.22,0.62
22.953952074050903,-0.06,0.67,-0.26,0.72
22.964121103286743,0.0,0.67,-0.33,0.74
22.984755039215088,-0.01,0.6,-0.56,0.82
22.985174894332886,-0.03,0.46,-0.85,0.96
22.994197130203247,-0.07,0.27,-1.03,1.06
23.004011869430542,-0.14,0.02,-1.1,1.1
23.014201879501343,-0.16,-0.17,-1.12,1.14
23.035274982452393,-0.1,-0.3,-0.93,0.98
23.035717964172363,-0.03,-0.39,-0.66,0.76
23.044249057769775,0.03,-0.45,-0.38,0.58
23.053969144821167,0.15,-0.48,-0.24,0.55
23.064202070236206,0.22,-0.47,-0.22,0.56
23.08476185798645,0.2,-0.46,-0.29,0.57
23.08518695831299,0.17,-0.4,-0.36,0.56
23.094186067581177,0.13,-0.28,-0.36,0.47
23.10392999649048,0.13,-0.12,-0.39,0.42
23.1142098903656,0.16,0.1,-0.42,0.46
23.134799003601074,0.17,0.3,-0.42,0.54
23.135231971740723,0.21,0.48,-0.46,0.69
23.144214868545532,0.27,0.59,-0.46,0.79
23.153987169265747,0.29,0.58,-0.39,0.75
23.164134979248047,0.3,0.55,-0.35,0.71
23.184759855270386,0.24,0.47,-0.35,0.63
23.185177087783813,0.13,0.38,-0.34,0.52
23.19424295425415,0.06,0.27,-0.3,0.4
23.203972101211548,0.04,0.15,-0.26,0.3
23.214228868484497,0.04,0.07,-0.23,0.24
23.234430074691772,0.04,-0.01,-0.22,0.22
23.23486304283142,0.08,-0.1,-0.21,0.24
23.244192838668823,0.1,-0.19,-0.19,0.28
23.25399613380432,0.04,-0.26,-0.21,0.33
23.264199018478394,-0.14,-0.32,-0.31,0.46
23.284766912460327,-0.26,-0.26,-0.42,0.55
23.28514790534973,-0.26,-0.19,-0.46,0.56
23.29424500465393,-0.06,-0.16,-0.27,0.31
23.30396819114685,0.16,-0.17,-0.08,0.24
23.31429409980774,0.24,-0.18,-0.04,0.3
23.33421492576599,0.12,-0.17,0.02,0.2
23.33464503288269,-0.07,-0.06,0.1,0.13
23.344188928604126,-0.2,0.09,0.07,0.23
23.354243993759155,-0.2,0.26,-0.09,0.34
23.364333868026733,-0.1,0.36,-0.24,0.44
23.384469032287598,0.04,0.37,-0.27,0.45
23.384884119033813,0.14,0.31,-0.21,0.39
23.394158124923706,0.21,0.22,-0.17,0.34
23.4042329788208,0.17,0.12,-0.15,0.25
23.41431212425232,0.1,0.03,-0.06,0.12
23.435348987579346,0.04,-0.06,0.04,0.08
23.435765027999878,-0.02,-0.17,0.18,0.24
23.444216012954712,-0.02,-0.22,0.28,0.35
23.45422911643982,0.02,-0.24,0.28,0.36
23.46432089805603,0.05,-0.19,0.27,0.33
23.485317945480347,0.09,-0.15,0.25,0.3
23.485743045806885,0.12,-0.11,0.19,0.25
23.494174003601074,0.11,-0.06,0.19,0.22
23.504379987716675,0.08,-0.08,0.17,0.2
23.514428853988647,0.07,-0.07,0.1,0.14
23.53515601158142,0.07,-0.05,0.05,0.09
23.535590887069702,0.06,-0.02,0.01,0.06
23.544196844100952,0.05,-0.01,0.05,0.07
23.554517030715942,0.04,-0.01,0.14,0.14
23.56427502632141,0.01,-0.01,0.16,0.16
23.585798978805542,0.0,0.04,0.13,0.13
23.58622097969055,0.02,0.07,0.09,0.11
23.594256162643433,0.05,0.1,0.07,0.13
23.604653120040894,0.05,0.12,0.05,0.13
23.61409592628479,0.03,0.1,0.0,0.1
23.63514494895935,0.01,0.09,-0.06,0.1
23.635576009750366,-0.03,0.07,-0.08,0.11
23.644188165664673,-0.09,0.05,-0.07,0.12
23.654924154281616,-0.11,0.05,-0.07,0.13
23.66444706916809,-0.08,0.05,-0.08,0.12
23.684614896774292,-0.05,0.05,0.0,0.07
23.685039043426514,0.0,0.06,0.1,0.11
23.694234132766724,0.02,0.04,0.16,0.16
23.704154014587402,0.03,0.01,0.16,0.16
23.714277982711792,0.03,0.0,0.11,0.11
23.735270977020264,0.01,-0.01,0.01,0.01
23.735699892044067,-0.02,0.0,-0.04,0.04
23.744312047958374,-0.03,0.01,-0.03,0.04
23.754153966903687,0.01,0.01,0.04,0.04
23.764487981796265,0.0,-0.01,0.11,0.11
23.78644895553589,0.02,-0.04,0.13,0.13
23.786864042282104,0.05,-0.07,0.07,0.11
23.794284105300903,0.03,-0.07,0.01,0.07
23.80439591407776,0.01,-0.04,-0.01,0.04
23.81438183784485,-0.01,-0.01,0.03,0.03
23.83513903617859,-0.02,0.04,0.03,0.05
23.83555006980896,0.02,0.06,-0.02,0.06
23.844302892684937,0.03,0.05,-0.11,0.12
23.854315042495728,-0.04,0.0,-0.14,0.14
23.86429500579834,-0.06,-0.02,-0.09,0.11
23.88544011116028,-0.05,-0.03,0.0,0.05
23.88578200340271,-0.05,-0.03,0.09,0.1
23.894140005111694,-0.09,0.0,0.09,0.12
23.904314041137695,-0.17,0.06,-0.05,0.18
23.914336919784546,-0.13,0.14,-0.26,0.32
23.935935974121094,-0.03,0.1,-0.24,0.26
23.936352014541626,0.12,0.02,-0.07,0.14
23.94425106048584,0.19,-0.12,0.08,0.23
23.954291105270386,0.12,-0.17,0.13,0.24
23.964319944381714,-0.05,-0.14,0.18,0.23
23.987277030944824,-0.25,-0.12,0.3,0.4
23.987693071365356,-0.3,-0.03,0.35,0.46
23.994256019592285,-0.21,0.11,0.22,0.32
24.0042941570282,-0.06,0.14,0.05,0.16
24.01468300819397,0.12,0.12,-0.05,0.17
24.03739285469055,0.21,0.1,-0.01,0.23
24.03776502609253,0.21,0.05,0.06,0.22
24.044338941574097,0.1,0.0,0.1,0.14
24.054264068603516,0.05,0.03,0.08,0.09
24.064348936080933,0.0,0.04,0.08,0.08
24.085994005203247,-0.03,0.0,0.08,0.08
24.08639883995056,0.03,-0.04,0.07,0.08
24.09422993659973,0.08,-0.08,0.1,0.15
24.104184865951538,0.09,-0.09,0.16,0.2
24.114318132400513,0.08,-0.09,0.17,0.2
24.13617491722107,0.09,-0.06,0.14,0.17
24.13655114173889,0.08,-0.06,0.11,0.14
24.144245862960815,0.12,-0.03,0.08,0.14
24.154165983200073,0.16,-0.01,0.06,0.17
24.16426110267639,0.14,-0.01,0.06,0.15
24.18599796295166,0.08,-0.01,0.13,0.15
24.186413049697876,0.07,0.01,0.22,0.23
24.194195985794067,0.06,0.07,0.24,0.25
24.20430016517639,0.01,0.09,0.17,0.19
24.214310884475708,0.02,0.12,0.09,0.15
24.236415147781372,0.04,0.13,0.09,0.16
24.236834049224854,0.07,0.12,0.13,0.19
24.24446988105774,0.06,0.05,0.2,0.21
24.254374027252197,0.04,0.0,0.21,0.21
24.264518976211548,0.03,-0.03,0.13,0.13
24.28708004951477,0.01,-0.04,0.06,0.07
24.287495851516724,-0.02,-0.05,0.1,0.11
24.294404983520508,-0.07,-0.07,0.15,0.17
24.30438208580017,-0.07,-0.05,0.17,0.19
24.31452703475952,-0.03,-0.03,0.14,0.14
24.338011980056763,-0.01,-0.03,0.11,0.11
24.338393926620483,0.01,-0.03,0.1,0.1
24.344534158706665,-0.03,-0.04,0.04,0.06
24.354429960250854,-0.06,-0.05,0.01,0.07
24.364575147628784,-0.06,-0.05,-0.04,0.08
24.388076066970825,-0.08,-0.03,-0.1,0.13
24.388499975204468,-0.09,-0.01,-0.09,0.12
24.394498109817505,-0.11,-0.01,-0.01,0.11
24.404469966888428,-0.1,0.0,0.09,0.13
24.41456699371338,-0.11,-0.01,0.15,0.18
24.437649965286255,-0.09,-0.04,0.15,0.17
24.438079118728638,-0.07,-0.05,0.08,0.11
24.444445848464966,-0.06,-0.04,0.03,0.07
24.45434308052063,-0.05,-0.05,0.05,0.08
24.464636087417603,-0.03,-0.02,0.07,0.07
24.48787808418274,-0.03,0.02,0.07,0.07
24.48829698562622,0.02,0.04,0.08,0.09
24.49425196647644,0.05,0.05,0.08,0.1
24.504405975341797,0.06,0.06,0.09,0.12
24.51439595222473,0.08,0.07,0.09,0.13
24.537623167037964,0.05,0.03,0.1,0.11
24.538002014160156,0.01,0.02,0.1,0.1
24.544514894485474,-0.04,0.0,0.05,0.06
24.554447889328003,-0.06,0.07,-0.07,0.11
24.56465196609497,0.01,0.06,-0.07,0.09
24.58819317817688,0.12,0.03,0.08,0.14
24.588608980178833,0.2,-0.04,0.25,0.32
24.594459056854248,0.15,-0.13,0.28,0.34
24.604511976242065,0.02,-0.09,0.17,0.19
24.61455512046814,-0.13,-0.01,0.06,0.14
24.638126134872437,-0.29,0.07,0.02,0.29
24.638543844223022,-0.3,0.11,0.05,0.32
24.644520044326782,-0.1,0.11,0.06,0.16
24.654453992843628,0.11,0.03,0.02,0.11
24.664625883102417,0.18,-0.04,-0.01,0.18
24.68817114830017,0.17,-0.06,0.01,0.18
24.688586950302124,0.07,-0.03,-0.03,0.08
24.69439697265625,-0.06,0.07,0.03,0.09
24.704434156417847,-0.05,0.0,0.1,0.11
24.714537858963013,-0.19,0.01,0.06,0.19
24.737624883651733,-0.13,0.0,0.0,0.13
24.73800492286682,-0.02,0.0,0.02,0.02
24.74451518058777,0.05,0.02,-0.66,0.66
24.75435495376587,0.33,0.52,-2.26,2.34
24.764687061309814,-0.3,-0.11,0.98,1.03
24.788159132003784,-0.05,0.01,1.23,1.23
24.788583993911743,-0.16,-0.21,1.35,1.37
24.79444193840027,-0.11,-0.16,0.82,0.84
24.80445885658264,-0.04,-0.21,0.23,0.31
24.815358877182007,0.04,-0.15,-0.14,0.2
24.8351149559021,0.2,0.07,-0.69,0.72
24.835489988327026,0.02,-0.05,-0.62,0.62
24.844583988189697,0.0,0.04,-0.09,0.09
24.854265928268433,-0.05,0.01,0.28,0.28
24.864475965499878,-0.07,0.04,0.28,0.29
24.88786292076111,-0.05,0.06,0.05,0.09
24.888281106948853,-0.02,0.08,-0.12,0.14
24.894449949264526,-0.02,0.07,-0.11,0.13
24.904534101486206,-0.01,0.01,0.01,0.01
24.914592027664185,-0.02,-0.03,0.1,0.1
24.938267946243286,-0.01,-0.04,0.11,0.11
24.938652992248535,-0.01,-0.03,0.05,0.05
24.9445321559906,-0.02,0.0,-0.02,0.02
24.954580068588257,-0.04,0.04,-0.07,0.09
24.964473962783813,-0.06,0.04,-0.07,0.1
24.98893713951111,-0.07,0.0,-0.06,0.09
24.989436864852905,-0.04,-0.03,-0.02,0.05
24.994601011276245,0.01,-0.05,0.02,0.05
25.00453805923462,0.02,-0.06,0.07,0.09
25.014681100845337,0.01,-0.04,0.12,0.12
25.041041135787964,-0.01,0.0,0.13,0.13
25.04212498664856,-0.07,0.0,0.14,0.15
25.044417142868042,-0.11,0.01,0.13,0.17
25.05452299118042,-0.08,0.04,0.06,0.1
25.064544916152954,-0.02,0.09,0.03,0.09
25.08974003791809,-0.03,0.11,0.03,0.11
25.09014391899109,0.01,0.1,0.06,0.11
25.094640016555786,0.04,0.06,0.03,0.07
25.10461401939392,0.0,0.0,-0.02,0.02
25.114700078964233,0.01,0.01,-0.08,0.08
25.13995599746704,0.03,0.03,-0.17,0.17
25.140344858169556,0.03,0.04,-0.18,0.18
25.144549131393433,-0.03,0.03,-0.05,0.06
25.154515027999878,-0.07,-0.02,0.13,0.14
25.164700031280518,-0.06,-0.06,0.27,0.28
25.189314126968384,-0.07,-0.06,0.24,0.25
25.189696073532104,-0.07,-0.03,0.06,0.09
25.19448494911194,-0.02,0.03,-0.17,0.17
25.204532861709595,0.05,0.04,-0.25,0.25
25.214580059051514,0.16,0.01,-0.09,0.18
25.239794969558716,0.19,-0.08,0.16,0.26
25.240177869796753,0.19,-0.12,0.36,0.42
25.244499921798706,-0.04,-0.2,0.27,0.33
25.25443196296692,-0.09,-0.11,0.04,0.14
25.26465392112732,-0.24,-0.03,0.01,0.24
25.289800882339478,-0.25,0.01,0.11,0.27
25.290228128433228,-0.06,0.05,0.29,0.3
25.294509172439575,0.16,0.02,0.4,0.43
25.304590940475464,0.27,0.0,0.41,0.49
25.3146231174469,0.24,-0.01,0.3,0.38
25.339505910873413,0.14,0.01,0.16,0.21
25.339922189712524,0.04,0.04,0.12,0.13
25.344581842422485,-0.06,0.06,0.12,0.14
25.35455584526062,-0.09,0.08,0.09,0.15
25.364700078964233,-0.09,0.06,0.04,0.11
25.374552011489868,-0.07,0.04,0.06,0.1
25.389657020568848,-0.01,0.02,-0.04,0.04
25.394582986831665,-0.06,-0.06,-0.09,0.12
25.40455985069275,0.0,-0.03,-0.1,0.1
25.414658069610596,0.05,-0.03,-0.08,0.09
25.424577951431274,0.05,-0.02,-0.03,0.06
25.438419103622437,0.04,-0.02,0.0,0.04
25.444638967514038,0.05,-0.05,0.0,0.07
25.454535007476807,0.04,-0.05,-0.03,0.07
25.464679956436157,0.02,0.0,-0.03,0.03
25.474630117416382,-0.01,0.01,0.0,0.01
25.48939299583435,0.02,0.01,0.07,0.07
25.494632959365845,0.03,-0.02,0.16,0.16
25.50455117225647,0.04,-0.06,0.24,0.25
25.514702081680298,-0.01,-0.12,0.21,0.24
25.524633169174194,0.0,-0.13,0.09,0.15
25.539078950881958,0.01,-0.1,-0.02,0.1
25.54457998275757,-0.03,-0.07,-0.02,0.07
25.55474019050598,-0.08,-0.05,0.08,0.12
25.564802885055542,-0.08,-0.01,0.16,0.17
25.57469606399536,-0.06,0.01,0.17,0.18
25.590198040008545,-0.04,0.02,0.1,0.1
25.59468698501587,-0.01,0.04,0.02,0.04
25.604592084884644,-0.01,0.07,0.01,0.07
25.61475110054016,-0.02,0.1,-0.02,0.1
25.624706983566284,-0.04,0.14,-0.11,0.18
25.64044213294983,-0.07,0.14,-0.16,0.22
25.644611120224,-0.08,0.11,-0.17,0.21
25.654678106307983,-0.1,0.08,-0.03,0.13
25.664841890335083,-0.13,0.07,0.1,0.17
25.674712896347046,0.02,0.12,-0.01,0.12
25.69042205810547,-0.02,0.2,0.37,0.42
25.69457507133484,-0.08,0.19,0.41,0.45
25.704694986343384,-0.05,0.03,-0.32,0.32
25.71468710899353,-0.05,-0.24,-0.52,0.57
25.724678993225098,0.0,-0.3,-0.53,0.6
25.739922046661377,-0.01,-0.23,-0.2,0.3
25.74467396736145,-0.03,-0.15,0.06,0.16
25.754497051239014,0.02,-0.01,0.03,0.03
25.764743089675903,0.01,-0.06,-0.1,0.11
25.774574041366577,-0.04,0.01,-0.1,0.1
25.78978991508484,-0.19,0.17,0.06,0.26
25.794960021972656,0.07,0.21,0.22,0.31
25.80471706390381,-0.02,0.13,0.35,0.37
