time,ax,ay,az,atotal
0.008820056915283203,-0.08,-0.1,0.4,0.42
0.018616914749145508,0.02,0.0,0.24,0.24
0.028705120086669922,-0.04,-0.16,0.0,0.16
0.04605579376220703,-0.07,-0.13,-0.26,0.29
0.048535823822021484,-0.11,0.01,-0.38,0.39
0.05864286422729492,-0.11,0.03,-0.28,0.3
0.06859493255615234,-0.09,0.0,-0.12,0.15
0.07866907119750977,-0.09,0.03,-0.01,0.09
0.09726905822753906,-0.05,0.06,0.0,0.07
0.0984809398651123,0.01,0.06,-0.03,0.06
0.10873603820800781,0.05,0.07,-0.03,0.09
0.11858701705932617,0.11,0.1,0.01,0.14
0.12871789932250977,0.15,0.07,0.03,0.16
0.1474909782409668,0.15,0.04,-0.01,0.15
0.14845609664916992,0.04,0.03,-0.05,0.07
0.1587390899658203,-0.03,0.0,-0.08,0.08
0.16847896575927734,-0.03,0.0,-0.03,0.04
0.17861080169677734,-0.07,0.0,0.0,0.07
0.19770479202270508,-0.09,0.02,0.02,0.09
0.1985177993774414,-0.06,0.05,0.03,0.08
0.2086958885192871,0.0,0.08,0.03,0.08
0.21860098838806152,0.07,0.06,0.0,0.09
0.22872400283813477,0.03,0.0,-0.06,0.06
0.24797582626342773,-0.02,-0.02,-0.08,0.08
0.2484898567199707,-0.01,-0.04,-0.08,0.09
0.25879383087158203,0.05,0.0,-0.05,0.07
0.2686300277709961,0.13,0.02,0.0,0.13
0.2787008285522461,0.06,-0.02,0.02,0.06
0.2984910011291504,0.02,-0.02,0.03,0.04
0.29894208908081055,-0.04,0.02,0.06,0.07
0.3088219165802002,-0.03,0.05,0.12,0.13
0.3186299800872803,0.03,0.01,0.12,0.12
0.3287320137023926,0.02,-0.02,0.0,0.02
0.34856605529785156,0.04,0.04,-0.08,0.09
0.34890079498291016,0.04,0.04,-0.11,0.12
0.35889697074890137,0.07,0.02,-0.08,0.1
0.36864495277404785,0.1,-0.01,0.0,0.1
0.3789389133453369,0.01,-0.08,0.03,0.08
0.39805078506469727,-0.09,-0.11,0.0,0.14
0.39876794815063477,-0.08,-0.04,0.0,0.08
0.40880393981933594,0.01,-0.03,0.05,0.05
0.4186089038848877,0.08,-0.06,0.15,0.18
0.4287238121032715,0.05,-0.05,0.22,0.23
0.4484260082244873,0.0,-0.04,0.2,0.2
0.44883298873901367,-0.01,-0.04,0.19,0.19
0.4588150978088379,0.03,-0.01,0.2,0.2
0.4685630798339844,0.03,-0.05,0.2,0.2
0.4788799285888672,0.0,-0.06,0.18,0.18
0.49880409240722656,0.0,-0.04,0.12,0.12
0.4992029666900635,0.0,-0.02,0.04,0.04
0.5087809562683105,-0.03,-0.02,0.01,0.03
0.5185859203338623,0.03,-0.07,-0.01,0.07
0.5287518501281738,0.1,-0.11,-0.01,0.14
0.5490419864654541,0.17,-0.1,-0.01,0.19
0.5495038032531738,0.19,-0.09,0.02,0.21
0.5587611198425293,0.18,-0.1,0.11,0.23
0.5685338973999023,0.15,-0.11,0.26,0.31
0.5787310600280762,0.12,-0.13,0.35,0.39
0.5991158485412598,0.09,-0.15,0.35,0.39
0.5995619297027588,0.11,-0.16,0.32,0.37
0.6087899208068848,0.14,-0.17,0.33,0.39
0.618582010269165,0.1,-0.2,0.36,0.42
0.6287698745727539,0.07,-0.2,0.36,0.41
0.6492979526519775,0.06,-0.18,0.4,0.44
0.6497631072998047,0.08,-0.17,0.46,0.49
0.6587948799133301,0.11,-0.16,0.51,0.54
0.6685299873352051,0.15,-0.15,0.53,0.57
0.6787869930267334,0.16,-0.21,0.47,0.53
0.6988940238952637,0.19,-0.28,0.37,0.5
0.6992549896240234,0.24,-0.33,0.31,0.51
0.7087368965148926,0.29,-0.41,0.31,0.59
0.7185540199279785,0.31,-0.43,0.37,0.64
0.728705883026123,0.3,-0.45,0.4,0.67
0.7493319511413574,0.31,-0.46,0.43,0.7
0.7497820854187012,0.3,-0.47,0.47,0.72
0.7588047981262207,0.25,-0.5,0.55,0.78
0.7685708999633789,0.19,-0.54,0.68,0.88
0.7789897918701172,0.14,-0.56,0.84,1.01
0.7994060516357422,0.02,-0.64,0.94,1.13
0.7998600006103516,-0.21,-0.73,0.91,1.18
0.8088099956512451,-0.46,-0.83,0.85,1.27
0.8186368942260742,-0.53,-1.0,0.74,1.35
0.8288938999176025,-0.59,-0.9,0.71,1.28
0.8499059677124023,-0.6,-0.59,0.91,1.23
0.850348949432373,-0.63,-0.27,1.31,1.47
0.8588600158691406,-0.69,0.06,1.74,1.87
0.8687810897827148,-0.75,0.38,2.13,2.28
0.8789479732513428,-0.79,0.56,2.4,2.58
0.8999700546264648,-0.83,0.6,2.49,2.69
0.9004189968109131,-0.79,0.57,2.42,2.6
0.9088149070739746,-0.7,0.41,2.23,2.37
0.918848991394043,-0.47,0.22,2.03,2.09
0.9288678169250488,-0.16,0.02,1.78,1.78
0.9501838684082031,0.18,-0.15,1.56,1.57
0.9506340026855469,0.48,-0.27,1.39,1.49
0.9587569236755371,0.63,-0.37,1.25,1.44
0.9689440727233887,0.63,-0.45,1.15,1.38
0.9787979125976562,0.47,-0.46,1.15,1.32
1.0000548362731934,0.4,-0.75,1.05,1.35
1.000485897064209,0.31,-0.89,0.83,1.25
1.0087699890136719,0.19,-0.89,0.67,1.13
1.01904296875,0.16,-0.98,0.78,1.26
1.028872013092041,0.13,-1.1,1.07,1.54
1.0502169132232666,0.04,-1.08,1.4,1.76
1.0506699085235596,-0.08,-1.01,1.65,1.93
1.0587611198425293,-0.21,-0.96,1.83,2.07
1.069200038909912,-0.27,-0.87,1.99,2.18
1.0787479877471924,-0.27,-0.8,2.12,2.28
1.1002249717712402,-0.31,-0.76,2.2,2.34
1.1006560325622559,-0.33,-0.7,2.19,2.32
1.108747959136963,-0.34,-0.62,2.12,2.23
1.1191678047180176,-0.35,-0.52,1.99,2.08
1.128708839416504,-0.33,-0.38,1.87,1.93
1.1503701210021973,-0.32,-0.23,1.75,1.79
1.1507577896118164,-0.44,-0.13,1.59,1.65
1.1587979793548584,-0.57,0.02,1.46,1.56
1.1686789989471436,-0.52,0.01,1.28,1.38
1.1787700653076172,-0.47,0.04,1.03,1.13
1.2001299858093262,-0.55,0.14,0.78,0.96
1.200563907623291,-0.59,0.2,0.58,0.85
1.2087209224700928,-0.51,0.26,0.51,0.76
1.2186918258666992,-0.32,0.43,0.66,0.85
1.2287540435791016,-0.18,0.61,0.97,1.15
1.250514030456543,-0.16,0.7,1.37,1.54
1.2509119510650635,-0.17,0.81,1.75,1.93
1.2587440013885498,-0.23,1.0,2.02,2.26
1.2686669826507568,-0.28,1.2,2.24,2.55
1.2787818908691406,-0.37,1.38,2.41,2.8
1.3005149364471436,-0.37,1.51,2.57,3.0
1.3008508682250977,-0.37,1.63,2.66,3.14
1.3087968826293945,-0.39,1.73,2.63,3.17
1.3187408447265625,-0.44,1.89,2.52,3.18
1.3287467956542969,-0.37,2.11,2.36,3.18
1.350843906402588,-0.19,2.36,2.2,3.23
1.3512918949127197,0.02,2.63,2.06,3.34
1.3588800430297852,0.25,2.8,1.94,3.41
1.3687078952789307,0.44,2.78,1.88,3.38
1.3787579536437988,0.54,2.59,1.76,3.17
1.4008588790893555,0.45,2.18,1.42,2.64
1.4012160301208496,0.16,1.65,0.95,1.91
1.4087629318237305,-0.18,0.91,0.5,1.05
1.418686866760254,-0.43,0.07,-0.07,0.44
1.428764820098877,-0.6,-0.47,-0.5,0.91
1.4509620666503906,-0.69,-0.97,-0.91,1.49
1.4513769149780273,-0.61,-1.34,-1.27,1.94
1.4588298797607422,-0.3,-1.57,-1.68,2.31
1.4687309265136719,0.21,-1.66,-2.05,2.64
1.4787929058074951,0.84,-1.61,-2.18,2.83
1.5013079643249512,1.33,-1.46,-1.97,2.78
1.5017449855804443,1.63,-1.23,-1.4,2.47
1.5087769031524658,1.7,-1.02,-0.68,2.09
1.5187230110168457,1.65,-0.82,0.01,1.84
1.5287117958068848,1.74,-0.69,0.59,1.96
1.551340103149414,1.81,-0.65,0.98,2.15
1.551703929901123,1.62,-0.68,1.2,2.12
1.5587949752807617,1.11,-0.77,1.28,1.86
1.5687007904052734,0.4,-0.96,1.29,1.65
1.5788288116455078,-0.28,-1.23,1.31,1.81
1.601085901260376,-0.81,-1.49,1.3,2.13
1.6014719009399414,-1.26,-1.7,1.17,2.41
1.6086678504943848,-1.5,-1.93,0.95,2.62
1.6186890602111816,-1.61,-2.01,0.66,2.65
1.6287550926208496,-1.53,-2.02,0.36,2.55
1.6507577896118164,-1.28,-2.02,0.13,2.39
1.651129961013794,-0.86,-1.99,-0.1,2.17
1.658715009689331,-0.34,-1.93,-0.35,1.99
1.6686420440673828,0.12,-1.87,-0.59,1.96
1.6788058280944824,0.5,-1.81,-0.74,2.01
1.7008090019226074,0.67,-1.73,-0.77,2.0
1.7011809349060059,0.64,-1.58,-0.6,1.8
1.708655834197998,0.52,-1.35,-0.23,1.46
1.7187070846557617,0.43,-1.14,0.24,1.24
1.7288339138031006,0.41,-0.79,0.77,1.17
1.7508268356323242,0.35,-0.44,1.34,1.45
1.7511868476867676,0.24,-0.19,1.91,1.93
1.7587029933929443,0.13,-0.06,2.33,2.33
1.7686948776245117,-0.04,-0.05,2.52,2.52
1.7787318229675293,-0.17,-0.03,2.42,2.42
1.8012371063232422,-0.25,0.08,2.08,2.09
1.8016109466552734,-0.26,0.36,1.64,1.69
1.808779001235962,-0.17,0.74,1.27,1.47
1.8187639713287354,-0.02,1.16,1.0,1.53
1.8287930488586426,0.14,1.64,0.83,1.84
1.8516209125518799,0.31,2.17,0.73,2.31
1.8519768714904785,0.44,2.64,0.67,2.75
1.8586468696594238,0.47,2.98,0.57,3.07
1.8686699867248535,0.6,3.06,0.32,3.13
1.878781795501709,0.87,3.15,0.07,3.26
1.9012260437011719,1.04,3.52,-0.08,3.67
1.9016118049621582,0.9,3.95,0.0,4.05
1.908775806427002,0.53,4.18,0.37,4.22
1.918698787689209,0.07,4.15,0.91,4.24
1.9287099838256836,-0.23,3.78,1.37,4.02
1.951517105102539,-0.18,2.94,1.28,3.21
1.951848030090332,-0.18,1.58,0.37,1.63
1.9586811065673828,-0.34,0.26,-0.92,1.01
1.9687070846557617,-0.5,-0.88,-1.96,2.2
1.9787530899047852,-0.8,-1.79,-2.62,3.27
2.0018739700317383,-1.25,-1.89,-3.08,3.82
2.0022430419921875,-1.73,-1.37,-3.29,3.96
2.0087249279022217,-1.91,-0.71,-3.13,3.73
2.0187578201293945,-1.78,-0.1,-2.42,3.0
2.028761863708496,-1.36,0.4,-1.32,1.93
2.0518579483032227,-1.22,0.63,-0.25,1.39
2.0522260665893555,-1.37,0.7,0.59,1.64
2.0586647987365723,-1.28,0.51,0.97,1.68
2.068657875061035,-1.07,0.05,0.92,1.41
2.078885078430176,-0.77,-0.56,0.75,1.21
2.1019349098205566,-0.36,-1.05,0.54,1.23
2.102303981781006,0.02,-1.65,0.38,1.69
2.1087429523468018,0.36,-2.13,0.31,2.18
2.118736982345581,0.54,-2.47,0.22,2.53
2.1287598609924316,0.61,-2.74,0.13,2.81
2.1519219875335693,0.55,-2.83,0.08,2.88
2.1523051261901855,0.47,-2.9,-0.06,2.93
2.1587600708007812,0.32,-3.02,-0.25,3.04
2.168704032897949,0.16,-2.9,-0.47,2.94
2.178773880004883,-0.05,-2.71,-0.66,2.78
2.2020249366760254,-0.34,-2.55,-0.7,2.66
2.2023839950561523,-0.53,-2.3,-0.62,2.44
2.2086338996887207,-0.57,-2.02,-0.4,2.13
2.218693971633911,-0.49,-1.8,-0.07,1.86
2.2287330627441406,-0.36,-1.56,0.31,1.63
2.252218008041382,-0.26,-1.33,0.67,1.51
2.2526121139526367,-0.18,-1.07,0.98,1.46
2.2586638927459717,-0.1,-0.82,1.27,1.51
2.2686920166015625,-0.06,-0.72,1.44,1.61
2.278761863708496,-0.03,-0.67,1.43,1.57
2.3021750450134277,-0.05,-0.54,1.31,1.41
2.302550792694092,-0.04,-0.33,1.16,1.2
2.308712959289551,0.04,0.02,1.06,1.06
2.318695068359375,0.12,0.53,1.1,1.22
2.3288440704345703,0.19,1.12,1.21,1.65
2.3525900840759277,0.22,1.67,1.42,2.2
2.3529229164123535,0.22,2.26,1.64,2.8
2.3588027954101562,0.19,2.78,1.82,3.32
2.3686981201171875,0.1,3.17,1.91,3.7
2.3787550926208496,-0.03,3.48,1.92,3.97
2.4031670093536377,-0.23,3.56,1.76,3.97
2.403573989868164,-0.55,3.52,1.4,3.82
2.408813953399658,-0.98,3.7,0.97,3.94
2.418752908706665,-1.35,4.19,0.65,4.44
2.428740978240967,-1.38,4.7,0.63,4.93
2.453165054321289,-0.88,4.77,0.88,4.92
2.4535419940948486,-0.07,4.46,1.16,4.6
2.458662986755371,0.73,3.82,1.24,4.08
2.468752861022949,1.04,2.62,0.54,2.87
2.4787659645080566,1.15,1.07,-0.67,1.7
2.503087043762207,1.49,-0.44,-1.77,2.35
2.5034608840942383,1.9,-1.56,-2.73,3.67
2.5087218284606934,2.28,-2.14,-3.51,4.7
2.5187439918518066,2.43,-2.38,-3.93,5.19
2.5286998748779297,2.27,-2.25,-3.86,5.01
2.553013801574707,1.9,-1.9,-3.21,4.18
2.5533928871154785,1.58,-1.56,-2.04,3.01
2.558696985244751,1.24,-1.32,-0.74,1.95
2.56876802444458,0.89,-1.21,0.32,1.53
2.578866958618164,0.64,-1.09,1.09,1.66
2.6030287742614746,0.37,-1.02,1.46,1.81
2.6034231185913086,0.11,-1.15,1.48,1.87
2.608656883239746,-0.15,-1.47,1.21,1.9
2.6187639236450195,-0.34,-1.79,0.79,1.98
2.628786087036133,-0.54,-2.17,0.5,2.29
2.653289794921875,-0.77,-2.41,0.36,2.55
2.6536788940429688,-0.9,-2.51,0.29,2.68
2.6586599349975586,-0.93,-2.56,0.26,2.73
2.6687839031219482,-0.89,-2.6,0.09,2.74
2.6787290573120117,-0.76,-2.6,-0.14,2.71
2.703123092651367,-0.67,-2.55,-0.4,2.66
2.703463077545166,-0.59,-2.55,-0.68,2.7
2.7087230682373047,-0.45,-2.49,-0.86,2.67
2.7187490463256836,-0.3,-2.33,-0.96,2.53
2.7288007736206055,-0.19,-2.05,-0.94,2.26
2.7533628940582275,-0.07,-1.72,-0.78,1.88
2.753744125366211,0.06,-1.33,-0.5,1.42
2.758791923522949,0.2,-0.86,-0.15,0.89
2.7687478065490723,0.28,-0.41,0.18,0.52
2.778830051422119,0.27,0.0,0.5,0.56
2.8038930892944336,0.11,0.35,0.84,0.91
2.80433988571167,-0.08,0.75,1.18,1.4
2.8087899684906006,-0.26,1.04,1.56,1.89
2.81882381439209,-0.47,1.2,1.85,2.25
2.8287930488586426,-0.39,1.29,1.98,2.39
2.8543100357055664,-0.19,1.39,1.79,2.27
2.8546719551086426,0.06,1.54,1.46,2.12
2.8587229251861572,0.24,1.66,1.21,2.06
2.8688130378723145,0.39,1.96,1.11,2.28
2.87880802154541,0.54,2.36,1.11,2.66
2.9040119647979736,0.74,2.76,1.17,3.08
2.904369831085205,1.0,3.09,1.2,3.46
2.908781051635742,1.32,3.29,1.16,3.72
2.918768882751465,1.6,3.49,0.91,3.94
2.9287610054016113,1.82,3.94,0.56,4.37
2.954296112060547,1.64,4.26,0.4,4.58
2.9546618461608887,0.8,4.3,0.57,4.41
2.9586668014526367,-0.18,4.03,0.95,4.14
2.9687600135803223,-0.78,3.36,1.1,3.62
2.9787068367004395,-1.12,2.31,0.69,2.65
2.9887049198150635,-1.45,1.09,-0.19,1.82
3.005342960357666,-1.66,-0.2,-1.52,2.25
3.008543014526367,-1.98,-1.01,-3.04,3.76
3.0186870098114014,-2.4,-1.25,-4.46,5.21
3.0288279056549072,-2.61,-1.14,-5.51,6.2
3.0386929512023926,-2.42,-0.76,-5.88,6.4
3.0544519424438477,-1.89,-0.26,-5.31,5.64
3.058652877807617,-1.11,0.07,-3.76,3.92
3.0687029361724854,-0.53,0.19,-1.82,1.9
3.0788087844848633,-0.09,0.29,-0.05,0.3
3.088650941848755,0.1,0.13,1.09,1.1
3.104391098022461,0.14,-0.29,1.51,1.54
3.1085758209228516,0.23,-0.85,1.38,1.63
3.1186790466308594,0.36,-1.42,1.05,1.8
3.1286909580230713,0.54,-2.0,0.65,2.17
3.138740062713623,0.65,-2.58,0.27,2.67
3.155344009399414,0.71,-3.0,0.01,3.08
3.1587209701538086,0.72,-3.31,-0.16,3.39
3.168674945831299,0.6,-3.53,-0.29,3.59
3.178831100463867,0.37,-3.57,-0.37,3.6
3.1886990070343018,0.15,-3.5,-0.47,3.53
3.2049219608306885,-0.02,-3.36,-0.53,3.4
3.2087669372558594,-0.09,-3.21,-0.54,3.25
3.218730926513672,-0.04,-3.04,-0.45,3.07
3.2287089824676514,0.0,-2.84,-0.28,2.85
3.238693952560425,-0.01,-2.66,0.02,2.66
3.2547531127929688,-0.07,-2.48,0.39,2.51
3.2587690353393555,-0.19,-2.28,0.74,2.4
3.268768787384033,-0.28,-2.01,1.03,2.27
3.278707981109619,-0.33,-1.66,1.24,2.09
3.2888169288635254,-0.34,-1.24,1.47,1.95
3.305710792541504,-0.32,-0.82,1.69,1.9
3.308809995651245,-0.23,-0.36,1.9,1.94
3.318708896636963,-0.16,0.16,2.05,2.06
3.3287100791931152,-0.14,0.7,2.06,2.18
3.3386387825012207,-0.14,1.37,2.04,2.46
3.3547768592834473,-0.1,2.04,2.01,2.86
3.3586459159851074,0.0,2.59,1.92,3.22
3.368741035461426,0.17,3.04,1.74,3.5
3.378804922103882,0.36,3.39,1.42,3.69
3.3887457847595215,0.24,3.72,0.99,3.85
3.4053609371185303,-0.14,3.97,0.52,4.0
3.4086990356445312,-0.69,4.23,0.06,4.28
3.418747901916504,-1.15,4.57,-0.21,4.71
3.428718090057373,-1.32,5.17,-0.1,5.33
3.438666820526123,-1.09,5.72,0.3,5.83
3.4546289443969727,-0.49,5.58,0.94,5.67
3.4587550163269043,0.37,4.77,1.42,4.99
3.4687559604644775,1.06,3.35,1.2,3.71
3.478724956512451,1.5,1.55,0.12,2.16
3.4887099266052246,2.02,-0.09,-1.36,2.43
3.504152774810791,2.73,-1.3,-2.69,4.04
3.508542060852051,3.31,-2.03,-3.79,5.42
3.5187199115753174,3.41,-2.21,-4.43,6.01
3.5287649631500244,2.88,-1.93,-4.34,5.55
3.538757801055908,2.19,-1.46,-3.46,4.34
3.554302930831909,1.49,-1.12,-2.07,2.78
3.5587410926818848,0.82,-0.84,-0.64,1.33
3.5686399936676025,0.27,-0.52,0.55,0.8
3.578819990158081,-0.14,-0.21,1.34,1.36
3.5886549949645996,-0.47,-0.25,1.61,1.69
3.6040639877319336,-0.63,-0.54,1.5,1.71
3.6085658073425293,-0.67,-0.97,1.05,1.57
3.6187291145324707,-0.75,-1.41,0.53,1.68
3.6288089752197266,-0.92,-1.76,0.15,1.99
3.6386799812316895,-1.12,-2.05,-0.11,2.33
3.654118061065674,-1.21,-2.31,-0.31,2.62
3.658559799194336,-1.3,-2.49,-0.5,2.85
3.6686389446258545,-1.32,-2.66,-0.72,3.05
3.6787149906158447,-1.18,-2.79,-0.99,3.18
3.688662052154541,-1.04,-2.88,-1.26,3.31
3.7048468589782715,-0.81,-2.98,-1.52,3.44
3.7086830139160156,-0.64,-3.05,-1.63,3.51
3.718740940093994,-0.51,-3.05,-1.61,3.48
3.7287588119506836,-0.4,-2.98,-1.41,3.32
3.7387828826904297,-0.3,-2.81,-1.09,3.02
3.754848003387451,-0.21,-2.43,-0.65,2.52
3.7588248252868652,-0.2,-1.87,-0.07,1.88
3.768685817718506,-0.14,-1.28,0.52,1.38
3.7787208557128906,0.11,-0.59,1.13,1.27
3.7887179851531982,0.5,0.04,1.71,1.78
3.805150032043457,0.77,0.46,2.16,2.33
3.808527946472168,0.87,0.73,2.46,2.7
3.8187849521636963,0.7,0.88,2.58,2.81
3.828821897506714,0.31,1.03,2.45,2.67
3.838747978210449,-0.02,1.23,2.17,2.49
3.8554229736328125,-0.2,1.46,1.88,2.38
3.8585989475250244,-0.31,1.73,1.69,2.43
3.869025945663452,-0.35,2.05,1.56,2.59
3.878788948059082,-0.19,2.41,1.43,2.8
3.8887319564819336,0.05,2.77,1.27,3.04
3.905390977859497,0.39,3.0,1.02,3.19
3.9086928367614746,1.0,3.16,0.73,3.39
3.9187397956848145,1.67,3.62,0.46,4.01
3.928713798522949,2.34,4.39,0.4,4.99
3.938755989074707,2.33,4.93,0.5,5.47
3.955648899078369,1.24,4.61,0.79,4.83
3.958630084991455,-1.15,2.29,1.26,2.85
3.9687681198120117,-2.13,1.58,1.4,2.99
3.978726863861084,-2.17,1.49,0.42,2.66
3.9886059761047363,-2.01,0.53,-1.18,2.39
4.005108833312988,-1.25,0.29,-2.65,2.94
4.0091071128845215,-0.73,0.45,-4.3,4.38
4.018474102020264,-0.63,0.32,-6.31,6.34
4.028514862060547,-1.38,-0.68,-5.44,5.65
4.038512945175171,-1.61,-0.6,-3.37,3.78
4.054865837097168,-1.56,0.22,-1.6,2.24
4.058375835418701,-1.23,0.85,0.02,1.49
4.068550109863281,-0.46,0.77,1.1,1.41
4.078645944595337,0.51,0.54,1.86,2.0
4.088551044464111,1.29,0.84,2.47,2.91
4.106130123138428,1.15,0.11,2.15,2.44
4.108397006988525,0.57,-0.89,1.08,1.51
4.11858606338501,0.27,-1.53,0.08,1.55
4.128674030303955,0.19,-2.33,-0.61,2.41
4.138575077056885,0.35,-3.17,-0.86,3.3
4.155209064483643,0.32,-3.77,-0.92,3.89
4.1583569049835205,0.04,-4.09,-1.01,4.21
4.168592929840088,-0.39,-4.16,-1.16,4.33
4.178602933883667,-0.89,-4.1,-1.33,4.4
4.188513994216919,-1.29,-4.04,-1.45,4.48
4.205432891845703,-1.45,-3.93,-1.44,4.42
4.208398818969727,-1.3,-3.76,-1.26,4.17
4.218556880950928,-0.98,-3.56,-0.97,3.81
4.228531837463379,-0.65,-3.3,-0.63,3.42
4.238594055175781,-0.35,-3.01,-0.25,3.04
4.255752086639404,-0.1,-2.66,0.17,2.66
4.258502006530762,0.26,-2.25,0.58,2.33
4.268606901168823,0.6,-1.77,0.94,2.09
4.278459072113037,0.75,-1.25,1.24,1.91
4.288515090942383,0.68,-0.64,1.45,1.72
4.306210041046143,0.44,-0.02,1.58,1.64
4.308885097503662,0.18,0.58,1.64,1.74
4.318569898605347,-0.01,1.2,1.64,2.03
4.32856297492981,-0.03,1.9,1.6,2.48
4.338726043701172,0.11,2.56,1.5,2.96
4.3568689823150635,0.42,3.08,1.39,3.4
4.35863995552063,0.73,3.54,1.26,3.82
4.368618965148926,0.86,3.9,1.07,4.13
4.378571033477783,0.63,4.04,0.85,4.17
4.388627052307129,0.07,4.03,0.66,4.08
4.406739950180054,-0.53,3.81,0.43,3.87
4.409965991973877,-0.95,3.68,0.18,3.8
4.4198408126831055,-0.98,4.29,-0.01,4.4
4.4298789501190186,-0.66,5.05,0.01,5.09
4.439779996871948,-0.13,4.92,0.44,4.94
4.457347869873047,0.59,4.4,0.93,4.53
4.459619045257568,1.4,3.44,0.97,3.83
4.469820976257324,1.84,1.96,0.23,2.69
4.479882001876831,2.23,0.51,-1.02,2.5
4.489828109741211,2.65,-0.57,-2.36,3.59
4.506874084472656,2.82,-1.29,-3.57,4.72
4.509634017944336,2.54,-1.5,-4.21,5.14
4.519834041595459,1.9,-1.24,-3.95,4.55
4.529715061187744,1.21,-0.85,-2.86,3.21
4.539824962615967,0.63,-0.62,-1.33,1.59
4.557433128356934,0.14,-0.46,0.06,0.48
4.5596818923950195,-0.07,-0.33,1.06,1.11
4.569735050201416,-0.08,-0.31,1.67,1.7
4.5799150466918945,-0.05,-0.56,1.85,1.93
4.589838981628418,-0.08,-1.05,1.64,1.94
4.606083869934082,-0.15,-1.55,1.24,1.99
4.609786033630371,-0.35,-1.96,0.73,2.12
4.6198999881744385,-0.6,-2.32,0.19,2.4
4.629918098449707,-0.75,-2.57,-0.25,2.68
4.6398468017578125,-0.9,-2.76,-0.64,2.97
4.656662940979004,-1.0,-3.02,-0.99,3.33
4.659678936004639,-0.94,-3.19,-1.27,3.55
4.669888973236084,-0.66,-3.22,-1.48,3.6
4.679903984069824,-0.33,-3.26,-1.62,3.65
4.6898298263549805,-0.09,-3.3,-1.73,3.72
4.707056999206543,0.07,-3.27,-1.77,3.71
4.709628105163574,0.11,-3.09,-1.76,3.55
4.719812870025635,0.05,-2.77,-1.65,3.22
4.729858875274658,-0.06,-2.39,-1.38,2.76
4.739872932434082,-0.12,-2.04,-0.94,2.24
4.757041931152344,-0.12,-1.63,-0.34,1.66
4.759657859802246,-0.03,-1.17,0.22,1.19
4.769850969314575,0.21,-0.61,0.71,0.95
4.779706001281738,0.52,-0.04,1.16,1.27
4.789865016937256,0.8,0.49,1.52,1.78
4.80732798576355,0.98,0.98,1.82,2.28
4.809660911560059,0.97,1.37,1.99,2.6
4.819798946380615,0.83,1.75,2.05,2.82
4.829853057861328,0.67,2.15,2.01,3.01
4.839818000793457,0.12,2.17,1.61,2.7
4.857203960418701,0.48,3.12,1.62,3.54
4.859692096710205,0.8,3.62,1.82,4.12
4.870021820068359,0.9,3.45,1.97,4.07
4.879756927490234,0.94,3.51,1.92,4.1
4.889816999435425,1.02,3.63,1.52,4.06
4.90739107131958,1.17,3.61,0.85,3.88
4.909806966781616,1.4,3.57,0.2,3.83
4.919884920120239,1.69,3.65,-0.26,4.03
4.929722785949707,1.73,3.85,-0.34,4.23
4.939841985702515,1.18,3.73,-0.06,3.91
4.957053899765015,0.24,3.27,0.32,3.29
4.9599339962005615,-0.52,2.63,0.43,2.71
4.969843864440918,-0.77,1.72,0.08,1.88
4.979761123657227,-0.79,0.64,-0.71,1.24
4.98979377746582,-0.98,-0.37,-1.67,1.97
5.007980823516846,-1.43,-1.03,-2.63,3.16
5.009963035583496,-2.02,-1.35,-3.28,4.08
5.019861936569214,-2.61,-1.16,-3.35,4.4
5.02985692024231,-2.96,-0.6,-2.84,4.14
5.039906024932861,-3.02,0.02,-1.82,3.52
5.05856990814209,-2.99,0.45,-0.77,3.12
5.0601019859313965,-2.5,0.84,0.25,2.64
5.069961071014404,-1.74,1.0,1.02,2.25
5.079866886138916,-0.96,0.58,1.29,1.7
5.089836120605469,-0.27,-0.1,1.11,1.14
5.108292102813721,0.22,-0.81,0.7,1.09
5.1102728843688965,0.67,-1.54,0.24,1.69
5.119948863983154,1.06,-2.27,-0.21,2.51
5.129787921905518,1.47,-2.89,-0.49,3.27
5.139811038970947,1.67,-3.28,-0.6,3.72
5.158348083496094,1.59,-3.56,-0.56,3.93
5.160362958908081,1.44,-3.92,-0.54,4.21
5.1697998046875,1.27,-4.13,-0.57,4.35
5.179865837097168,0.88,-4.08,-0.65,4.22
5.189731121063232,0.34,-3.98,-0.77,4.06
5.2082319259643555,-0.29,-3.92,-0.84,4.01
5.20963191986084,-0.8,-3.82,-0.84,3.99
5.219855785369873,-0.99,-3.6,-0.76,3.81
5.229804992675781,-0.97,-3.22,-0.62,3.41
5.239768028259277,-0.92,-2.81,-0.39,2.98
5.2585530281066895,-0.92,-2.42,-0.09,2.59
5.259745121002197,-0.9,-1.92,0.2,2.12
5.269963979721069,-0.83,-1.3,0.46,1.6
5.279745101928711,-0.67,-0.71,0.84,1.28
5.289834022521973,-0.45,-0.18,1.26,1.35
5.308620929718018,-0.23,0.3,1.65,1.69
5.309637069702148,-0.01,0.75,1.99,2.12
5.319905996322632,0.14,1.21,2.2,2.51
5.329901933670044,0.26,1.63,2.36,2.87
5.339799880981445,0.33,2.01,2.45,3.18
5.358675003051758,0.56,2.35,2.54,3.5
5.359630107879639,0.87,2.64,2.31,3.61
5.369906902313232,1.1,3.08,1.91,3.78
5.3797478675842285,1.02,3.58,1.58,4.04
5.389896869659424,0.53,3.84,1.33,4.09
5.4086339473724365,-0.05,4.03,1.07,4.16
5.4096620082855225,-0.41,4.22,0.71,4.29
5.419936895370483,-0.54,4.63,0.36,4.67
5.429871082305908,-0.52,4.93,0.05,4.95
5.4398698806762695,-0.26,4.61,-0.18,4.62
5.458860874176025,0.43,3.8,-0.26,3.83
5.4596638679504395,1.19,2.71,-0.46,2.99
5.469907999038696,1.75,1.49,-1.04,2.52
5.479959964752197,2.1,0.39,-1.92,2.87
5.489841938018799,2.32,-0.38,-2.94,3.76
5.508792877197266,2.44,-0.72,-3.86,4.62
5.509675979614258,2.18,-0.66,-4.37,4.92
5.519932985305786,1.79,-0.34,-4.25,4.62
5.529783010482788,1.44,-0.02,-3.46,3.74
5.5399298667907715,1.14,0.16,-2.27,2.54
5.558377981185913,0.78,0.27,-1.07,1.35
5.559753894805908,0.36,0.23,-0.22,0.48
5.569890975952148,-0.02,0.01,0.23,0.23
5.579783916473389,-0.25,-0.33,0.45,0.61
5.589828968048096,-0.42,-0.79,0.51,1.02
5.608614921569824,-0.66,-1.24,0.52,1.49
5.609671115875244,-0.97,-1.67,0.41,1.97
5.619842052459717,-1.33,-2.11,0.22,2.5
5.629766941070557,-1.67,-2.6,-0.07,3.09
5.639856815338135,-1.86,-3.08,-0.39,3.61
5.65882682800293,-1.8,-3.46,-0.67,3.95
5.659660816192627,-1.47,-3.54,-0.97,3.95
5.669846057891846,-0.94,-3.64,-1.27,3.96
5.679728984832764,-0.35,-3.7,-1.48,4.0
5.6898298263549805,0.15,-3.62,-1.52,3.92
5.709182977676392,0.48,-3.44,-1.4,3.74
5.709800958633423,0.63,-3.2,-1.2,3.47
5.719834804534912,0.63,-2.87,-0.89,3.07
5.729773044586182,0.48,-2.55,-0.48,2.63
5.739931106567383,0.32,-2.22,0.01,2.24
5.758731842041016,0.22,-1.78,0.57,1.88
5.759669780731201,0.16,-1.33,1.09,1.72
5.769865989685059,0.09,-0.9,1.54,1.78
5.779688835144043,0.1,-0.42,1.86,1.9
5.789874076843262,0.13,0.03,2.07,2.07
5.808394908905029,0.12,0.48,2.2,2.25
5.809680938720703,0.03,0.95,2.35,2.53
5.819890975952148,-0.02,1.48,2.47,2.87
5.829759120941162,-0.07,2.0,2.55,3.24
5.839886903762817,-0.13,2.52,2.58,3.6
5.858802795410156,-0.19,3.07,2.54,3.98
5.85966682434082,-0.2,3.41,2.38,4.16
5.869883060455322,-0.19,3.53,2.0,4.06
5.879668951034546,-0.1,3.47,1.4,3.74
5.889849901199341,0.17,3.35,0.59,3.4
5.90918493270874,0.72,3.46,-0.22,3.54
5.909657955169678,1.3,3.86,-0.77,4.14
5.919861793518066,1.45,4.16,-0.96,4.5
5.929811954498291,1.15,4.12,-0.81,4.35
5.9398698806762695,0.82,3.74,-0.44,3.85
5.959253787994385,0.5,3.01,-0.32,3.06
5.959772109985352,0.12,2.04,-0.86,2.21
5.969945907592773,-0.26,0.96,-1.79,2.04
5.979681968688965,-0.57,-0.01,-2.86,2.91
5.98980188369751,-0.9,-0.51,-3.7,3.84
6.0090649127960205,-1.27,-0.49,-4.2,4.41
6.00970983505249,-1.65,-0.24,-4.14,4.46
6.019896030426025,-1.94,0.29,-3.36,3.89
6.029774904251099,-2.11,0.76,-2.07,3.05
6.039973974227905,-2.17,0.94,-0.72,2.47
6.059412956237793,-2.06,1.1,0.49,2.38
6.059798002243042,-1.82,0.96,1.35,2.46
6.069924831390381,-1.53,0.4,1.56,2.22
6.079720973968506,-1.19,-0.33,1.26,1.76
6.089879989624023,-0.91,-0.99,0.69,1.51
6.109425067901611,-0.63,-1.54,0.1,1.66
6.109802961349487,-0.25,-2.04,-0.31,2.07
6.119924068450928,0.2,-2.48,-0.54,2.54
6.129746913909912,0.62,-2.87,-0.67,3.01
6.1399619579315186,0.88,-3.24,-0.76,3.44
6.160001993179321,1.01,-3.47,-0.83,3.7
6.160368919372559,0.98,-3.64,-0.89,3.87
6.169917106628418,0.75,-3.75,-0.96,3.94
6.179738998413086,0.49,-3.79,-1.04,3.96
6.1898839473724365,0.18,-3.71,-1.03,3.85
6.210075855255127,-0.15,-3.64,-0.92,3.75
6.210442066192627,-0.29,-3.52,-0.74,3.6
6.219939947128296,-0.28,-3.26,-0.47,3.3
6.229811906814575,-0.32,-2.92,-0.16,2.94
6.239887952804565,-0.44,-2.55,0.15,2.59
6.26031494140625,-0.49,-2.13,0.43,2.22
6.260684013366699,-0.45,-1.58,0.7,1.78
6.269967079162598,-0.39,-0.99,0.95,1.42
6.279719829559326,-0.36,-0.46,1.23,1.36
6.289957046508789,-0.43,0.02,1.5,1.56
6.309924125671387,-0.51,0.49,1.69,1.83
6.310295104980469,-0.5,0.96,1.81,2.1
6.319886922836304,-0.48,1.46,1.87,2.42
6.329794883728027,-0.29,1.88,1.94,2.71
6.339877128601074,0.08,2.18,1.95,2.92
6.360217094421387,0.48,2.43,1.88,3.1
6.360595941543579,0.89,2.77,1.68,3.35
6.369935989379883,1.16,3.13,1.38,3.61
6.379801988601685,1.1,3.33,0.94,3.63
6.389920949935913,0.74,3.39,0.42,3.49
6.409978866577148,0.39,3.65,-0.07,3.67
6.410336017608643,0.28,4.42,-0.4,4.44
6.419956922531128,0.33,5.14,-0.42,5.16
6.4305739402771,0.55,5.24,-0.02,5.26
6.43982195854187,0.96,4.89,0.57,5.01
6.460422039031982,1.15,4.18,0.75,4.39
6.460803031921387,1.02,2.82,0.14,3.0
6.469867944717407,0.82,1.25,-1.12,1.86
6.479780912399292,0.88,-0.17,-2.29,2.45
6.48991584777832,1.12,-1.27,-3.33,3.73
6.510433912277222,1.45,-1.68,-4.13,4.68
6.510765075683594,1.72,-1.68,-4.28,4.9
6.52000093460083,1.82,-1.42,-3.64,4.31
6.52997899055481,1.82,-1.21,-2.36,3.21
6.5400800704956055,1.62,-1.1,-1.09,2.24
6.560455799102783,1.28,-0.85,-0.09,1.53
6.5608439445495605,0.93,-0.64,0.57,1.26
6.5698699951171875,0.49,-0.59,0.94,1.21
6.579692840576172,-0.01,-0.7,1.07,1.27
6.590008974075317,-0.4,-0.93,1.04,1.45
6.610170841217041,-0.67,-1.23,0.89,1.65
6.61053991317749,-0.9,-1.46,0.64,1.83
6.619946002960205,-1.1,-1.6,0.3,1.96
6.629918098449707,-1.18,-1.64,-0.03,2.02
6.639962911605835,-1.22,-1.76,-0.4,2.17
6.661062002182007,-1.17,-1.88,-0.77,2.34
6.6614460945129395,-1.02,-2.09,-1.1,2.57
6.669888973236084,-0.8,-2.24,-1.43,2.77
6.6800220012664795,-0.48,-2.36,-1.73,2.96
6.690035820007324,-0.14,-2.53,-1.98,3.21
6.710812091827393,0.13,-2.56,-2.14,3.33
6.7111639976501465,0.34,-2.48,-2.2,3.33
6.71989107131958,0.43,-2.4,-2.03,3.17
6.730073928833008,0.35,-2.24,-1.65,2.8
6.740045070648193,0.29,-2.04,-1.12,2.34
6.760525941848755,0.31,-1.8,-0.56,1.91
6.760891914367676,0.34,-1.49,-0.03,1.52
6.769881963729858,0.36,-1.09,0.52,1.26
6.780278921127319,0.41,-0.73,0.97,1.28
6.790054798126221,0.56,-0.34,1.34,1.49
6.8104658126831055,0.75,0.04,1.6,1.76
6.810834884643555,0.84,0.4,1.78,2.0
6.81990909576416,0.75,0.81,1.92,2.21
6.830379962921143,0.5,1.18,2.08,2.44
6.839890956878662,0.21,1.54,2.23,2.71
6.86078405380249,-0.03,1.93,2.33,3.02
6.86114501953125,-0.21,2.34,2.35,3.32
6.869851112365723,-0.31,2.77,2.26,3.58
6.880467891693115,-0.26,3.07,2.11,3.73
6.88995885848999,-0.04,3.27,1.89,3.77
6.910876989364624,0.29,3.45,1.63,3.82
6.9112389087677,0.66,3.68,1.25,3.94
6.91995096206665,1.06,4.11,0.83,4.32
6.930406093597412,1.16,4.41,0.69,4.61
6.939906120300293,0.69,4.26,0.75,4.38
6.960806846618652,0.07,3.76,0.81,3.84
6.961169958114624,-0.35,2.95,0.53,3.01
6.969973087310791,-0.57,1.83,-0.25,1.93
6.979790925979614,-0.53,0.63,-1.21,1.46
6.994452953338623,-0.4,-0.72,-2.3,2.44
6.999897003173828,-0.32,-1.65,-3.26,3.66
7.009880065917969,-0.45,-1.97,-3.9,4.39
7.019905090332031,-0.94,-1.87,-4.08,4.58
7.029946804046631,-1.73,-1.55,-3.71,4.37
7.04372501373291,-2.35,-0.89,-2.76,3.73
7.049778938293457,-2.75,-0.27,-1.52,3.15
7.059855937957764,-2.67,0.4,0.11,2.7
7.0698628425598145,-2.71,0.92,1.14,3.08
7.079898834228516,-2.59,1.09,1.5,3.18
7.094425916671753,-2.03,0.93,1.58,2.73
7.099862098693848,-1.38,0.24,1.17,1.82
7.109850883483887,-0.83,-0.56,0.62,1.17
7.120028018951416,-0.17,-1.2,0.09,1.21
7.129964828491211,0.28,-1.79,-0.29,1.83
7.1458210945129395,0.68,-2.28,-0.48,2.42
7.149823904037476,0.75,-2.48,-0.39,2.62
7.159883975982666,0.79,-2.91,-0.37,3.03
7.169960021972656,0.97,-3.24,-0.36,3.4
7.179998874664307,1.06,-3.33,-0.44,3.52
7.195482969284058,0.95,-3.43,-0.65,3.61
7.199845790863037,0.69,-3.41,-0.78,3.56
7.209994792938232,0.18,-3.38,-0.93,3.51
7.21997594833374,-0.39,-3.26,-1.01,3.43
7.2299559116363525,-0.72,-3.04,-1.0,3.28
7.246584892272949,-0.78,-2.84,-0.85,3.06
7.2498719692230225,-0.65,-2.61,-0.5,2.73
7.2598700523376465,-0.46,-2.25,-0.09,2.29
7.26997184753418,-0.37,-1.82,0.29,1.87
7.280065059661865,-0.29,-1.29,0.59,1.44
7.296761989593506,-0.26,-0.7,0.85,1.13
7.299796104431152,-0.24,-0.14,1.15,1.18
7.309854984283447,-0.22,0.33,1.44,1.49
7.319938898086548,-0.22,0.76,1.72,1.89
7.329967021942139,-0.26,1.15,1.93,2.26
7.34657096862793,-0.23,1.51,2.06,2.56
7.35004997253418,-0.11,1.86,2.16,2.85
7.359925985336304,0.24,2.12,2.26,3.1
7.370021820068359,0.74,2.32,2.33,3.37
7.379938125610352,1.08,2.57,2.33,3.63
7.39645791053772,1.03,2.85,2.28,3.79
7.3999059200286865,0.7,3.1,2.2,3.86
7.409928798675537,0.13,3.42,1.98,3.95
7.4199957847595215,-0.41,3.98,1.7,4.34
7.429991960525513,-0.65,4.76,1.48,5.02
7.445991039276123,-0.6,5.39,1.36,5.59
7.44993782043457,-0.16,5.53,1.27,5.67
7.4599199295043945,0.58,5.04,0.95,5.16
7.469986915588379,1.2,4.05,0.2,4.22
7.479970932006836,1.33,2.57,-0.96,3.04
7.495575904846191,1.5,0.72,-2.34,2.87
7.499973773956299,2.0,-0.73,-3.96,4.49
7.510021924972534,2.48,-1.46,-5.28,6.01
7.520036935806274,2.65,-1.68,-6.11,6.86
7.530035972595215,2.52,-1.6,-6.1,6.79
7.545702934265137,2.14,-1.3,-5.12,5.69
7.549820899963379,1.78,-1.11,-3.52,4.09
7.560023784637451,1.52,-0.95,-2.01,2.69
7.570019006729126,0.99,-0.7,-1.11,1.64
7.580022811889648,0.42,-0.59,-0.27,0.77
7.597476005554199,-0.02,-0.78,0.4,0.87
7.600057125091553,-0.44,-1.12,0.82,1.45
7.609992980957031,-0.88,-1.44,1.14,2.03
7.620160102844238,-1.26,-1.8,1.23,2.51
7.630054950714111,-1.62,-2.22,1.16,2.98
7.647390842437744,-1.88,-2.48,0.99,3.26
7.650017976760864,-2.01,-2.72,0.74,3.46
7.659989833831787,-1.99,-2.84,0.48,3.5
7.670048952102661,-1.75,-2.9,0.21,3.39
7.680043935775757,-1.34,-2.94,-0.11,3.23
7.696882009506226,-0.86,-2.88,-0.44,3.03
7.700018882751465,-0.52,-2.87,-0.74,3.0
7.7099449634552,-0.23,-2.91,-0.93,3.06
7.720037937164307,-0.06,-2.74,-1.05,2.93
7.730020046234131,-0.01,-2.48,-0.99,2.67
7.746510982513428,-0.01,-2.17,-0.74,2.29
7.749856948852539,0.05,-1.79,-0.33,1.82
7.760128974914551,0.13,-1.37,0.19,1.38
7.7701849937438965,0.17,-0.95,0.71,1.19
7.779994964599609,0.18,-0.4,1.15,1.23
7.796449899673462,0.26,0.17,1.58,1.61
7.799943923950195,0.28,0.59,1.94,2.04
7.809940814971924,0.29,0.84,2.2,2.37
7.820095062255859,0.29,0.99,2.27,2.49
7.83001184463501,0.24,1.13,2.08,2.37
7.846674919128418,0.14,1.39,1.72,2.21
7.849855899810791,0.09,1.73,1.39,2.22
7.859994888305664,0.06,2.15,1.19,2.45
7.870038032531738,-0.02,2.52,1.13,2.76
7.880068778991699,-0.08,2.78,1.09,2.98
7.896660804748535,-0.06,3.06,0.98,3.21
7.899850845336914,0.03,3.23,0.68,3.3
7.909941911697388,0.28,3.27,0.23,3.29
7.920093059539795,0.78,3.43,-0.19,3.52
7.930048942565918,1.35,3.84,-0.35,4.08
7.946537017822266,1.6,4.08,-0.13,4.38
7.9499077796936035,1.34,3.82,0.36,4.06
7.960016965866089,0.63,3.42,0.67,3.54
7.97003698348999,-0.1,2.71,0.3,2.72
7.980001926422119,-0.73,1.68,-0.67,1.95
7.996645927429199,-1.18,0.48,-1.9,2.28
7.999902009963989,-1.5,-0.46,-3.0,3.38
8.0103919506073,-1.76,-1.28,-3.94,4.5
8.018757820129395,-1.98,-1.55,-4.43,5.09
8.028647899627686,-2.04,-1.22,-4.32,4.93
8.045395851135254,-1.85,-0.64,-3.49,4.0
8.048593997955322,-1.86,-0.33,-2.25,2.93
8.05881404876709,-1.65,-0.06,-0.77,1.82
8.06880807876587,-1.21,0.43,0.83,1.52
8.07881784439087,-1.12,0.48,1.61,2.01
8.096614837646484,-1.08,0.33,2.06,2.34
8.098509788513184,-0.94,-0.22,1.9,2.13
8.108977794647217,-0.7,-0.87,1.42,1.8
8.11880898475647,-0.36,-1.38,0.89,1.68
8.128772974014282,0.07,-1.87,0.42,1.91
8.147536993026733,0.51,-2.32,0.12,2.37
8.148626804351807,0.96,-2.65,0.0,2.81
8.158797979354858,1.28,-2.94,-0.09,3.2
8.168558120727539,1.41,-3.13,-0.22,3.43
8.178694009780884,1.33,-3.27,-0.44,3.55
8.19703197479248,1.07,-3.32,-0.72,3.56
8.19867491722107,0.72,-3.34,-0.99,3.55
8.208797931671143,0.32,-3.33,-1.22,3.56
8.218609809875488,-0.14,-3.21,-1.27,3.45
8.229005813598633,-0.46,-3.02,-1.09,3.24
8.247374057769775,-0.61,-2.78,-0.68,2.92
8.248807907104492,-0.56,-2.41,-0.19,2.48
8.258881092071533,-0.48,-1.96,0.27,2.03
8.268569946289062,-0.48,-1.52,0.68,1.73
8.278864860534668,-0.56,-1.02,1.07,1.58
8.297728061676025,-0.66,-0.41,1.4,1.6
8.298614025115967,-0.73,0.09,1.69,1.84
8.309092044830322,-0.69,0.51,1.88,2.06
8.31882905960083,-0.55,0.8,1.98,2.2
8.32878303527832,-0.3,1.01,2.0,2.26
8.347775936126709,0.0,1.24,1.92,2.28
8.348514080047607,0.29,1.52,1.72,2.31
8.358797073364258,0.52,1.8,1.5,2.4
8.36863398551941,0.75,2.05,1.27,2.52
8.378673076629639,0.96,2.37,1.08,2.77
8.39745807647705,1.08,2.7,0.86,3.03
8.398584842681885,0.96,3.03,0.63,3.24
8.410095930099487,0.62,3.4,0.41,3.48
8.419946908950806,0.19,3.6,0.22,3.61
8.430157899856567,-0.11,3.96,0.06,3.96
8.448823928833008,-0.26,4.5,0.16,4.51
8.450286865234375,-0.24,4.63,0.37,4.65
8.460110902786255,0.1,4.43,0.54,4.46
8.470096111297607,0.53,3.88,0.37,3.93
8.480039119720459,0.71,2.93,-0.35,3.03
8.498218059539795,0.76,1.75,-1.43,2.38
8.500494956970215,0.86,0.48,-2.45,2.64
8.510289907455444,1.12,-0.51,-3.38,3.59
8.520155906677246,1.43,-0.89,-4.1,4.43
8.52998399734497,1.5,-0.83,-4.44,4.75
8.548717021942139,1.47,-0.87,-4.13,4.46
8.5504789352417,1.86,-0.66,-3.11,3.68
8.560114860534668,1.69,-0.56,-1.87,2.58
8.570120811462402,1.06,-0.34,-0.78,1.35
8.580054998397827,0.51,-0.11,0.2,0.55
8.598816871643066,0.19,-0.27,0.75,0.81
8.600640773773193,0.18,-0.68,0.91,1.15
8.61007308959961,0.1,-1.21,0.86,1.48
8.62002182006836,-0.13,-1.72,0.74,1.87
8.630034923553467,-0.45,-2.17,0.64,2.3
8.64896297454834,-0.76,-2.51,0.61,2.69
8.649885892868042,-0.98,-2.74,0.58,2.96
8.66002893447876,-1.07,-2.88,0.54,3.11
8.6698579788208,-1.21,-2.98,0.44,3.24
8.67994499206543,-1.21,-3.04,0.21,3.27
8.698523998260498,-1.01,-3.07,-0.19,3.23
8.699896812438965,-0.74,-3.08,-0.68,3.23
8.709929943084717,-0.45,-3.08,-1.07,3.29
8.719995021820068,-0.19,-2.99,-1.32,3.27
8.730015993118286,0.01,-2.84,-1.39,3.16
8.748411893844604,0.15,-2.61,-1.27,2.9
8.749864101409912,0.2,-2.33,-0.9,2.5
8.75988483428955,0.14,-2.02,-0.36,2.05
8.770092964172363,0.13,-1.65,0.21,1.66
8.77998685836792,0.14,-1.15,0.66,1.33
8.798285961151123,0.19,-0.54,1.02,1.16
8.799779891967773,0.36,0.09,1.39,1.43
8.810003995895386,0.47,0.66,1.78,1.95
8.819944858551025,0.55,1.15,2.16,2.5
8.83004379272461,0.61,1.59,2.42,2.95
8.848333835601807,0.66,1.91,2.46,3.18
8.84993290901184,0.74,2.19,2.27,3.23
8.859920978546143,0.81,2.5,1.95,3.27
8.869946002960205,0.81,2.85,1.65,3.39
8.88000202178955,0.76,3.17,1.42,3.55
8.898252964019775,0.72,3.43,1.23,3.71
8.899908065795898,0.61,3.65,0.97,3.82
8.91011381149292,0.54,3.78,0.55,3.85
8.91991400718689,0.57,3.81,0.0,3.85
8.93003797531128,0.72,3.92,-0.45,4.01
8.948312997817993,0.73,4.16,-0.62,4.26
8.950002908706665,0.44,4.13,-0.45,4.17
8.959988117218018,-0.09,4.04,-0.05,4.04
8.969922065734863,-0.5,3.74,0.28,3.78
8.980159997940063,-0.72,2.97,0.23,3.06
8.999001026153564,-0.91,1.88,-0.38,2.12
8.999826908111572,-1.12,0.7,-1.38,1.91
9.01006293296814,-1.3,-0.31,-2.56,2.88
9.019925117492676,-1.62,-1.04,-3.62,4.1
9.029998779296875,-1.9,-1.4,-4.31,4.91
9.048957824707031,-2.03,-1.41,-4.49,5.12
9.049871921539307,-1.93,-1.17,-3.89,4.49
9.06006383895874,-1.48,-0.85,-2.7,3.19
9.07000207901001,-0.94,-0.56,-1.48,1.84
9.080069065093994,-0.5,-0.36,-0.25,0.66
9.098948955535889,-0.09,-0.45,0.7,0.83
9.099900007247925,0.2,-0.73,1.19,1.41
9.11005687713623,0.31,-1.19,1.28,1.77
9.119978904724121,0.27,-1.74,1.13,2.09
9.130031108856201,0.2,-2.17,0.88,2.35
9.149235963821411,0.15,-2.64,0.67,2.72
9.149873971939087,0.22,-2.99,0.59,3.05
9.160051822662354,0.29,-3.34,0.57,3.4
9.169969081878662,0.23,-3.55,0.54,3.59
9.17996883392334,0.16,-3.63,0.41,3.65
9.198863983154297,0.12,-3.64,0.22,3.64
9.199901103973389,-0.01,-3.55,-0.02,3.55
9.210036993026733,-0.25,-3.43,-0.33,3.45
9.220125913619995,-0.45,-3.3,-0.62,3.38
9.230040073394775,-0.63,-3.2,-0.82,3.36
9.248960971832275,-0.71,-3.09,-0.97,3.31
9.249888896942139,-0.62,-2.89,-0.97,3.11
9.260077953338623,-0.53,-2.59,-0.83,2.77
9.269946098327637,-0.45,-2.19,-0.52,2.29
9.280092000961304,-0.39,-1.74,-0.03,1.78
9.298995971679688,-0.42,-1.3,0.52,1.46
9.29988694190979,-0.34,-0.83,1.02,1.35
9.310110092163086,-0.35,-0.34,1.42,1.5
9.319952964782715,-0.4,0.16,1.77,1.82
9.330127000808716,-0.39,0.73,2.07,2.22
9.349193096160889,-0.36,1.32,2.34,2.71
9.349946975708008,-0.22,1.88,2.57,3.19
9.360023975372314,-0.08,2.41,2.73,3.64
9.370072841644287,0.16,2.9,2.79,4.02
9.380066871643066,0.43,3.22,2.5,4.09
9.399418830871582,0.63,3.48,1.87,4.0
9.399926900863647,0.61,3.7,1.1,3.9
9.410097122192383,0.47,3.78,0.39,3.82
9.420001029968262,0.31,3.84,-0.17,3.85
9.430066108703613,0.24,4.47,-0.38,4.49
9.449610948562622,0.4,5.25,-0.11,5.26
9.449984073638916,0.69,5.41,0.54,5.48
9.460168838500977,1.08,5.03,1.16,5.27
9.470024108886719,1.39,4.32,1.06,4.66
9.480057954788208,1.39,3.0,0.0,3.3
9.499459981918335,1.07,1.51,-1.47,2.36
9.499859809875488,1.15,0.08,-2.78,3.0
9.510136127471924,1.84,-1.13,-3.96,4.51
9.520040035247803,2.38,-1.63,-4.78,5.58
9.53000783920288,2.59,-1.68,-4.89,5.78
9.549729824066162,2.37,-1.52,-4.21,5.06
9.550103902816772,1.88,-1.43,-2.88,3.72
9.560146808624268,1.21,-1.38,-1.64,2.46
9.57004189491272,0.53,-1.26,-0.75,1.55
9.580078125,-0.03,-1.14,-0.1,1.14
9.59962797164917,-0.31,-1.11,0.41,1.22
9.600006103515625,-0.27,-1.24,0.88,1.54
9.610119819641113,-0.12,-1.53,1.24,1.97
9.620057106018066,-0.08,-1.82,1.42,2.3
9.630105018615723,-0.2,-2.09,1.43,2.54
9.65044093132019,-0.4,-2.34,1.34,2.72
9.650842905044556,-0.54,-2.53,1.15,2.83
9.660149097442627,-0.62,-2.7,0.92,2.91
9.66998291015625,-0.69,-2.8,0.58,2.94
9.68015193939209,-0.71,-2.73,0.12,2.82
9.699917793273926,-0.62,-2.79,-0.41,2.88
9.70029091835022,-0.5,-2.83,-0.88,3.0
9.710102081298828,-0.32,-2.78,-1.23,3.05
9.719812870025635,-0.23,-2.68,-1.5,3.07
9.730118989944458,-0.15,-2.43,-1.59,2.9
9.749802112579346,-0.14,-2.1,-1.45,2.55
9.750178813934326,-0.11,-1.75,-1.05,2.04
9.760130882263184,-0.04,-1.4,-0.48,1.48
9.770081996917725,0.01,-0.94,0.1,0.94
9.780144929885864,-0.02,-0.43,0.57,0.71
9.799872875213623,0.04,0.11,0.98,0.98
9.800250053405762,0.14,0.57,1.3,1.42
9.810136795043945,0.1,0.83,1.5,1.71
9.82003402709961,0.14,1.09,1.62,1.95
9.830101013183594,0.33,1.39,1.59,2.13
9.849795818328857,0.5,1.71,1.45,2.29
9.850171089172363,0.58,2.02,1.33,2.48
9.860156059265137,0.55,2.41,1.22,2.75
9.870028972625732,0.48,2.79,1.07,3.02
9.880188941955566,0.41,3.15,0.91,3.3
9.900438785552979,0.42,3.37,0.78,3.48
9.900774955749512,0.4,3.37,0.53,3.43
9.910140037536621,0.42,3.3,0.14,3.32
9.920074939727783,0.71,3.43,-0.3,3.51
9.930139064788818,1.0,3.62,-0.63,3.8
9.950154781341553,1.07,3.63,-0.57,3.82
9.950524806976318,0.72,3.45,-0.07,3.52
9.960127830505371,0.11,3.27,0.58,3.32
9.970071792602539,-0.38,2.89,0.92,3.05
9.980105876922607,-0.59,2.14,0.63,2.3
10.000286102294922,-0.73,1.18,-0.2,1.4
10.000653982162476,-0.8,0.21,-1.24,1.49
10.010143995285034,-0.97,-0.54,-2.19,2.45
10.020057916641235,-1.22,-1.1,-3.01,3.42
10.030210971832275,-1.62,-1.23,-3.59,4.12
10.050939083099365,-1.91,-0.87,-3.72,4.27
10.051306962966919,-1.85,-0.13,-3.35,3.82
10.060269832611084,-1.66,0.27,-2.42,2.94
10.070014953613281,-1.37,0.31,-1.27,1.89
10.080243110656738,-0.99,0.34,-0.24,1.07
10.100320816040039,-0.75,0.25,0.46,0.91
10.100668907165527,-0.75,-0.13,0.64,0.99
10.11037302017212,-0.73,-0.6,0.37,1.01
10.120140075683594,-0.62,-1.05,-0.06,1.22
10.130311012268066,-0.49,-1.61,-0.4,1.72
10.151161909103394,-0.29,-2.11,-0.59,2.21
10.151542901992798,-0.08,-2.51,-0.66,2.59
10.160231113433838,0.17,-2.78,-0.63,2.85
10.17005205154419,0.45,-2.99,-0.62,3.08
10.18011999130249,0.63,-3.07,-0.62,3.19
10.201114892959595,0.78,-3.14,-0.64,3.29
10.201498985290527,0.86,-3.15,-0.65,3.32
10.210206985473633,0.86,-3.28,-0.61,3.44
10.220048904418945,0.67,-3.25,-0.49,3.35
10.230228900909424,0.57,-3.06,-0.35,3.13
10.250826835632324,0.37,-2.89,-0.22,2.92
10.251194953918457,0.15,-2.79,-0.1,2.79
10.260211944580078,0.05,-2.68,0.11,2.68
10.270139932632446,0.02,-2.45,0.4,2.48
10.280180931091309,-0.05,-2.21,0.69,2.31
10.301351070404053,-0.15,-1.85,0.93,2.07
10.301722049713135,-0.26,-1.37,1.11,1.78
10.310183048248291,-0.37,-0.82,1.28,1.56
10.320225954055786,-0.39,-0.25,1.49,1.56
10.33021593093872,-0.4,0.23,1.75,1.8
10.351624965667725,-0.37,0.74,2.02,2.18
10.351990938186646,-0.32,1.29,2.17,2.54
10.360054016113281,-0.23,1.82,2.14,2.81
10.370327949523926,0.02,2.22,1.95,2.95
10.380241870880127,0.46,2.56,1.6,3.05
10.401029109954834,0.77,2.9,1.19,3.22
10.401400089263916,0.79,3.12,0.83,3.32
10.410144805908203,0.62,3.2,0.76,3.34
10.420401096343994,0.2,3.54,0.76,3.62
10.430301904678345,-0.2,4.1,0.88,4.19
10.451161861419678,-0.72,4.82,1.05,4.98
10.451520919799805,-1.12,5.41,1.38,5.69
10.460148811340332,-1.04,5.76,1.93,6.16
10.470539093017578,-0.64,5.66,2.34,6.15
10.480178833007812,-0.06,4.73,2.18,5.2
10.50164794921875,0.28,2.98,1.13,3.19
10.502018928527832,0.71,1.11,-0.5,1.4
10.510288000106812,1.17,-0.46,-2.19,2.52
10.520524978637695,1.77,-1.39,-3.77,4.39
10.530334949493408,2.24,-1.85,-4.98,5.76
10.551584959030151,2.47,-1.9,-5.56,6.37
10.551951885223389,2.34,-1.57,-5.39,6.08
10.56015396118164,1.97,-1.07,-4.32,4.86
10.570677995681763,1.52,-0.84,-2.85,3.33
10.580327033996582,1.16,-0.57,-1.57,2.03
10.601984024047852,0.91,-0.18,-0.48,1.04
10.602365016937256,0.56,-0.11,0.46,0.73
10.610232830047607,0.3,-0.36,1.2,1.28
10.620737075805664,0.14,-0.81,1.26,1.5
10.630353927612305,0.02,-1.23,1.1,1.65
10.652323961257935,-0.13,-1.72,0.73,1.87
10.652692794799805,-0.45,-2.14,0.16,2.19
10.660171031951904,-0.72,-2.46,-0.28,2.57
10.670144081115723,-0.94,-2.71,-0.53,2.91
10.6802499294281,-1.08,-2.87,-0.67,3.13
10.702050924301147,-1.09,-2.99,-0.76,3.27
10.702418804168701,-0.94,-2.95,-0.87,3.21
10.710222005844116,-0.72,-2.86,-0.97,3.1
10.720139980316162,-0.51,-2.84,-1.01,3.05
10.730349063873291,-0.35,-2.82,-1.02,3.01
10.75259780883789,-0.27,-2.71,-1.02,2.9
10.75296401977539,-0.26,-2.56,-0.94,2.73
10.760297775268555,-0.22,-2.44,-0.79,2.57
10.770172119140625,-0.1,-2.27,-0.56,2.34
10.78029489517212,0.13,-1.93,-0.23,1.94
10.802480936050415,0.33,-1.58,0.11,1.61
10.802856922149658,0.56,-1.2,0.43,1.39
10.810347080230713,0.75,-0.74,0.68,1.25
10.820128917694092,0.9,-0.14,0.91,1.28
10.830431938171387,1.06,0.47,1.13,1.61
10.851053953170776,1.15,0.92,1.3,1.96
10.851407051086426,0.95,1.54,1.65,2.44
10.860290050506592,0.64,2.15,2.04,3.03
10.870214939117432,0.19,2.73,2.34,3.6
10.880445003509521,-0.22,3.26,2.53,4.13
10.90147590637207,-0.53,3.65,2.65,4.54
10.90182089805603,-0.71,3.74,2.55,4.58
10.910099983215332,-0.67,3.57,2.13,4.21
10.920123100280762,-0.41,3.3,1.45,3.62
10.930315971374512,0.07,3.3,0.71,3.37
10.951759815216064,0.64,3.58,0.23,3.64
10.952122926712036,0.98,3.67,-0.01,3.79
10.960236072540283,0.76,3.51,0.0,3.59
10.97012996673584,0.23,3.23,0.18,3.24
10.98022985458374,-0.21,2.66,0.17,2.67
11.002381801605225,-0.38,1.47,-0.49,1.59
11.002767086029053,-0.37,0.24,-1.49,1.55
11.010247945785522,0.03,-0.44,-2.3,2.34
11.020143985748291,-0.46,-1.46,-3.21,3.55
11.030395030975342,-0.8,-1.51,-3.74,4.11
11.052311897277832,-1.27,-0.97,-3.63,3.96
11.052680015563965,-1.91,-0.43,-2.87,3.47
11.060313940048218,-1.99,0.21,-1.43,2.45
11.07027292251587,-2.09,0.51,-0.04,2.15
11.080420017242432,-2.11,0.73,1.08,2.48
11.102147102355957,-2.08,0.82,1.6,2.74
11.102512836456299,-1.75,0.57,1.57,2.41
11.11030101776123,-1.17,0.09,1.14,1.63
11.120224952697754,-0.43,-0.23,0.68,0.83
11.130320072174072,0.15,-0.68,0.44,0.82
11.152738094329834,0.05,-1.73,-0.25,1.74
11.153110980987549,0.24,-1.93,-0.75,2.08
11.160190105438232,0.42,-2.31,-1.06,2.57
11.17024278640747,0.68,-2.74,-1.37,3.13
11.180179119110107,0.9,-2.97,-1.64,3.51
11.202826023101807,1.05,-3.14,-1.49,3.63
11.203187942504883,1.13,-3.28,-1.41,3.74
11.210163116455078,1.0,-3.41,-1.49,3.85
11.22008991241455,0.75,-3.38,-1.57,3.8
11.23024296760559,0.35,-3.36,-1.48,3.68
11.254103899002075,-0.14,-3.39,-1.29,3.62
11.254476070404053,-0.57,-3.41,-1.03,3.6
11.260098934173584,-0.75,-3.23,-0.72,3.39
11.270190954208374,-0.66,-2.93,-0.23,3.01
11.280370950698853,-0.61,-2.49,0.28,2.57
11.301930904388428,-0.62,-2.11,0.82,2.34
11.302292823791504,-0.64,-1.64,1.28,2.17
11.310180902481079,-0.7,-1.14,1.69,2.15
11.320079803466797,-0.8,-0.67,2.07,2.31
11.336258888244629,-0.87,-0.22,2.49,2.64
11.349225997924805,-0.91,0.17,2.8,2.94
11.350008964538574,-0.9,0.49,2.79,2.97
11.36003589630127,-0.72,0.83,2.6,2.82
11.370007038116455,-0.48,1.08,2.4,2.67
11.38012409210205,-0.17,1.49,2.37,2.8
11.399483919143677,0.22,2.02,2.48,3.2
11.400085926055908,0.49,2.5,2.61,3.64
11.410079956054688,0.44,2.94,2.6,3.94
11.419977903366089,0.17,3.36,2.58,4.23
11.43008279800415,-0.1,3.83,2.59,4.62
11.450011968612671,-0.26,4.51,2.81,5.32
11.450326919555664,-0.2,5.36,3.26,6.27
11.460072040557861,-0.09,5.99,3.6,6.98
11.470109939575195,0.2,5.91,3.4,6.82
11.480222940444946,0.39,6.0,2.76,6.61
11.501305103302002,0.02,5.05,1.22,5.19
11.501676082611084,-0.12,3.1,-0.7,3.18
11.510241985321045,0.19,1.28,-2.73,3.02
11.52016305923462,1.48,0.31,-4.24,4.5
11.53028392791748,2.03,-0.83,-6.03,6.41
11.552681922912598,2.09,-1.53,-7.77,8.19
11.553042888641357,2.69,-0.95,-7.04,7.59
11.560110092163086,2.55,-0.81,-5.16,5.81
11.57024598121643,2.21,-0.42,-3.18,3.89
11.580400943756104,1.83,-0.08,-2.08,2.77
11.60416293144226,1.4,0.02,-1.28,1.89
11.604526996612549,1.01,-0.16,-0.38,1.09
11.610282897949219,0.64,-0.88,0.31,1.13
11.620296001434326,0.44,-1.48,0.8,1.73
11.630448818206787,0.39,-1.96,0.99,2.23
11.65414810180664,0.28,-2.46,1.02,2.67
11.654531955718994,0.15,-2.91,1.01,3.08
11.660316944122314,0.0,-3.2,1.0,3.35
11.670304775238037,-0.25,-3.36,0.96,3.5
11.680381774902344,-0.49,-3.37,0.84,3.5
11.704157829284668,-0.64,-3.25,0.62,3.36
11.704547882080078,-0.69,-3.1,0.23,3.18
11.710279941558838,-0.65,-3.01,-0.23,3.08
11.720289945602417,-0.46,-2.89,-0.67,3.0
11.730452060699463,-0.23,-2.84,-1.02,3.02
11.754151821136475,-0.04,-2.66,-1.24,2.93
11.754514932632446,-0.03,-2.52,-1.37,2.86
11.760304927825928,-0.08,-2.27,-1.36,2.64
11.770318984985352,-0.17,-1.93,-1.26,2.31
11.780407905578613,-0.16,-1.61,-0.95,1.87
11.804172039031982,-0.09,-1.3,-0.4,1.36
11.804549932479858,0.09,-0.91,0.21,0.93
11.810359954833984,0.38,-0.49,0.76,0.98
11.82030200958252,0.68,-0.09,1.13,1.32
11.83027195930481,0.88,0.32,1.34,1.63
11.854119777679443,0.96,0.78,1.45,1.9
11.854483127593994,0.91,1.25,1.49,2.14
11.860358953475952,0.85,1.79,1.59,2.54
11.87029504776001,0.83,2.25,1.69,2.93
11.880153894424438,0.75,2.63,1.72,3.23
11.904524803161621,0.64,3.01,1.73,3.53
11.904911041259766,0.65,3.42,1.75,3.89
11.910425901412964,0.59,3.71,1.68,4.11
11.920271873474121,0.45,3.87,1.53,4.18
11.930346012115479,0.39,3.77,1.15,3.96
11.955331802368164,0.49,3.64,0.48,3.7
11.955718994140625,0.83,3.79,-0.18,3.88
11.960333824157715,1.24,4.02,-0.52,4.23
11.970316886901855,1.38,4.01,-0.4,4.25
11.980297088623047,0.96,3.78,0.05,3.9
12.005241870880127,0.13,3.48,0.36,3.5
12.005619049072266,-0.63,2.86,0.11,2.93
12.01041293144226,-1.3,1.7,-0.56,2.21
12.020369052886963,-1.93,0.52,-1.34,2.4
12.030407905578613,-2.32,-0.57,-2.23,3.26
12.055803775787354,-2.56,-1.18,-3.08,4.17
12.056241035461426,-2.71,-1.39,-3.55,4.67
12.060297966003418,-2.64,-1.13,-3.56,4.57
12.070415019989014,-2.43,-0.48,-2.92,3.82
12.080408096313477,-2.07,-0.24,-2.11,2.96
12.104942798614502,-1.35,-0.23,-1.02,1.7
12.105324983596802,-0.38,-0.21,0.34,0.55
12.110376834869385,0.28,-0.23,1.08,1.13
12.120314121246338,0.63,-0.42,1.42,1.6
12.13034200668335,0.69,-0.9,1.35,1.76
12.15552806854248,0.49,-1.49,1.0,1.86
12.155909061431885,0.3,-1.91,0.61,2.02
12.160432815551758,0.18,-2.29,0.3,2.31
12.17032790184021,0.12,-2.74,0.12,2.74
12.1804039478302,0.04,-3.15,0.04,3.15
12.205679893493652,0.04,-3.45,0.01,3.45
12.206063985824585,0.22,-3.64,-0.11,3.64
12.210391998291016,0.42,-3.75,-0.38,3.79
12.220326900482178,0.38,-3.65,-0.64,3.72
12.230360984802246,0.3,-3.56,-0.81,3.66
12.255984783172607,0.05,-3.48,-0.96,3.61
12.25636100769043,-0.19,-3.38,-1.05,3.54
12.260387897491455,-0.37,-3.15,-1.19,3.38
12.270314931869507,-0.49,-2.82,-1.25,3.12
12.280395984649658,-0.51,-2.5,-1.18,2.81
12.290289878845215,-0.4,-2.19,-1.01,2.44
12.306003093719482,-0.32,-1.88,-0.77,2.05
12.310314893722534,-0.19,-1.34,-0.48,1.43
12.320364952087402,-0.15,-0.73,-0.09,0.75
12.330484867095947,-0.28,-0.22,0.43,0.55
12.340394973754883,-0.44,0.3,1.05,1.17
12.355339050292969,-0.59,0.87,1.77,2.05
12.360405921936035,-0.73,1.38,2.47,2.92
12.370373010635376,-0.74,1.79,2.8,3.4
12.380521774291992,-0.51,2.42,3.08,3.95
12.390371799468994,-0.18,2.96,3.27,4.41
12.405602931976318,0.15,3.2,3.18,4.51
12.410285949707031,0.32,3.43,2.92,4.51
12.420365810394287,0.2,3.54,2.53,4.35
12.430377006530762,-0.04,3.65,2.07,4.19
12.44032096862793,-0.35,3.69,1.58,4.02
12.455365896224976,-0.63,4.08,1.12,4.27
12.460312843322754,-0.64,4.81,1.02,4.95
12.4702730178833,0.14,4.83,1.28,4.99
12.48036789894104,0.53,5.56,1.76,5.85
12.490388870239258,0.82,4.8,1.45,5.08
12.505348920822144,1.29,3.16,0.52,3.45
12.510304927825928,1.7,1.81,-0.72,2.58
12.52028512954712,2.05,0.32,-1.99,2.87
12.530393123626709,2.53,-0.87,-3.19,4.16
12.540288925170898,2.81,-1.49,-4.18,5.25
12.55631399154663,2.74,-1.64,-4.63,5.62
12.560328006744385,2.31,-1.43,-4.39,5.16
12.57032585144043,1.6,-1.17,-3.49,4.01
12.580371856689453,0.89,-1.02,-2.23,2.6
12.590316772460938,0.25,-0.88,-0.9,1.28
12.606242895126343,-0.35,-0.89,0.14,0.96
12.610334873199463,-0.73,-0.94,0.79,1.42
12.620384931564331,-0.76,-1.08,1.12,1.73
12.630344867706299,-0.62,-1.37,1.21,1.93
12.64029312133789,-0.5,-1.78,1.05,2.12
12.65643310546875,-0.48,-2.16,0.77,2.34
12.660322904586792,-0.52,-2.48,0.44,2.57
12.670387983322144,-0.5,-2.69,0.09,2.73
12.680407047271729,-0.45,-2.87,-0.25,2.91
12.690342903137207,-0.51,-2.83,-0.68,2.95
12.706215858459473,-0.5,-2.79,-1.12,3.04
12.710340023040771,-0.52,-2.82,-1.5,3.23
12.720402002334595,-0.59,-2.78,-1.82,3.37
12.73027491569519,-0.58,-2.68,-1.99,3.38
12.740389823913574,-0.49,-2.57,-2.05,3.32
12.756264925003052,-0.4,-2.46,-1.97,3.17
12.760567903518677,-0.25,-2.24,-1.76,2.85
12.77031397819519,-0.02,-1.92,-1.39,2.37
12.78032898902893,0.25,-1.56,-0.85,1.79
12.790280818939209,0.48,-1.18,-0.18,1.28
12.80610990524292,0.59,-0.88,0.51,1.17
12.810338020324707,0.61,-0.56,1.18,1.44
12.820332050323486,0.58,-0.11,1.75,1.84
12.830262899398804,0.48,0.38,2.15,2.23
12.840177059173584,0.41,0.77,2.37,2.52
12.853307008743286,0.42,1.09,2.39,2.66
12.860188961029053,0.46,1.44,2.28,2.73
12.870141983032227,0.46,1.8,2.13,2.82
12.880300045013428,0.4,2.21,2.04,3.03
12.890305995941162,0.28,2.65,1.99,3.32
12.902208805084229,0.17,3.05,1.86,3.57
12.910384893417358,0.08,3.21,1.72,3.64
12.920331001281738,0.08,3.26,1.45,3.56
12.930463790893555,0.3,3.25,1.0,3.41
12.940226078033447,0.8,3.41,0.46,3.53
12.957495927810669,1.47,3.92,0.11,4.18
12.96037483215332,1.73,4.33,0.17,4.66
12.970361948013306,1.14,4.33,0.65,4.52
12.980369091033936,0.22,4.19,1.32,4.39
12.990444898605347,-0.87,3.78,1.11,4.03
13.008150100708008,-1.58,2.89,0.14,3.29
13.01037883758545,-1.66,1.41,-0.98,2.38
13.020435810089111,-1.62,0.05,-2.2,2.73
13.030384063720703,-1.53,-0.66,-3.37,3.75
13.040560960769653,-1.52,-0.91,-4.34,4.68
13.05793809890747,-1.68,-0.87,-4.79,5.15
13.060545921325684,-1.89,-0.53,-4.52,4.92
13.070488929748535,-1.89,-0.1,-3.55,4.02
13.080368041992188,-1.67,0.04,-2.22,2.77
13.090485095977783,-1.12,0.08,-0.82,1.39
13.108335971832275,-0.44,-0.07,0.3,0.53
13.110459804534912,-0.07,-0.51,0.87,1.01
13.120541095733643,-0.02,-1.05,0.97,1.42
13.130438804626465,-0.15,-1.6,0.74,1.76
13.1404128074646,-0.28,-2.13,0.37,2.17
13.157628059387207,-0.3,-2.61,0.08,2.62
13.160356998443604,-0.2,-2.99,-0.09,2.99
13.170562982559204,-0.04,-3.32,-0.17,3.32
13.180455923080444,0.19,-3.56,-0.21,3.57
13.19035005569458,0.43,-3.68,-0.24,3.71
13.208014011383057,0.67,-3.68,-0.32,3.75
13.210329055786133,0.83,-3.61,-0.47,3.73
13.220643997192383,0.89,-3.6,-0.65,3.76
13.230499982833862,0.72,-3.47,-0.82,3.63
13.240422010421753,0.4,-3.23,-0.9,3.37
13.256982803344727,0.27,-3.01,-0.82,3.13
13.260305881500244,0.23,-2.75,-0.63,2.83
13.270424842834473,0.14,-2.4,-0.35,2.42
13.280542850494385,0.03,-1.96,0.0,1.96
13.290502071380615,-0.14,-1.4,0.37,1.45
13.307833909988403,-0.28,-0.79,0.75,1.12
13.310347080230713,-0.45,-0.19,1.08,1.18
13.320396900177002,-0.69,0.32,1.34,1.54
13.330562114715576,-0.92,0.77,1.57,1.97
13.340410947799683,-1.03,1.15,1.71,2.3
13.35770297050476,-0.95,1.47,1.74,2.46
13.36034107208252,-0.73,1.86,1.75,2.65
13.370494842529297,-0.43,2.25,1.71,2.85
13.38056993484497,-0.06,2.52,1.63,3.0
13.390408039093018,0.39,2.81,1.51,3.21
13.408106803894043,0.75,3.09,1.3,3.43
13.41024112701416,0.81,3.25,1.07,3.51
13.420485019683838,0.48,3.37,0.87,3.51
13.430581092834473,-0.03,3.61,0.71,3.67
13.44045877456665,-0.42,4.2,0.77,4.29
13.457773923873901,-0.53,5.02,1.03,5.15
13.460384845733643,-0.38,5.55,1.58,5.78
13.4705491065979,0.06,5.58,2.2,5.99
13.480597972869873,0.74,5.11,2.09,5.57
13.490467071533203,1.16,3.75,0.93,4.03
13.507731914520264,1.45,2.08,-0.77,2.64
13.510333061218262,1.92,0.36,-2.42,3.11
13.520538806915283,2.65,-0.97,-3.79,4.72
13.53056287765503,3.33,-1.71,-4.9,6.16
13.540536880493164,3.49,-2.03,-5.47,6.79
13.557971000671387,3.06,-1.89,-5.21,6.33
13.560422897338867,2.35,-1.58,-4.04,4.93
13.570635795593262,1.62,-1.35,-2.41,3.2
13.580348014831543,0.84,-1.04,-0.89,1.6
13.59052300453186,0.25,-0.78,0.42,0.92
13.608768939971924,-0.24,-0.76,1.33,1.55
13.610572814941406,-0.57,-1.02,1.67,2.03
13.620514869689941,-0.71,-1.39,1.76,2.35
13.630354881286621,-0.85,-1.88,1.62,2.62
13.640580892562866,-1.01,-2.43,1.3,2.93
13.659000873565674,-1.15,-2.82,0.87,3.16
13.660565853118896,-1.27,-3.01,0.47,3.3
13.670658111572266,-1.29,-3.12,0.13,3.37
13.680623054504395,-1.17,-3.21,-0.21,3.42
13.690449953079224,-0.81,-3.07,-0.49,3.21
13.709190845489502,-0.43,-2.96,-0.76,3.08
13.710669040679932,-0.08,-2.95,-1.0,3.11
13.72070598602295,0.21,-2.92,-1.19,3.16
13.730520009994507,0.33,-2.84,-1.29,3.13
13.74049186706543,0.31,-2.61,-1.27,2.91
13.75887393951416,0.18,-2.27,-1.11,2.53
13.760879039764404,0.11,-1.97,-0.85,2.14
13.770668029785156,0.15,-1.58,-0.45,1.64
13.780559062957764,0.22,-1.16,0.01,1.18
13.790553092956543,0.31,-0.74,0.45,0.91
13.80899691581726,0.43,-0.23,0.84,0.97
13.810871124267578,0.49,0.2,1.18,1.29
13.82045602798462,0.61,0.66,1.42,1.68
13.830415964126587,0.68,1.16,1.59,2.08
13.84044599533081,0.64,1.67,1.71,2.47
13.85872197151184,0.47,2.13,1.85,2.86
13.8610258102417,0.22,2.53,1.98,3.22
13.870572090148926,-0.05,2.94,2.11,3.61
13.880592823028564,-0.26,3.24,2.14,3.89
13.890496969223022,-0.39,3.39,2.03,3.97
13.909124851226807,-0.35,3.41,1.74,3.84
13.911049842834473,-0.11,3.33,1.24,3.55
13.920628070831299,0.29,3.3,0.63,3.37
13.930552959442139,0.93,3.68,0.2,3.8
13.940521001815796,1.48,4.18,0.16,4.43
13.959167957305908,1.43,4.27,0.54,4.53
13.960279941558838,0.7,4.04,0.97,4.21
13.970500946044922,-0.31,3.75,1.12,3.92
13.980345964431763,-1.16,2.96,0.52,3.22
13.990602016448975,-1.91,1.67,-0.54,2.59
14.009159088134766,-2.32,0.12,-1.69,2.87
14.010453939437866,-2.33,-1.08,-2.82,3.81
14.020594120025635,-2.23,-1.66,-3.83,4.73
14.030378818511963,-2.14,-1.67,-4.51,5.26
14.040547847747803,-2.12,-1.35,-4.73,5.35
14.0587899684906,-2.02,-0.79,-4.24,4.76
14.060411930084229,-1.66,-0.3,-3.09,3.52
14.070613861083984,-1.09,0.01,-1.57,1.91
14.080523014068604,-0.43,0.27,0.04,0.5
14.090520858764648,0.05,0.22,1.27,1.28
14.109440803527832,0.31,-0.19,1.79,1.82
14.110476016998291,0.33,-0.68,1.63,1.79
14.120566844940186,0.24,-1.2,1.01,1.58
14.130567073822021,0.16,-1.77,0.27,1.79
14.1405348777771,0.16,-2.21,-0.16,2.22
14.159325122833252,0.27,-2.69,-0.27,2.71
14.160329818725586,0.47,-3.09,-0.25,3.13
14.170592784881592,0.71,-3.27,-0.16,3.35
14.180537939071655,0.95,-3.36,-0.13,3.49
14.190558910369873,1.1,-3.4,-0.15,3.57
14.209508895874023,1.03,-3.31,-0.26,3.47
14.210357904434204,0.88,-3.38,-0.37,3.51
14.220562934875488,0.47,-3.26,-0.41,3.31
14.23053789138794,0.11,-3.09,-0.41,3.11
14.240515947341919,-0.19,-2.89,-0.46,2.93
14.259282112121582,-0.46,-2.63,-0.46,2.7
14.260487079620361,-0.57,-2.27,-0.33,2.36
14.27056884765625,-0.62,-1.85,-0.02,1.95
14.280620098114014,-0.63,-1.35,0.4,1.54
14.290563106536865,-0.64,-0.8,0.79,1.29
14.309606075286865,-0.62,-0.28,1.16,1.34
14.31049108505249,-0.59,0.19,1.72,1.82
14.320570945739746,-0.7,0.59,2.11,2.3
14.33056092262268,-0.79,0.98,2.27,2.59
14.340632915496826,-0.73,1.54,2.47,3.0
14.359180927276611,-0.46,1.85,2.49,3.13
14.360376834869385,-0.11,2.17,2.48,3.29
14.370683908462524,0.28,2.52,2.41,3.49
14.380419969558716,0.64,2.73,2.08,3.49
14.390573024749756,0.75,2.82,1.57,3.31
14.409505844116211,0.68,2.98,1.06,3.23
14.41037893295288,0.57,3.41,0.73,3.53
14.420566082000732,0.51,4.25,0.58,4.31
14.4304780960083,0.44,5.15,0.71,5.21
14.440530776977539,0.43,5.79,1.25,5.93
14.459519863128662,0.45,6.09,1.9,6.39
14.460354804992676,0.43,5.86,2.02,6.21
14.470614910125732,0.42,4.72,1.2,4.88
14.4805269241333,0.58,2.9,-0.25,2.96
14.49055290222168,0.77,0.94,-1.91,2.26
14.51004695892334,1.26,-0.71,-3.53,3.81
14.51042890548706,1.91,-1.61,-5.08,5.66
14.520557880401611,2.28,-1.94,-6.24,6.92
14.530754089355469,2.24,-1.93,-6.67,7.29
14.540558815002441,2.09,-1.64,-6.1,6.65
14.560396909713745,1.75,-1.37,-4.56,5.07
14.560773849487305,1.36,-1.44,-2.89,3.5
14.570619106292725,1.17,-1.34,-1.34,2.22
14.580660820007324,0.84,-1.26,-0.13,1.51
14.590681076049805,0.5,-1.27,1.01,1.69
14.610859870910645,0.07,-1.51,1.5,2.12
14.61122989654541,-0.3,-1.85,1.67,2.51
14.620676040649414,-0.58,-2.09,1.75,2.78
14.630481004714966,-0.84,-2.41,1.63,3.02
14.640590906143188,-1.09,-2.77,1.35,3.26
14.660403966903687,-1.27,-3.06,1.01,3.46
14.660785913467407,-1.25,-3.2,0.63,3.49
14.67066478729248,-1.06,-3.23,0.23,3.4
14.6804518699646,-0.87,-3.23,-0.18,3.34
14.690645933151245,-0.64,-3.18,-0.6,3.29
14.710484981536865,-0.46,-3.04,-0.96,3.22
14.710886001586914,-0.3,-2.91,-1.19,3.15
14.720701932907104,-0.12,-2.73,-1.3,3.02
14.730572938919067,0.03,-2.5,-1.26,2.79
14.74076795578003,0.16,-2.21,-1.0,2.43
14.7603759765625,0.26,-1.88,-0.56,1.97
14.760751962661743,0.38,-1.5,-0.04,1.54
14.770497798919678,0.52,-0.99,0.45,1.2
14.780509948730469,0.58,-0.45,0.92,1.17
14.790567874908447,0.56,0.12,1.4,1.51
14.810125827789307,0.39,0.56,1.78,1.9
14.810494899749756,0.13,0.89,2.04,2.22
14.820562839508057,-0.05,1.18,2.09,2.4
14.830490112304688,-0.07,1.39,2.01,2.44
14.840693950653076,-0.03,1.65,1.83,2.46
14.860468864440918,-0.02,1.99,1.67,2.59
14.860836029052734,0.02,2.4,1.62,2.89
14.870433807373047,0.05,2.81,1.61,3.23
14.880482912063599,0.15,3.23,1.52,3.57
14.890594005584717,0.28,3.51,1.28,3.74
14.910797119140625,0.36,3.68,0.86,3.79
14.911159038543701,0.48,3.98,0.36,4.02
14.920630931854248,0.66,4.38,-0.03,4.42
14.930502891540527,0.73,4.68,0.08,4.73
14.94058609008789,0.53,4.68,0.68,4.75
14.9598970413208,0.08,4.44,1.08,4.57
14.960575103759766,-0.25,3.92,0.98,4.04
14.970477104187012,-0.41,2.69,0.05,2.72
14.980435848236084,-0.64,1.36,-1.18,1.91
14.990604877471924,-0.61,0.0,-2.25,2.33
15.010870933532715,-0.57,-1.21,-3.14,3.41
15.011239051818848,-0.73,-1.62,-3.75,4.14
15.020589828491211,-1.03,-1.61,-4.13,4.55
15.030463933944702,-1.36,-1.46,-4.19,4.64
15.040494918823242,-1.57,-1.09,-3.61,4.08
15.060774803161621,-1.53,-0.68,-2.4,2.92
15.061151027679443,-1.39,-0.55,-1.09,1.85
15.070637941360474,-1.03,-0.38,0.14,1.1
15.080518007278442,-0.64,-0.3,0.92,1.16
15.090756893157959,-0.45,-0.52,1.15,1.33
15.110701084136963,-0.39,-0.86,0.94,1.33
15.111083030700684,-0.42,-1.12,0.49,1.29
15.12088394165039,-0.43,-1.39,0.03,1.45
15.130505084991455,-0.4,-1.73,-0.26,1.79
15.140734910964966,-0.28,-2.03,-0.38,2.08
15.161470890045166,-0.08,-2.26,-0.39,2.29
15.161847114562988,0.13,-2.43,-0.36,2.45
15.170674800872803,0.34,-2.58,-0.33,2.62
15.180475950241089,0.52,-2.68,-0.33,2.74
15.190745830535889,0.62,-2.76,-0.37,2.85
15.211436986923218,0.67,-2.81,-0.51,2.93
15.211816787719727,0.62,-2.89,-0.69,3.03
15.220717906951904,0.48,-2.9,-0.84,3.05
15.230585098266602,0.33,-2.81,-0.8,2.94
15.240869998931885,0.22,-2.7,-0.6,2.77
15.261501789093018,0.19,-2.52,-0.24,2.53
15.261878967285156,0.13,-2.24,0.14,2.24
15.270697116851807,0.08,-1.94,0.5,2.0
15.280757904052734,0.04,-1.56,0.84,1.77
15.291030883789062,-0.04,-1.16,1.16,1.64
15.31092882156372,-0.17,-0.67,1.43,1.58
15.311288833618164,-0.3,-0.22,1.59,1.63
15.320837020874023,-0.34,0.2,1.67,1.71
15.33073091506958,-0.32,0.67,1.69,1.84
15.339353084564209,-0.35,1.22,1.66,2.08
15.360620021820068,-0.34,1.75,1.68,2.44
15.360946893692017,-0.19,2.15,1.68,2.73
15.369411945343018,0.05,2.47,1.62,2.95
15.37942886352539,0.27,2.73,1.47,3.11
15.393649101257324,0.28,3.0,1.34,3.29
15.399263858795166,-0.11,3.21,1.26,3.45
15.409268856048584,-0.6,3.43,1.11,3.65
15.41939091682434,-1.03,3.84,0.81,4.05
15.429506778717041,-1.27,4.69,0.61,4.89
15.444705963134766,-1.17,5.47,0.65,5.63
15.449923992156982,-0.56,5.84,1.11,5.97
15.459281921386719,0.31,5.79,1.67,6.03
15.469305038452148,1.04,5.13,1.61,5.47
15.47933292388916,1.24,3.67,0.67,3.93
15.494155883789062,1.19,1.81,-0.85,2.32
15.499243974685669,1.51,0.12,-2.42,2.85
15.509335041046143,1.96,-1.08,-3.82,4.42
15.51937198638916,2.2,-1.79,-4.97,5.72
15.529297828674316,2.04,-2.06,-5.5,6.21
15.543953895568848,1.64,-2.0,-5.23,5.83
15.549246788024902,1.14,-1.74,-4.26,4.74
15.559292793273926,0.67,-1.47,-2.96,3.37
15.569492816925049,0.35,-1.17,-1.59,2.0
15.579349994659424,0.13,-0.89,-0.33,0.95
15.594619989395142,-0.04,-0.81,0.79,1.13
15.59917402267456,-0.05,-0.91,1.61,1.85
15.609407901763916,-0.07,-1.2,1.96,2.29
15.619494915008545,-0.1,-1.68,1.81,2.47
15.629549026489258,-0.19,-2.05,1.42,2.5
15.645267963409424,-0.37,-2.38,0.95,2.58
15.649293899536133,-0.52,-2.67,0.49,2.76
15.659434795379639,-0.57,-2.78,0.17,2.84
15.669410943984985,-0.56,-2.79,-0.05,2.84
15.679333925247192,-0.51,-2.82,-0.28,2.87
15.695091962814331,-0.34,-2.8,-0.56,2.87
15.699196815490723,-0.13,-2.76,-0.88,2.89
15.709335803985596,0.06,-2.69,-1.17,2.93
15.719383955001831,0.19,-2.56,-1.37,2.9
15.730679035186768,0.34,-2.38,-1.4,2.78
15.747233867645264,0.43,-2.16,-1.24,2.52
15.750633001327515,0.34,-1.87,-0.86,2.08
15.760791778564453,0.18,-1.53,-0.34,1.57
15.770721912384033,0.03,-1.08,0.24,1.1
15.780592918395996,-0.06,-0.54,0.71,0.89
15.796559810638428,-0.04,0.03,1.09,1.09
15.800666809082031,-0.02,0.42,1.34,1.4
15.810595035552979,0.0,0.75,1.5,1.67
15.820633888244629,0.0,1.09,1.57,1.91
15.830662965774536,0.06,1.43,1.57,2.12
15.846426963806152,0.16,1.78,1.56,2.37
15.850658893585205,0.29,2.13,1.55,2.65
15.860704898834229,0.37,2.58,1.58,3.04
15.870784997940063,0.27,2.96,1.58,3.36
15.880763053894043,0.22,3.23,1.54,3.58
15.896631956100464,0.35,3.45,1.38,3.73
15.900674819946289,0.62,3.54,1.06,3.74
15.91064977645874,1.04,3.57,0.56,3.76
15.920805931091309,1.68,3.82,0.03,4.17
15.930785894393921,2.11,4.17,-0.38,4.68
15.94634199142456,1.71,4.13,-0.44,4.49
15.950658798217773,0.79,4.02,-0.08,4.09
15.960772037506104,-0.33,3.69,0.35,3.72
15.97090196609497,-1.15,2.96,0.26,3.18
15.980700016021729,-1.3,1.69,-0.57,2.2
15.997007846832275,-1.32,0.31,-1.73,2.19
16.000699996948242,-1.19,-0.74,-2.78,3.11
16.01065683364868,-1.07,-1.18,-3.62,3.95
16.020763874053955,-1.21,-1.25,-4.08,4.43
16.03067898750305,-1.61,-1.25,-4.03,4.51
16.046515941619873,-2.0,-1.02,-3.41,4.08
16.050595998764038,-2.05,-0.68,-2.39,3.22
16.06071710586548,-1.87,-0.52,-1.31,2.34
16.070751905441284,-1.45,-0.54,-0.19,1.55
16.080673933029175,-0.86,-0.65,0.75,1.31
16.096385955810547,-0.32,-0.87,1.3,1.59
16.100576877593994,0.03,-1.22,1.41,1.86
16.1107177734375,0.1,-1.65,1.21,2.04
16.120750904083252,0.02,-2.04,0.88,2.22
16.130757808685303,0.05,-2.38,0.49,2.43
16.146789073944092,0.19,-2.68,0.13,2.68
16.150601863861084,0.35,-2.87,-0.12,2.89
16.16072392463684,0.49,-2.96,-0.22,3.0
16.170787811279297,0.6,-3.07,-0.23,3.13
16.18070888519287,0.54,-3.12,-0.23,3.17
16.196850776672363,0.43,-3.15,-0.22,3.18
16.200602054595947,0.28,-3.09,-0.25,3.11
16.210694789886475,0.18,-3.14,-0.3,3.15
16.22084903717041,0.03,-3.1,-0.42,3.12
16.23078203201294,-0.04,-2.95,-0.52,2.99
16.246769905090332,-0.1,-2.66,-0.58,2.72
16.25065279006958,-0.13,-2.37,-0.53,2.43
16.260761976242065,-0.03,-2.07,-0.31,2.09
16.270808935165405,0.09,-1.75,0.07,1.75
16.280765056610107,0.13,-1.38,0.49,1.47
16.296817779541016,0.05,-0.91,0.83,1.23
16.300683975219727,-0.05,-0.34,1.16,1.2
16.310688018798828,-0.13,0.2,1.48,1.49
16.320806980133057,-0.22,0.62,1.74,1.86
16.33073377609253,-0.25,0.97,1.95,2.19
16.347177028656006,-0.25,1.27,2.08,2.44
16.350565910339355,-0.25,1.63,2.17,2.72
16.360768795013428,-0.14,2.0,2.31,3.05
16.37078094482422,0.09,2.14,2.17,3.04
16.380674839019775,0.38,2.43,1.88,3.09
16.39667296409607,0.54,2.87,1.63,3.34
16.40059494972229,0.47,3.11,1.36,3.42
16.410751819610596,0.11,3.39,1.19,3.59
16.420926094055176,-0.34,3.72,1.13,3.9
16.430826902389526,-0.56,4.24,1.01,4.39
16.447092056274414,-0.73,4.94,1.06,5.1
16.450671911239624,-0.89,5.41,1.41,5.66
16.46081304550171,-0.72,5.43,1.98,5.82
16.470782995224,-0.18,4.99,2.4,5.54
16.480748891830444,0.37,3.98,2.2,4.56
16.497407913208008,0.64,2.51,1.19,2.85
16.500638008117676,0.79,0.82,-0.21,1.15
16.51075792312622,1.0,-0.87,-1.63,2.1
16.5207839012146,1.45,-2.12,-3.06,3.99
16.53072690963745,1.96,-2.69,-4.23,5.38
16.54759979248047,2.21,-2.78,-4.94,6.08
16.550699949264526,2.16,-2.47,-5.05,6.02
16.560964107513428,1.86,-1.97,-4.41,5.17
16.570880889892578,1.39,-1.54,-3.22,3.83
16.58079695701599,0.77,-1.2,-1.91,2.38
16.597540855407715,0.17,-0.71,-0.7,1.01
16.600732803344727,-0.15,-0.4,0.25,0.49
16.610924005508423,-0.2,-0.46,0.94,1.06
16.620906829833984,-0.05,-0.74,1.29,1.48
16.630866050720215,0.1,-1.09,1.33,1.72
16.647789001464844,0.03,-1.45,1.18,1.86
16.650702953338623,-0.17,-1.76,0.92,1.99
16.660918951034546,-0.48,-2.0,0.63,2.15
16.670711040496826,-0.74,-2.1,0.38,2.25
16.68081283569336,-0.93,-2.1,0.2,2.3
16.69876003265381,-1.07,-2.12,0.0,2.37
16.70064401626587,-1.0,-2.23,-0.29,2.46
16.711007118225098,-0.79,-2.32,-0.61,2.52
16.720903873443604,-0.55,-2.38,-0.91,2.6
16.730844974517822,-0.31,-2.51,-1.15,2.77
16.74843406677246,-0.1,-2.6,-1.29,2.9
16.75084400177002,0.05,-2.52,-1.27,2.82
16.7608859539032,0.12,-2.27,-1.03,2.49
16.770832061767578,0.14,-1.97,-0.59,2.06
16.780960083007812,0.21,-1.68,-0.07,1.69
16.798557996749878,0.27,-1.29,0.37,1.36
16.800920963287354,0.38,-0.76,0.76,1.13
16.81095790863037,0.49,-0.22,1.11,1.23
16.82078981399536,0.49,0.36,1.44,1.56
16.83087992668152,0.39,0.91,1.7,1.96
16.848432064056396,0.22,1.38,1.86,2.32
16.851080894470215,0.06,1.75,1.91,2.59
16.86100697517395,0.03,2.04,1.87,2.76
16.870930910110474,0.09,2.29,1.75,2.88
16.88095498085022,0.14,2.61,1.56,3.04
16.898746967315674,0.17,2.94,1.35,3.23
16.901171922683716,0.25,3.19,1.18,3.41
16.91104507446289,0.4,3.34,1.03,3.51
16.920753955841064,0.6,3.42,0.78,3.55
16.930965900421143,0.9,3.52,0.34,3.64
16.949071884155273,1.29,3.74,-0.28,3.96
16.95135998725891,1.54,4.03,-0.83,4.39
16.961044788360596,1.29,4.08,-0.94,4.38
16.97080087661743,0.74,4.01,-0.54,4.11
16.980878829956055,-0.02,3.91,0.08,3.91
16.999046802520752,-0.65,3.48,0.35,3.55
17.000685930252075,-0.83,2.53,0.02,2.66
17.011029958724976,-0.78,1.32,-0.91,1.78
17.02093505859375,-0.76,0.12,-2.03,2.17
17.03095579147339,-0.86,-0.97,-3.08,3.34
17.049193859100342,-1.05,-1.64,-3.9,4.35
17.05155897140503,-1.3,-1.89,-4.37,4.93
17.061031818389893,-1.5,-1.83,-4.33,4.93
17.070929050445557,-1.41,-1.51,-3.59,4.14
17.080796003341675,-1.02,-1.12,-2.28,2.73
17.09818196296692,-0.49,-0.98,-0.87,1.39
17.100766897201538,0.11,-0.81,0.44,0.92
17.110951900482178,0.38,-0.78,1.35,1.6
17.121012926101685,0.21,-0.99,1.83,2.09
17.130885124206543,-0.13,-1.26,1.91,2.29
17.14557695388794,-0.4,-1.6,1.71,2.37
17.1507568359375,-0.58,-2.0,1.35,2.48
17.160847902297974,-0.62,-2.4,0.99,2.66
17.170970916748047,-0.55,-2.67,0.74,2.82
17.180709838867188,-0.43,-2.83,0.55,2.91
17.194117069244385,-0.32,-2.98,0.4,3.02
17.20060896873474,-0.24,-3.04,0.17,3.05
17.21070384979248,-0.05,-3.11,-0.13,3.11
17.221017837524414,0.13,-3.17,-0.42,3.2
17.23074698448181,0.2,-3.15,-0.78,3.25
17.244252920150757,0.31,-3.17,-1.05,3.35
17.250696897506714,0.26,-3.1,-1.22,3.34
17.26078510284424,0.12,-2.96,-1.2,3.19
17.27127504348755,0.06,-2.74,-0.95,2.9
17.280831813812256,0.11,-2.42,-0.47,2.46
17.299691915512085,0.11,-2.05,0.14,2.05
17.300949096679688,0.06,-1.62,0.67,1.75
17.311118125915527,0.05,-1.02,1.14,1.53
17.321147918701172,0.03,-0.44,1.51,1.57
17.331185817718506,0.01,0.06,1.77,1.77
17.35465908050537,-0.11,0.58,1.94,2.02
17.356015920639038,-0.24,1.12,2.02,2.32
17.360987901687622,-0.29,1.62,2.03,2.61
17.371267795562744,-0.21,2.08,2.0,2.89
17.38096284866333,0.03,2.52,1.87,3.13
17.402352809906006,0.33,2.87,1.62,3.31
17.403377056121826,0.64,3.08,1.24,3.38
17.4109148979187,0.79,3.24,0.84,3.43
17.421437978744507,0.68,3.42,0.47,3.51
17.430978775024414,0.36,3.66,0.14,3.68
17.4532790184021,0.02,3.95,-0.1,3.95
17.454508781433105,-0.25,4.54,-0.15,4.54
17.460983991622925,-0.37,5.25,0.11,5.26
17.472193956375122,-0.17,5.64,0.71,5.68
17.480926036834717,0.29,5.58,1.44,5.77
17.501285076141357,0.8,4.98,1.71,5.32
17.501652002334595,1.04,3.56,0.98,3.83
17.510989904403687,1.33,1.87,-0.55,2.35
17.520884037017822,1.71,0.34,-2.14,2.76
17.531015872955322,2.16,-0.98,-3.66,4.36
17.550673961639404,2.41,-1.9,-4.84,5.73
17.55107307434082,2.37,-2.29,-5.45,6.36
17.5609188079834,1.99,-2.3,-5.29,6.1
17.5708749294281,1.42,-2.07,-4.39,5.05
17.580869913101196,0.85,-1.87,-2.99,3.62
17.600950002670288,0.34,-1.7,-1.71,2.43
17.60133194923401,-0.07,-1.3,-0.53,1.4
17.611089944839478,-0.32,-1.0,0.53,1.17
17.620882987976074,-0.36,-0.95,1.37,1.7
17.630948066711426,-0.3,-1.09,1.84,2.15
17.65084409713745,-0.2,-1.36,1.97,2.4
17.651235103607178,-0.11,-1.66,1.8,2.45
17.661034107208252,-0.17,-2.0,1.46,2.48
17.67094397544861,-0.3,-2.26,0.95,2.46
17.680928945541382,-0.45,-2.38,0.4,2.45
17.700561046600342,-0.54,-2.41,0.0,2.46
17.70095992088318,-0.55,-2.36,-0.25,2.43
17.711002826690674,-0.53,-2.35,-0.46,2.45
17.720866918563843,-0.42,-2.36,-0.7,2.49
17.730949878692627,-0.26,-2.39,-0.96,2.58
17.750699043273926,-0.11,-2.4,-1.2,2.68
17.751073837280273,-0.03,-2.43,-1.37,2.78
17.76091480255127,0.03,-2.44,-1.37,2.79
17.770841121673584,0.05,-2.43,-1.15,2.68
17.780996799468994,-0.02,-2.3,-0.69,2.4
17.80036211013794,-0.1,-2.07,-0.08,2.07
17.800859928131104,-0.11,-1.63,0.52,1.71
17.81101703643799,-0.07,-1.09,0.96,1.45
17.820924997329712,0.04,-0.5,1.36,1.44
17.831069946289062,0.17,0.03,1.69,1.69
17.850861072540283,0.24,0.49,1.97,2.04
17.851234912872314,0.27,0.94,2.15,2.36
17.860948085784912,0.27,1.39,2.19,2.6
17.870877981185913,0.2,1.85,2.15,2.84
17.88106107711792,0.11,2.29,2.09,3.1
17.901154041290283,0.07,2.68,2.05,3.37
17.90152096748352,0.02,3.06,2.02,3.66
17.91105079650879,-0.05,3.29,1.82,3.76
17.92087697982788,0.01,3.36,1.4,3.64
17.931049823760986,0.25,3.51,0.8,3.6
17.95091199874878,0.6,3.74,0.17,3.79
17.951295852661133,1.12,4.05,-0.36,4.21
17.96099591255188,1.55,4.47,-0.7,4.78
17.970894813537598,1.4,4.64,-0.67,4.89
17.980982780456543,0.65,4.32,-0.17,4.37
18.001361846923828,-0.26,3.8,0.36,3.82
18.001749992370605,-0.8,2.97,0.34,3.09
18.011099815368652,-0.83,1.62,-0.39,1.86
18.020991802215576,-0.91,0.15,-1.53,1.78
18.031035900115967,-0.94,-0.98,-2.61,2.94
18.05111312866211,-1.06,-1.69,-3.44,3.97
18.0514919757843,-1.35,-1.94,-3.87,4.53
18.061055898666382,-1.65,-1.83,-3.78,4.51
18.07096290588379,-1.85,-1.41,-3.09,3.86
18.081058979034424,-1.98,-0.94,-1.92,2.91
18.101500034332275,-2.03,-0.71,-0.77,2.28
18.101894855499268,-1.84,-0.44,0.31,1.91
18.111073970794678,-1.54,-0.28,1.19,1.96
18.120980978012085,-1.19,-0.38,1.68,2.09
18.13106894493103,-0.92,-0.64,1.71,2.04
18.151519775390625,-0.65,-0.99,1.33,1.78
18.151901960372925,-0.49,-1.34,0.77,1.62
18.16110610961914,-0.19,-1.63,0.18,1.65
18.170907020568848,0.25,-1.9,-0.29,1.93
18.18108892440796,0.73,-2.12,-0.62,2.32
18.201603889465332,1.13,-2.3,-0.8,2.68
18.20197296142578,1.34,-2.48,-0.88,2.95
18.21106195449829,1.37,-2.61,-0.94,3.09
18.220853805541992,1.27,-2.7,-1.0,3.14
18.231308937072754,1.01,-2.79,-1.0,3.13
18.251770973205566,0.63,-2.84,-0.94,3.05
18.252136945724487,0.29,-2.86,-0.76,2.97
18.2609601020813,0.03,-2.87,-0.51,2.91
18.27111005783081,-0.11,-2.78,-0.15,2.78
18.28100299835205,-0.11,-2.6,0.22,2.61
18.301851987838745,-0.1,-2.37,0.6,2.44
18.3022198677063,-0.14,-2.07,0.91,2.26
18.31120991706848,-0.2,-1.65,1.15,2.02
18.32111692428589,-0.28,-1.14,1.4,1.82
18.33126401901245,-0.37,-0.65,1.63,1.79
18.3522789478302,-0.47,-0.29,1.81,1.89
18.352657794952393,-0.43,0.1,1.88,1.93
18.361036777496338,-0.24,0.51,1.84,1.92
18.371230125427246,-0.03,0.91,1.73,1.95
18.38102698326111,0.19,1.37,1.51,2.04
18.402445793151855,0.34,1.83,1.24,2.23
18.402830123901367,0.5,2.32,0.98,2.56
18.411230087280273,0.67,2.78,0.8,2.96
18.42130994796753,0.78,3.12,0.74,3.3
18.43121910095215,0.75,3.39,0.74,3.54
18.452229022979736,0.44,3.58,0.67,3.66
18.45258903503418,0.0,3.66,0.51,3.69
18.460901975631714,-0.27,4.01,0.21,4.02
18.471473932266235,-0.46,4.62,-0.06,4.64
18.481055974960327,-0.64,5.08,-0.05,5.12
18.502349853515625,-0.51,5.07,0.33,5.1
18.502710819244385,0.13,4.64,0.89,4.72
18.511176109313965,0.84,3.66,0.91,3.86
18.521625995635986,1.0,2.18,0.04,2.39
18.53128695487976,1.02,0.64,-1.19,1.69
18.552581787109375,1.29,-0.86,-2.31,2.78
18.55294895172119,1.76,-2.04,-3.36,4.3
18.561055898666382,2.23,-2.47,-4.02,5.21
18.57167911529541,2.36,-2.41,-4.07,5.28
18.58108901977539,2.19,-2.03,-3.36,4.49
18.602750778198242,1.88,-1.62,-2.07,3.23
18.60312509536743,1.51,-1.37,-0.85,2.2
18.61124300956726,1.21,-0.9,0.22,1.52
18.62107491493225,0.84,-0.51,1.02,1.41
18.63131093978882,0.48,-0.39,1.54,1.65
18.652833938598633,0.28,-0.38,1.76,1.82
18.65320587158203,0.17,-0.52,1.66,1.74
18.661031007766724,-0.04,-0.81,1.2,1.44
18.671231985092163,-0.39,-1.11,0.52,1.28
18.68112277984619,-0.75,-1.35,-0.15,1.55
18.702791929244995,-1.08,-1.52,-0.65,1.97
18.703161001205444,-1.33,-1.71,-1.11,2.43
18.71118998527527,-1.41,-1.83,-1.39,2.69
18.721065044403076,-1.37,-1.97,-1.57,2.86
18.731287002563477,-1.23,-2.09,-1.65,2.93
18.753031969070435,-1.02,-2.18,-1.68,2.93
18.753410816192627,-0.67,-2.25,-1.67,2.88
18.761065006256104,-0.31,-2.36,-1.58,2.85
18.771198987960815,-0.09,-2.44,-1.35,2.79
18.781111001968384,0.0,-2.42,-1.0,2.61
18.803258895874023,0.07,-2.33,-0.58,2.4
18.803637981414795,0.2,-2.15,-0.11,2.16
18.811243057250977,0.33,-1.94,0.31,1.99
18.821086883544922,0.47,-1.74,0.7,1.93
18.83126401901245,0.5,-1.44,1.03,1.83
18.853724002838135,0.46,-1.06,1.34,1.76
18.854097843170166,0.38,-0.7,1.63,1.81
18.861042976379395,0.28,-0.35,1.89,1.94
18.871190071105957,0.26,0.07,2.14,2.15
18.881093978881836,0.31,0.58,2.31,2.4
18.903836965560913,0.41,1.18,2.42,2.72
18.9042010307312,0.51,1.8,2.49,3.11
18.911209106445312,0.45,2.35,2.57,3.51
18.921108961105347,0.32,2.89,2.65,3.93
18.93124485015869,0.13,3.37,2.58,4.24
18.953845977783203,-0.07,3.63,2.17,4.22
18.95420789718628,-0.06,3.69,1.36,3.93
18.961034774780273,0.32,3.79,0.43,3.82
18.97114396095276,0.88,3.98,-0.52,4.1
18.98104500770569,1.45,4.31,-1.36,4.74
19.004332065582275,1.61,4.51,-1.71,5.08
19.00469398498535,1.06,4.32,-1.44,4.67
19.011213779449463,0.17,3.9,-0.7,3.96
19.021126985549927,-0.63,3.15,-0.3,3.22
19.031232833862305,-1.01,1.91,-0.72,2.27
19.054376125335693,-1.19,0.64,-1.62,2.1
19.05475091934204,-1.32,-0.37,-2.61,2.94
19.06112003326416,-1.43,-1.05,-3.36,3.79
19.07122802734375,-1.57,-1.3,-3.74,4.25
19.08116102218628,-1.74,-1.24,-3.57,4.16
19.10455083847046,-1.81,-0.89,-2.78,3.43
19.104933977127075,-1.74,-0.58,-1.62,2.44
19.111202001571655,-1.61,-0.44,-0.57,1.76
19.121127128601074,-1.25,-0.32,0.38,1.34
19.131220817565918,-0.8,-0.34,1.12,1.41
19.15457797050476,-0.33,-0.53,1.44,1.56
19.154944896697998,0.07,-0.8,1.36,1.57
19.1611328125,0.37,-1.16,1.02,1.58
19.17120885848999,0.57,-1.59,0.58,1.78
19.181171894073486,0.77,-1.92,0.18,2.07
19.204670906066895,0.95,-2.21,-0.16,2.41
19.205037117004395,1.07,-2.47,-0.37,2.71
19.211160898208618,1.13,-2.68,-0.55,2.96
19.221174955368042,1.04,-2.91,-0.71,3.17
19.231249809265137,0.9,-3.06,-0.82,3.29
19.25433111190796,0.71,-3.14,-0.86,3.33
19.25469994544983,0.46,-3.23,-0.82,3.36
19.261099815368652,0.24,-3.3,-0.72,3.38
19.271167993545532,-0.06,-3.32,-0.58,3.37
19.28120183944702,-0.3,-3.2,-0.37,3.23
19.304783821105957,-0.43,-3.0,-0.07,3.03
19.305166006088257,-0.46,-2.85,0.28,2.9
19.311229944229126,-0.53,-2.6,0.62,2.72
19.321141004562378,-0.62,-2.3,0.88,2.53
19.331499099731445,-0.67,-1.92,1.11,2.31
19.35408091545105,-0.78,-1.45,1.28,2.08
19.35444211959839,-0.91,-1.03,1.44,1.99
19.35975980758667,-1.0,-0.7,1.61,2.02
19.369837999343872,-1.05,-0.32,1.83,2.13
19.37984800338745,-1.01,0.1,2.02,2.26
19.40446186065674,-0.81,0.57,2.2,2.41
19.40481996536255,-0.48,1.13,2.28,2.58
19.409799098968506,-0.1,1.7,2.29,2.85
19.419922828674316,0.24,2.25,2.19,3.14
19.430041790008545,0.53,2.79,2.01,3.47
19.455403804779053,0.69,3.2,1.71,3.69
19.455758094787598,0.55,3.5,1.32,3.78
19.459890842437744,0.16,3.71,0.99,3.84
19.469840049743652,-0.36,3.85,0.8,3.94
19.479816913604736,-0.85,4.03,0.69,4.17
19.489832878112793,-1.12,4.48,0.62,4.65
19.504523992538452,-1.26,5.21,0.75,5.41
19.510019779205322,-1.11,5.72,1.29,5.96
19.519864082336426,-0.47,5.65,2.03,6.02
19.529825925827026,0.41,5.0,2.37,5.54
19.53995394706726,1.09,3.75,1.75,4.27
19.5553879737854,1.32,2.07,0.16,2.46
19.56013584136963,1.53,0.42,-1.59,2.24
19.56985378265381,1.88,-1.03,-3.25,3.89
19.579998016357422,2.41,-1.98,-4.69,5.63
19.590013027191162,2.92,-2.37,-5.64,6.77
19.606318950653076,3.0,-2.38,-5.79,6.94
19.60993194580078,2.75,-2.05,-4.98,6.04
19.62006187438965,2.23,-1.64,-3.44,4.41
19.63002896308899,1.56,-1.44,-1.83,2.8
19.640094995498657,0.92,-0.89,-0.42,1.34
19.655175924301147,0.39,-0.45,0.66,0.88
19.65996789932251,0.13,-0.41,1.38,1.44
19.669848918914795,0.12,-0.6,1.76,1.86
19.67984104156494,0.12,-0.91,1.81,2.02
19.68992805480957,-0.02,-1.31,1.59,2.06
19.70531702041626,-0.27,-1.74,1.15,2.1
19.71022081375122,-0.5,-2.04,0.64,2.19
19.720224857330322,-0.65,-2.19,0.24,2.29
19.730175971984863,-0.8,-2.38,-0.07,2.51
19.740302085876465,-0.87,-2.49,-0.3,2.65
19.756313800811768,-0.85,-2.52,-0.51,2.7
19.760175943374634,-0.72,-2.49,-0.74,2.69
19.770249843597412,-0.5,-2.39,-0.98,2.63
19.78028106689453,-0.34,-2.44,-1.28,2.77
19.790088891983032,-0.31,-2.53,-1.53,2.97
19.805843830108643,-0.27,-2.49,-1.58,2.96
19.810184001922607,-0.36,-2.39,-1.48,2.83
19.82027292251587,-0.47,-2.31,-1.23,2.65
19.830244064331055,-0.54,-2.12,-0.8,2.32
19.840174913406372,-0.53,-1.79,-0.21,1.87
19.856753826141357,-0.42,-1.38,0.36,1.48
19.860270977020264,-0.19,-0.91,0.88,1.28
19.87012004852295,0.12,-0.38,1.34,1.39
19.88019609451294,0.51,0.14,1.69,1.77
19.890094995498657,0.77,0.57,1.88,2.11
19.906616926193237,0.83,0.94,1.92,2.29
19.910000801086426,0.7,1.47,1.91,2.5
19.9201340675354,0.38,1.99,1.91,2.78
19.930198907852173,0.07,2.42,1.97,3.12
19.940162897109985,-0.08,2.88,2.09,3.55
19.956615924835205,-0.14,3.25,2.16,3.9
19.960240840911865,-0.04,3.4,2.07,3.98
19.97012186050415,0.24,3.4,1.65,3.78
19.980151891708374,0.59,3.35,0.88,3.51
19.990068912506104,1.05,3.49,0.08,3.64
20.00632905960083,1.68,3.83,-0.52,4.21
20.009947776794434,2.11,4.2,-0.66,4.74
20.02010679244995,1.69,4.28,-0.12,4.6
20.03015398979187,0.76,3.99,0.8,4.13
20.040133953094482,-0.35,3.41,1.33,3.67
20.054805994033813,-1.23,2.34,0.88,2.78
20.06015396118164,-1.46,0.78,-0.37,1.69
20.07004189491272,-1.5,-0.68,-1.8,2.43
20.080337047576904,-1.55,-1.68,-3.04,3.8
20.09018611907959,-1.47,-2.18,-3.92,4.72
20.10603380203247,-1.43,-2.25,-4.27,5.03
20.110168933868408,-1.4,-1.85,-3.94,4.57
20.120218992233276,-1.25,-1.12,-2.84,3.29
20.13018298149109,-1.2,-0.65,-1.42,1.96
20.140216827392578,-1.02,-0.24,0.03,1.04
20.15721607208252,-0.9,0.03,1.35,1.62
20.1602520942688,-0.82,0.07,2.26,2.4
20.17014980316162,-0.69,-0.12,2.53,2.62
20.18020009994507,-0.49,-0.54,2.14,2.26
20.190250873565674,-0.31,-0.94,1.37,1.69
20.206702947616577,-0.08,-1.33,0.45,1.4
20.209993839263916,0.26,-1.68,-0.34,1.73
20.22022581100464,0.68,-1.93,-0.87,2.22
20.230186939239502,0.99,-2.17,-1.2,2.67
20.24021291732788,1.14,-2.37,-1.39,2.97
20.25671911239624,1.16,-2.45,-1.52,3.1
20.260161876678467,1.03,-2.46,-1.66,3.14
20.270123958587646,0.76,-2.52,-1.76,3.16
20.280457019805908,0.39,-2.63,-1.74,3.17
20.29017210006714,0.1,-2.69,-1.58,3.12
20.303081035614014,-0.11,-2.68,-1.27,2.96
20.310053825378418,-0.2,-2.6,-0.81,2.73
20.320172786712646,-0.2,-2.49,-0.26,2.51
20.330153942108154,-0.23,-2.32,0.23,2.34
20.34010410308838,-0.37,-2.07,0.63,2.19
20.35337996482849,-0.53,-1.75,0.98,2.07
20.360159873962402,-0.73,-1.42,1.31,2.06
20.370011806488037,-0.92,-1.07,1.6,2.13
20.380516052246094,-1.02,-0.72,1.83,2.21
20.390006065368652,-0.93,-0.39,1.99,2.23
20.406737804412842,-0.78,-0.03,2.04,2.18
20.410315990447998,-0.57,0.33,1.93,2.03
20.4202139377594,-0.35,0.78,1.74,1.93
20.43034791946411,-0.12,1.3,1.52,2.0
20.440388917922974,0.1,1.75,1.3,2.18
20.45797109603882,0.32,2.19,1.13,2.48
20.460185050964355,0.48,2.59,0.98,2.81
20.470247983932495,0.5,2.83,0.77,2.97
20.480276107788086,0.3,3.01,0.54,3.07
20.49032497406006,0.04,3.27,0.29,3.28
20.508060932159424,-0.13,3.84,0.08,3.84
20.51005983352661,-0.29,4.67,0.1,4.68
20.52026081085205,-0.42,5.45,0.52,5.49
20.53032398223877,-0.14,5.88,1.28,6.01
20.540292978286743,0.42,5.81,2.03,6.16
20.557678937911987,0.97,4.96,2.18,5.5
20.56013584136963,1.13,3.28,1.16,3.65
20.570225954055786,1.22,1.52,-0.56,2.02
20.580256938934326,1.51,-0.06,-2.46,2.88
20.590219974517822,1.97,-1.15,-4.16,4.74
20.607697010040283,2.47,-1.63,-5.33,6.09
20.61009192466736,2.68,-1.68,-5.71,6.52
20.620320796966553,2.44,-1.46,-5.11,5.84
20.630165100097656,2.1,-1.18,-3.6,4.33
20.640274047851562,1.64,-1.13,-1.87,2.73
20.657047986984253,1.24,-0.79,-0.4,1.52
20.66015386581421,0.85,-0.54,0.74,1.24
20.670182943344116,0.41,-0.64,1.43,1.61
20.680357933044434,0.02,-0.86,1.7,1.9
20.69023299217224,-0.26,-1.2,1.62,2.03
20.706963062286377,-0.54,-1.72,1.33,2.24
20.710177898406982,-0.74,-2.26,0.88,2.53
20.720415115356445,-0.97,-2.65,0.38,2.84
20.730371952056885,-1.18,-2.96,-0.04,3.18
20.740450859069824,-1.26,-3.12,-0.31,3.37
20.757298946380615,-1.18,-3.13,-0.49,3.38
20.76019811630249,-0.98,-3.07,-0.62,3.28
20.7702579498291,-0.7,-2.91,-0.64,3.06
20.78035879135132,-0.29,-2.66,-0.64,2.75
20.790245056152344,0.1,-2.46,-0.62,2.53
20.808145999908447,0.36,-2.28,-0.61,2.38
20.810096979141235,0.53,-2.09,-0.56,2.22
20.820434093475342,0.61,-1.91,-0.45,2.05
20.830276012420654,0.58,-1.7,-0.24,1.81
20.84021282196045,0.58,-1.46,0.08,1.57
20.858285903930664,0.53,-1.26,0.44,1.43
20.860270023345947,0.47,-1.03,0.72,1.34
20.870239973068237,0.42,-0.74,0.89,1.23
20.880459785461426,0.36,-0.39,0.98,1.11
20.890221118927002,0.42,0.15,1.03,1.12
20.908068895339966,0.54,0.76,1.09,1.43
20.910215854644775,0.65,1.39,1.19,1.94
20.920347929000854,0.65,2.06,1.37,2.55
20.930179119110107,0.56,2.71,1.56,3.17
20.940298080444336,0.44,3.37,1.75,3.82
20.958116054534912,0.23,3.84,1.82,4.25
20.96040678024292,0.08,4.14,1.66,4.46
20.970197916030884,0.06,4.2,1.21,4.37
20.980164051055908,0.19,3.99,0.45,4.01
20.99028205871582,0.43,3.71,-0.36,3.75
21.00808811187744,0.69,3.51,-1.03,3.72
21.01052689552307,1.08,3.42,-1.52,3.89
21.02042293548584,1.38,3.53,-1.68,4.14
21.030305862426758,1.36,3.47,-1.37,3.97
21.040310859680176,0.96,3.07,-0.54,3.26
21.05878782272339,0.33,2.5,0.17,2.52
21.060763835906982,-0.24,1.7,0.26,1.73
21.070321083068848,-0.54,0.56,-0.42,0.88
21.080196857452393,-0.66,-0.5,-1.42,1.64
21.09026288986206,-0.81,-1.34,-2.24,2.73
21.108903884887695,-0.97,-1.9,-2.78,3.5
21.110837936401367,-1.26,-1.92,-2.89,3.69
21.120419025421143,-1.54,-1.59,-2.38,3.25
21.130149841308594,-1.74,-1.18,-1.4,2.52
21.140329837799072,-1.88,-0.85,-0.4,2.1
21.158466815948486,-1.99,-0.47,0.58,2.12
21.16099190711975,-2.02,-0.21,1.4,2.46
21.170264959335327,-1.86,-0.22,1.92,2.68
21.180198907852173,-1.55,-0.38,2.07,2.61
21.190284967422485,-1.2,-0.67,1.84,2.29
21.20871090888977,-0.86,-1.0,1.32,1.86
21.21021294593811,-0.51,-1.3,0.71,1.56
21.22038197517395,-0.14,-1.66,0.22,1.68
21.230119943618774,0.33,-2.01,-0.1,2.03
21.240391969680786,0.79,-2.32,-0.28,2.46
21.25878381729126,1.21,-2.65,-0.43,2.94
21.260301113128662,1.43,-2.91,-0.57,3.29
21.27031707763672,1.47,-3.08,-0.74,3.49
21.280359983444214,1.21,-3.12,-0.89,3.46
21.290393829345703,0.77,-3.22,-0.97,3.44
21.308775901794434,0.32,-3.27,-0.92,3.41
21.310216903686523,-0.05,-3.15,-0.85,3.26
21.32038688659668,-0.33,-2.99,-0.7,3.08
21.330216884613037,-0.47,-2.83,-0.44,2.9
21.34038209915161,-0.47,-2.57,-0.05,2.61
21.3591628074646,-0.49,-2.24,0.39,2.32
21.360291004180908,-0.57,-1.95,0.77,2.17
21.37032198905945,-0.68,-1.6,1.07,2.04
21.380166053771973,-0.78,-1.16,1.35,1.94
21.39035391807556,-0.92,-0.74,1.58,1.97
21.408874034881592,-0.96,-0.37,1.72,2.0
21.41025686264038,-0.88,0.04,1.74,1.95
21.42042303085327,-0.76,0.43,1.62,1.84
21.430148124694824,-0.66,0.92,1.45,1.83
21.4404399394989,-0.55,1.48,1.37,2.09
21.459012985229492,-0.4,1.99,1.44,2.48
21.46030592918396,-0.19,2.5,1.56,2.95
21.47028112411499,0.13,3.01,1.77,3.49
21.480167865753174,0.32,3.31,1.57,3.67
21.490328788757324,0.27,3.59,1.17,3.78
21.509285926818848,0.24,3.78,0.75,3.86
21.510172843933105,-0.06,4.07,0.54,4.1
21.52043390274048,-0.26,4.39,0.44,4.41
21.530386924743652,-0.35,4.85,0.52,4.89
21.540442943572998,-0.23,5.29,0.88,5.36
21.55948305130005,0.25,5.39,1.39,5.57
21.560321807861328,0.93,5.02,1.74,5.39
21.570369958877563,1.26,4.04,1.44,4.47
21.580202102661133,1.2,2.69,0.51,2.98
21.590281009674072,1.29,1.07,-0.75,1.83
21.609449863433838,1.56,-0.34,-2.22,2.73
21.610147953033447,1.93,-1.3,-3.75,4.41
21.620476007461548,2.14,-1.85,-4.97,5.71
21.63017988204956,2.19,-1.96,-5.57,6.29
21.6404128074646,1.98,-1.93,-5.4,6.06
21.658909797668457,1.56,-1.82,-4.4,5.01
21.66026210784912,1.16,-1.69,-2.95,3.59
21.670237064361572,0.77,-1.49,-1.61,2.32
21.6803879737854,0.53,-1.07,-0.54,1.31
21.690403938293457,0.39,-0.86,0.28,0.98
21.709243774414062,0.29,-0.84,0.88,1.25
21.710174083709717,0.21,-0.93,1.25,1.57
21.720384120941162,0.17,-1.15,1.4,1.81
21.73018193244934,0.09,-1.45,1.35,1.98
21.740417003631592,-0.11,-1.78,1.06,2.07
21.7598819732666,-0.4,-2.15,0.61,2.27
21.7602858543396,-0.69,-2.38,0.23,2.48
21.770355939865112,-0.89,-2.5,-0.06,2.65
21.780330896377563,-0.92,-2.55,-0.28,2.72
21.79038095474243,-0.85,-2.56,-0.48,2.73
21.80988597869873,-0.72,-2.56,-0.66,2.74
21.810237884521484,-0.53,-2.57,-0.82,2.74
21.820457935333252,-0.33,-2.47,-0.95,2.66
21.83037805557251,-0.25,-2.31,-1.02,2.53
21.84050989151001,-0.26,-2.07,-0.88,2.26
21.86067008972168,-0.21,-1.85,-0.55,1.94
21.861055850982666,-0.15,-1.64,-0.12,1.65
21.87044095993042,-0.01,-1.42,0.29,1.44
21.8802969455719,0.11,-1.2,0.64,1.36
21.890435934066772,0.22,-0.93,0.87,1.29
21.91055679321289,0.37,-0.62,0.98,1.21
21.91093897819519,0.44,-0.29,1.02,1.14
21.9204421043396,0.43,0.1,1.06,1.14
21.930309772491455,0.41,0.56,1.1,1.3
21.940473079681396,0.46,1.02,1.16,1.61
21.960489988327026,0.51,1.52,1.26,2.03
21.960864067077637,0.53,2.04,1.37,2.51
21.97050380706787,0.64,2.55,1.49,3.02
21.98125696182251,0.69,2.98,1.56,3.43
21.990378856658936,0.62,3.38,1.62,3.79
22.010448932647705,0.53,3.59,1.62,3.97
22.0108060836792,0.6,3.53,1.44,3.85
22.020514965057373,0.93,3.54,0.99,3.79
22.030297994613647,1.38,3.87,0.44,4.13
22.040523052215576,1.5,4.31,0.1,4.56
22.060422897338867,1.19,4.42,0.22,4.58
22.060800075531006,0.59,4.3,0.76,4.4
22.070444107055664,-0.1,3.95,1.27,4.15
22.0803279876709,-0.79,3.07,0.71,3.24
22.090524911880493,-0.76,1.7,-0.41,1.9
22.110304832458496,-0.74,0.26,-1.63,1.8
22.11067485809326,-0.87,-1.06,-2.67,3.0
22.120553970336914,-1.02,-1.83,-3.45,4.03
22.13030695915222,-1.39,-2.0,-3.88,4.58
22.140509128570557,-1.97,-1.76,-3.85,4.66
22.160665035247803,-2.17,-1.27,-3.31,4.15
22.161032915115356,-2.04,-0.76,-2.24,3.12
22.170418977737427,-1.95,-0.4,-1.0,2.22
22.180365085601807,-1.57,-0.19,0.33,1.61
22.190539836883545,-1.14,-0.2,1.44,1.84
22.210905075073242,-0.77,-0.42,2.01,2.19
22.211257934570312,-0.62,-0.84,1.93,2.19
22.220565795898438,-0.61,-1.3,1.37,1.98
22.230288982391357,-0.53,-1.73,0.73,1.95
22.24052095413208,-0.31,-2.19,0.27,2.22
22.261213779449463,-0.04,-2.6,0.03,2.6
22.261588096618652,0.18,-2.85,-0.03,2.85
22.270512104034424,0.34,-2.91,-0.02,2.92
22.28033995628357,0.5,-3.05,0.01,3.09
22.290526866912842,0.56,-3.01,0.02,3.06
22.31104278564453,0.63,-2.9,-0.1,2.96
22.311419010162354,0.53,-2.79,-0.26,2.85
22.320612907409668,0.33,-2.64,-0.39,2.68
22.330229997634888,0.16,-2.52,-0.49,2.57
22.34050989151001,0.01,-2.38,-0.58,2.44
22.36059594154358,-0.02,-2.17,-0.56,2.24
22.360954999923706,0.04,-1.91,-0.44,1.96
22.370402812957764,0.07,-1.72,-0.19,1.73
22.38030695915222,0.02,-1.49,0.15,1.49
22.390471935272217,-0.12,-1.2,0.52,1.31
22.4096999168396,-0.26,-0.91,0.83,1.25
22.410300970077515,-0.37,-0.54,1.05,1.23
22.420485973358154,-0.44,-0.14,1.22,1.3
22.430288791656494,-0.39,0.27,1.4,1.47
22.440505981445312,-0.28,0.83,1.69,1.9
22.45993995666504,-0.18,1.32,1.86,2.28
22.46044111251831,-0.06,1.85,1.96,2.69
22.470306873321533,0.08,2.4,1.99,3.11
22.480287075042725,0.31,2.75,1.88,3.34
22.49064302444458,0.52,3.03,1.66,3.49
22.510695934295654,0.67,3.05,1.35,3.4
22.511019945144653,0.67,3.14,1.04,3.37
22.520554065704346,0.32,3.32,0.9,3.45
22.530471801757812,0.03,3.55,0.78,3.63
22.540565013885498,-0.11,4.1,0.79,4.17
22.56160593032837,-0.24,4.81,1.17,4.95
22.561964988708496,-0.21,5.42,1.8,5.71
22.570481777191162,-0.11,5.53,2.31,5.99
22.58073377609253,-0.04,4.83,2.19,5.3
22.590564966201782,0.05,3.29,1.05,3.45
22.610686779022217,0.21,1.59,-0.75,1.77
22.6110520362854,0.49,-0.12,-2.65,2.69
22.620583057403564,1.01,-1.49,-4.5,4.84
22.63076400756836,1.52,-2.13,-6.05,6.59
22.640592098236084,1.76,-2.3,-7.05,7.62
22.661895990371704,1.74,-2.12,-7.26,7.76
22.662250995635986,1.6,-1.62,-6.5,6.88
22.6705060005188,1.33,-1.26,-5.01,5.33
22.680924892425537,1.12,-0.94,-3.36,3.66
22.69064497947693,0.94,-0.53,-1.68,1.99
22.711599826812744,0.89,-0.36,-0.18,0.97
22.711960792541504,0.88,-0.44,0.97,1.38
22.72053289413452,0.73,-0.73,1.68,1.97
22.73092293739319,0.44,-1.14,1.93,2.28
22.740647792816162,0.06,-1.64,1.77,2.41
22.761544942855835,-0.28,-2.04,1.38,2.47
22.761902809143066,-0.61,-2.32,0.94,2.57
22.77053689956665,-0.85,-2.55,0.56,2.74
22.780991077423096,-0.93,-2.68,0.24,2.84
22.790597915649414,-0.9,-2.63,-0.03,2.77
22.811007022857666,-0.73,-2.51,-0.27,2.62
22.811365127563477,-0.49,-2.39,-0.42,2.47
22.820596933364868,-0.31,-2.26,-0.58,2.35
22.831200122833252,-0.23,-2.19,-0.76,2.32
22.84071397781372,-0.16,-2.14,-0.92,2.33
22.861638069152832,-0.11,-2.1,-1.0,2.32
22.86200499534607,-0.15,-2.08,-0.93,2.28
22.87053680419922,-0.12,-1.98,-0.65,2.08
22.880502939224243,0.0,-1.8,-0.23,1.81
22.89549684524536,0.13,-1.57,0.18,1.58
22.900604963302612,0.36,-1.23,0.61,1.41
22.910511016845703,0.58,-0.93,0.97,1.46
22.920631885528564,0.74,-0.6,1.27,1.58
22.930503845214844,0.82,-0.21,1.49,1.71
22.945537090301514,0.88,0.22,1.59,1.83
22.95046901702881,0.89,0.7,1.64,1.99
22.96052098274231,0.79,1.25,1.74,2.28
22.970627784729004,0.6,1.8,1.89,2.67
22.980462074279785,0.42,2.27,2.01,3.06
22.995421886444092,0.22,2.64,2.09,3.37
23.00062084197998,0.03,2.81,1.97,3.43
23.010533809661865,0.16,2.96,1.64,3.38
23.020610809326172,0.7,3.25,1.24,3.54
23.030502796173096,1.2,3.88,0.88,4.15
23.04548192024231,1.51,4.67,0.91,4.99
23.05028796195984,1.65,5.03,1.49,5.49
23.0605788230896,1.22,5.15,2.46,5.83
23.07061195373535,0.33,5.01,2.88,5.78
23.08059597015381,-0.38,4.18,2.21,4.74
23.095918893814087,-0.49,2.64,0.71,2.77
23.10065984725952,-0.49,1.04,-0.96,1.49
23.110554933547974,-0.48,-0.48,-2.57,2.65
23.120645999908447,-0.32,-1.66,-3.8,4.15
23.13066005706787,-0.56,-1.85,-4.78,5.15
23.14666199684143,-1.32,-1.56,-5.46,5.82
23.150607109069824,-2.11,-1.08,-5.6,6.08
23.16062092781067,-2.45,-0.67,-4.99,5.59
23.170673847198486,-2.51,-0.2,-3.58,4.37
23.180675983428955,-2.41,-0.03,-1.99,3.12
23.197280883789062,-2.02,0.02,-0.4,2.05
23.200726985931396,-1.46,-0.11,0.78,1.65
23.210556983947754,-0.97,-0.4,1.3,1.67
23.220706939697266,-0.64,-0.86,1.32,1.7
23.230686902999878,-0.35,-1.27,1.06,1.69
23.2478289604187,-0.03,-1.71,0.72,1.85
23.250571966171265,0.35,-2.24,0.35,2.29
23.261433124542236,0.74,-2.59,0.03,2.69
23.27070689201355,1.03,-2.69,-0.24,2.89
23.28065299987793,1.27,-2.93,-0.39,3.21
23.297950983047485,1.32,-2.95,-0.37,3.25
23.300882816314697,1.28,-2.88,-0.14,3.15
23.310539960861206,0.94,-2.98,-0.14,3.12
23.320743083953857,0.57,-2.9,-0.23,2.96
23.33090090751648,0.38,-2.82,-0.34,2.86
23.346479892730713,0.22,-2.86,-0.49,2.9
23.35030698776245,0.16,-2.84,-0.52,2.89
23.360261917114258,0.18,-2.75,-0.34,2.77
23.370408058166504,0.19,-2.69,-0.02,2.69
23.38032579421997,0.09,-2.52,0.35,2.54
23.395689964294434,-0.07,-2.23,0.68,2.33
23.40024995803833,-0.27,-1.89,0.87,2.09
23.41038179397583,-0.48,-1.46,1.04,1.85
23.42061710357666,-0.71,-0.88,1.3,1.72
23.430481910705566,-0.89,-0.22,1.65,1.88
23.449522972106934,-0.99,0.34,2.03,2.28
23.45075798034668,-0.97,0.86,2.33,2.66
23.46033000946045,-0.88,1.28,2.61,3.03
23.470387935638428,-0.63,1.52,2.58,3.06
23.48037600517273,-0.37,1.77,2.31,2.93
23.495823860168457,-0.08,2.02,1.95,2.8
23.500293970108032,0.29,2.3,1.69,2.86
23.510406017303467,0.42,2.3,1.22,2.63
23.520424842834473,0.28,2.6,0.88,2.75
23.53041696548462,-0.08,2.92,0.66,2.99
23.54610586166382,-0.43,3.38,0.66,3.47
23.55037212371826,-0.89,4.2,0.96,4.39
23.56046199798584,-1.25,5.17,1.58,5.54
23.570555925369263,-1.22,5.92,2.44,6.51
23.580399990081787,-0.8,6.44,3.47,7.35
23.596643924713135,-0.16,6.46,4.01,7.6
23.600239992141724,0.62,5.55,3.78,6.74
23.610464096069336,0.98,3.73,2.22,4.44
23.62046790122986,0.84,1.7,0.09,1.89
23.63052797317505,1.02,-0.33,-2.02,2.28
23.646795988082886,1.69,-1.9,-3.97,4.71
23.650430917739868,2.45,-2.72,-5.66,6.74
23.660420894622803,2.95,-2.97,-6.93,8.09
23.670464992523193,2.95,-2.77,-7.36,8.39
23.680521965026855,2.7,-2.26,-6.61,7.48
23.69688606262207,2.27,-1.76,-4.97,5.74
23.70032787322998,1.52,-1.41,-3.2,3.81
23.710569858551025,1.0,-0.82,-0.89,1.56
23.724287033081055,0.5,-0.53,0.56,0.91
23.734187126159668,0.23,-0.59,1.27,1.41
23.74444890022278,0.33,-0.76,1.58,1.78
23.766397953033447,0.17,-1.36,1.31,1.89
23.76747989654541,-0.06,-1.8,0.96,2.04
23.774438858032227,-0.35,-2.15,0.68,2.28
23.78418493270874,-0.56,-2.5,0.49,2.6
23.794332027435303,-0.8,-2.57,0.4,2.72
23.815566062927246,-1.05,-2.52,0.44,2.76
23.815906047821045,-1.07,-2.48,0.44,2.73
23.8243350982666,-0.94,-2.4,0.32,2.59
23.834178924560547,-0.64,-2.24,0.05,2.33
23.84419584274292,-0.31,-2.08,-0.33,2.12
23.865402936935425,0.04,-1.96,-0.67,2.07
23.86576509475708,0.27,-1.87,-0.85,2.07
23.87439203262329,0.36,-1.77,-0.77,1.96
23.884243965148926,0.35,-1.7,-0.47,1.79
23.894306898117065,0.33,-1.58,-0.03,1.61
23.914936065673828,0.3,-1.4,0.41,1.48
23.915292978286743,0.32,-1.2,0.68,1.41
23.92436981201172,0.33,-0.96,0.8,1.29
23.934267044067383,0.3,-0.68,0.86,1.13
23.944370985031128,0.31,-0.42,0.85,0.99
23.965139865875244,0.34,-0.13,0.8,0.87
23.965499877929688,0.37,0.21,0.73,0.84
23.97423505783081,0.31,0.64,0.68,0.98
23.984106063842773,0.2,1.16,0.65,1.34
23.994482040405273,0.09,1.69,0.64,1.8
24.01499891281128,0.0,2.2,0.61,2.28
24.015388011932373,-0.13,2.64,0.56,2.7
24.024345874786377,-0.41,3.01,0.53,3.08
24.03416395187378,-0.58,3.21,0.5,3.3
24.04446792602539,-0.48,3.22,0.37,3.27
24.064396858215332,-0.03,3.29,0.11,3.29
24.064759969711304,0.5,3.67,-0.12,3.7
24.074429988861084,0.73,4.21,-0.05,4.27
24.08411693572998,0.79,4.6,0.67,4.71
24.09438705444336,0.43,4.58,1.35,4.79
24.11449384689331,-0.14,4.23,1.71,4.56
24.114849090576172,-0.5,3.19,1.18,3.43
24.124412059783936,-0.68,1.66,-0.18,1.8
24.134246826171875,-0.92,0.37,-1.51,1.8
24.14444589614868,-0.91,-0.86,-2.63,2.91
24.16479992866516,-0.7,-1.7,-3.44,3.9
24.16515588760376,-0.56,-1.76,-3.84,4.26
24.17432689666748,-0.74,-1.52,-3.77,4.13
24.184130907058716,-0.92,-1.04,-3.05,3.35
24.194357872009277,-1.01,-0.59,-1.72,2.08
24.214698791503906,-1.27,-0.37,-0.3,1.35
24.21506404876709,-1.37,-0.12,0.95,1.67
24.224205017089844,-1.25,-0.07,1.68,2.09
24.234283924102783,-1.06,-0.29,1.78,2.09
24.244375944137573,-0.81,-0.65,1.38,1.72
24.264071941375732,-0.65,-0.99,0.83,1.44
24.264463901519775,-0.54,-1.36,0.31,1.49
24.274264812469482,-0.4,-1.73,-0.05,1.77
24.28419780731201,-0.21,-2.08,-0.31,2.11
24.294447898864746,0.01,-2.35,-0.45,2.39
24.315159797668457,0.2,-2.57,-0.57,2.64
24.3155198097229,0.42,-2.74,-0.68,2.85
24.324398040771484,0.6,-2.8,-0.8,2.97
24.334484100341797,0.7,-2.76,-0.98,3.01
24.344540119171143,0.63,-2.72,-1.17,3.02
24.364991903305054,0.45,-2.68,-1.35,3.03
24.36535406112671,0.26,-2.6,-1.41,2.96
24.374324798583984,0.11,-2.48,-1.24,2.77
24.384410858154297,0.09,-2.33,-0.83,2.47
24.394330978393555,0.09,-2.19,-0.26,2.2
24.415857791900635,0.04,-2.03,0.32,2.05
24.416211128234863,-0.09,-1.85,0.78,2.0
24.424450874328613,-0.23,-1.66,1.15,2.03
24.434704780578613,-0.35,-1.44,1.42,2.05
24.44460105895996,-0.43,-1.2,1.59,2.03
24.465519905090332,-0.47,-0.94,1.65,1.95
24.46589708328247,-0.48,-0.57,1.67,1.82
24.4743549823761,-0.47,-0.13,1.65,1.72
24.484620094299316,-0.48,0.34,1.59,1.69
24.494431018829346,-0.43,0.92,1.5,1.81
24.515383005142212,-0.4,1.6,1.44,2.18
24.515758991241455,-0.31,2.31,1.38,2.7
24.52434492111206,-0.19,2.9,1.23,3.15
24.53476595878601,-0.09,3.33,0.97,3.46
24.5444118976593,-0.08,3.56,0.66,3.62
24.565408945083618,-0.23,3.69,0.41,3.71
24.565773963928223,-0.54,3.76,0.24,3.8
24.574391841888428,-0.89,3.74,0.16,3.84
24.58478879928589,-1.27,4.07,0.31,4.27
24.594432830810547,-1.38,4.62,0.75,4.87
24.616097927093506,-1.02,4.9,1.48,5.21
24.616452932357788,-0.37,4.91,2.37,5.46
24.62445878982544,0.39,4.57,2.84,5.39
24.634289979934692,1.14,3.67,2.5,4.58
24.648600101470947,1.25,2.18,1.02,2.71
24.654365062713623,0.93,0.58,-0.7,1.3
24.66439700126648,0.95,-1.07,-2.24,2.65
24.674365043640137,1.39,-2.37,-3.5,4.44
24.68429398536682,2.12,-2.75,-4.31,5.53
24.69802498817444,2.75,-2.59,-4.78,6.09
24.70440912246704,3.02,-2.13,-4.48,5.8
24.71426486968994,3.01,-1.5,-3.37,4.76
24.724483966827393,2.87,-0.97,-1.39,3.33
24.734400987625122,2.41,-0.46,0.17,2.45
24.749310970306396,1.92,-0.04,1.35,2.34
24.754435062408447,1.56,-0.03,2.01,2.54
24.764429092407227,1.37,-0.29,2.12,2.54
24.774513959884644,1.04,-0.79,1.48,1.97
24.78442692756653,0.54,-1.3,0.64,1.54
24.79955005645752,0.06,-1.79,-0.08,1.79
24.804369926452637,-0.41,-2.33,-0.62,2.44
24.8144850730896,-0.75,-2.67,-0.94,2.92
24.824487924575806,-1.06,-2.82,-1.16,3.22
24.83438205718994,-1.48,-2.81,-1.12,3.36
24.849491119384766,-1.67,-2.78,-1.03,3.4
24.85426902770996,-1.51,-2.7,-1.0,3.25
24.864317893981934,-1.14,-2.57,-0.98,2.97
24.87446093559265,-0.69,-2.39,-0.9,2.64
24.884453773498535,-0.38,-2.26,-0.78,2.42
24.899983882904053,-0.23,-2.13,-0.64,2.23
24.904462814331055,-0.21,-1.94,-0.45,2.0
24.914384841918945,-0.25,-1.75,-0.19,1.77
24.92456293106079,-0.3,-1.57,0.04,1.59
24.934395790100098,-0.3,-1.41,0.24,1.46
24.950117111206055,-0.29,-1.22,0.46,1.33
24.954397916793823,-0.25,-0.96,0.71,1.21
24.964468955993652,-0.15,-0.67,0.9,1.13
24.97441792488098,-0.04,-0.25,1.04,1.07
24.984471797943115,0.08,0.25,1.18,1.2
25.000630855560303,0.25,0.67,1.23,1.42
25.004537105560303,0.41,1.13,1.18,1.68
25.014461040496826,0.56,1.7,1.07,2.08
25.024553775787354,0.59,2.32,0.98,2.58
25.034475803375244,0.53,2.9,0.97,3.1
25.05069589614868,0.39,3.35,1.05,3.53
25.054407119750977,0.2,3.67,1.15,3.85
25.06461811065674,0.08,3.71,1.16,3.88
25.074543952941895,0.28,3.46,0.84,3.57
25.084556102752686,0.73,3.27,0.21,3.35
25.10211181640625,1.3,3.48,-0.36,3.73
25.104347944259644,1.48,3.77,-0.46,4.07
25.11445689201355,1.33,3.92,-0.12,4.14
25.124531984329224,0.72,3.77,0.51,3.87
25.134541988372803,-0.09,3.55,0.92,3.66
25.152455806732178,-0.78,2.89,0.63,3.05
25.154417037963867,-1.03,1.44,-0.45,1.82
25.164424896240234,-1.0,0.08,-1.69,1.96
25.17442798614502,-0.95,-1.03,-2.75,3.08
25.184539794921875,-0.67,-1.99,-3.57,4.14
25.202001094818115,-0.67,-2.29,-3.93,4.59
25.204425811767578,-1.13,-1.83,-3.84,4.4
25.214523792266846,-1.51,-1.17,-3.24,3.76
25.224548816680908,-1.85,-0.73,-2.17,2.94
25.234500885009766,-2.16,-0.31,-0.94,2.37
25.251174926757812,-2.26,0.11,0.2,2.27
25.254400968551636,-2.11,0.27,1.1,2.39
25.26444387435913,-1.81,0.16,1.53,2.37
25.274599075317383,-1.48,-0.1,1.45,2.07
25.284563064575195,-1.1,-0.46,1.1,1.62
25.300663948059082,-0.9,-0.86,0.72,1.43
25.304329872131348,-0.65,-1.26,0.34,1.45
25.31456708908081,-0.26,-1.61,-0.01,1.63
25.32449698448181,0.28,-1.91,-0.28,1.95
25.33449697494507,0.88,-2.18,-0.68,2.44
25.34986686706543,1.31,-2.11,-0.91,2.64
25.35431694984436,1.53,-2.2,-1.2,2.93
25.364506006240845,1.55,-2.4,-1.49,3.22
25.374517917633057,1.36,-2.41,-1.67,3.23
25.384567975997925,1.0,-2.42,-1.8,3.17
25.400137901306152,0.61,-2.38,-1.74,3.01
25.404473781585693,0.3,-2.35,-1.47,2.78
25.41454792022705,0.15,-2.33,-0.98,2.53
25.424688816070557,0.06,-2.22,-0.37,2.25
25.434482097625732,-0.02,-2.09,0.21,2.1
25.449960947036743,-0.17,-2.0,0.68,2.11
25.454352855682373,-0.37,-1.82,1.09,2.15
25.46457600593567,-0.59,-1.63,1.44,2.25
25.474605083465576,-0.78,-1.47,1.66,2.35
25.484530925750732,-0.79,-1.22,1.76,2.28
25.500825881958008,-0.72,-0.93,1.7,2.06
25.504387855529785,-0.57,-0.6,1.55,1.75
25.514539003372192,-0.32,-0.22,1.38,1.43
25.52472686767578,-0.11,0.29,1.18,1.22
25.5345458984375,0.13,0.92,1.05,1.4
25.551365852355957,0.44,1.61,1.11,2.0
25.55450201034546,0.7,2.02,1.0,2.36
25.56454300880432,0.91,2.5,0.95,2.82
25.574752807617188,0.87,2.78,0.76,3.01
25.584578037261963,0.59,2.83,0.43,2.92
25.600822925567627,0.15,2.82,0.05,2.82
25.604496002197266,-0.37,2.85,-0.26,2.88
25.614502906799316,-0.69,3.2,-0.37,3.29
25.62459087371826,-0.76,3.62,-0.1,3.7
25.63455891609192,-0.77,3.9,0.36,3.99
25.650227069854736,-0.48,4.16,1.06,4.31
25.65453600883484,0.17,4.31,1.54,4.58
25.664541959762573,1.13,4.09,1.29,4.43
25.6745867729187,1.46,3.14,0.29,3.47
25.684603929519653,1.36,1.96,-1.03,2.59
25.701272010803223,1.49,0.56,-2.32,2.81
25.704625129699707,1.87,-0.76,-3.46,4.0
25.714500904083252,2.26,-1.48,-4.25,5.03
25.72467279434204,2.48,-1.64,-4.58,5.46
25.734539031982422,2.19,-1.48,-4.26,5.01
25.750943899154663,1.78,-1.14,-3.14,3.78
25.75442409515381,1.61,-1.07,-1.46,2.42
25.764550924301147,1.31,-0.86,-0.26,1.58
25.774603843688965,0.88,-0.54,0.52,1.15
25.784555912017822,0.54,-0.43,0.91,1.14
25.801315784454346,0.21,-0.57,0.89,1.07
25.804429054260254,0.0,-0.75,0.68,1.01
25.814498901367188,-0.11,-0.97,0.44,1.07
25.824617862701416,-0.23,-1.15,0.26,1.2
25.834517002105713,-0.33,-1.27,0.07,1.31
25.850398063659668,-0.42,-1.34,-0.08,1.4
25.854496002197266,-0.54,-1.4,-0.22,1.51
25.86462092399597,-0.64,-1.32,-0.34,1.5
25.87464690208435,-0.73,-1.23,-0.52,1.52
25.88457679748535,-0.77,-1.27,-0.74,1.65
25.901712894439697,-0.76,-1.36,-1.0,1.85
25.90468406677246,-0.71,-1.44,-1.24,2.02
25.914538860321045,-0.61,-1.5,-1.39,2.13
25.92461895942688,-0.46,-1.56,-1.4,2.14
25.934596061706543,-0.27,-1.55,-1.21,1.98
25.951968908309937,-0.09,-1.42,-0.88,1.67
25.954442024230957,0.09,-1.3,-0.55,1.41
25.964584827423096,0.05,-1.22,-0.3,1.25
25.974475860595703,-0.06,-1.21,-0.07,1.21
25.984571933746338,-0.2,-1.18,0.15,1.2
26.00151777267456,-0.34,-1.18,0.34,1.27
26.004509925842285,-0.35,-1.27,0.52,1.41
26.014587879180908,-0.18,-1.34,0.69,1.51
26.02451801300049,0.09,-1.36,0.73,1.54
26.034637928009033,0.32,-1.24,0.64,1.43
26.052350997924805,0.6,-0.99,0.54,1.27
26.05441904067993,0.79,-0.59,0.41,1.06
26.064613819122314,0.82,-0.04,0.32,0.88
26.074553966522217,0.75,0.59,0.33,1.0
26.08462691307068,0.61,1.22,0.5,1.45
26.102492809295654,0.58,1.85,0.82,2.1
26.104743003845215,0.56,2.45,1.25,2.8
26.114622116088867,0.55,2.78,1.64,3.27
26.12474012374878,0.64,2.87,1.9,3.5
26.13463592529297,0.77,2.7,1.58,3.22
26.1521577835083,0.97,2.53,0.84,2.83
26.154696941375732,1.25,2.63,0.12,2.91
26.1646089553833,1.63,2.88,-0.29,3.32
26.174488067626953,1.85,3.16,-0.24,3.66
26.18470811843872,1.72,3.31,0.09,3.73
26.2017719745636,1.2,3.66,0.53,3.88
26.2047119140625,0.44,3.88,0.71,3.96
26.21467685699463,-0.18,3.66,0.48,3.69
26.22453999519348,-0.65,2.97,-0.14,3.04
26.234689950942993,-0.63,1.66,-0.95,2.01
26.25197982788086,-0.57,0.2,-2.05,2.13
26.254823923110962,-0.51,-0.99,-2.95,3.15
26.264702796936035,-0.41,-1.91,-3.6,4.09
26.274558067321777,-0.34,-2.47,-3.93,4.65
26.284652948379517,-0.28,-2.56,-3.96,4.72
26.301578998565674,-0.29,-2.19,-3.51,4.14
26.305006980895996,-0.32,-1.52,-2.48,2.92
26.31475591659546,-0.26,-1.13,-1.3,1.74
26.32459783554077,-0.27,-0.6,-0.17,0.67
26.334645986557007,-0.65,-0.14,0.64,0.92
26.351869106292725,-1.26,0.03,0.93,1.56
26.355053901672363,-1.63,0.2,0.84,1.84
26.36475396156311,-1.66,0.24,0.4,1.72
26.374617099761963,-1.32,0.11,-0.17,1.33
26.384674072265625,-0.78,-0.06,-0.69,1.04
26.402626991271973,-0.33,-0.14,-1.13,1.18
26.40519380569458,0.02,-0.31,-1.51,1.54
26.414774894714355,0.33,-0.45,-1.82,1.9
26.424585819244385,0.59,-0.51,-2.1,2.24
26.434720039367676,0.78,-0.58,-2.36,2.55
26.45389199256897,0.84,-0.57,-2.49,2.68
26.454463958740234,0.71,-0.55,-2.4,2.56
26.46468997001648,0.5,-0.53,-2.14,2.26
26.47472596168518,0.28,-0.57,-1.77,1.88
26.48469591140747,0.04,-0.61,-1.3,1.43
26.503235816955566,-0.17,-0.68,-0.87,1.11
26.504584789276123,-0.38,-0.85,-0.51,1.06
26.514708042144775,-0.55,-1.01,-0.25,1.17
26.524611949920654,-0.63,-1.16,-0.1,1.32
26.534809112548828,-0.62,-1.3,-0.01,1.44
26.553324937820435,-0.57,-1.39,0.05,1.5
26.555674076080322,-0.53,-1.47,0.04,1.56
26.564653873443604,-0.48,-1.49,0.04,1.56
26.574687957763672,-0.44,-1.42,0.07,1.48
26.584702014923096,-0.36,-1.23,0.12,1.28
26.603500843048096,-0.3,-1.04,0.2,1.1
26.604540824890137,-0.3,-0.87,0.32,0.97
26.614737033843994,-0.33,-0.7,0.47,0.9
26.624587059020996,-0.34,-0.57,0.51,0.83
26.634814977645874,-0.29,-0.46,0.41,0.68
26.653538942337036,-0.24,-0.28,0.18,0.41
26.654685020446777,-0.21,0.0,-0.03,0.21
26.66475796699524,-0.18,0.3,-0.12,0.36
26.67473602294922,-0.23,0.59,-0.14,0.64
26.684669971466064,-0.24,0.8,-0.14,0.84
26.70328378677368,-0.26,1.0,-0.1,1.03
26.704590797424316,-0.24,1.1,-0.1,1.13
26.714725017547607,-0.19,1.1,-0.12,1.12
26.72467589378357,-0.14,1.02,-0.14,1.03
26.734775066375732,-0.19,0.87,-0.18,0.9
26.7534499168396,-0.31,0.74,-0.21,0.82
26.75458812713623,-0.47,0.76,-0.16,0.9
26.764801025390625,-0.53,1.01,0.0,1.14
26.774639129638672,-0.45,1.42,0.22,1.5
26.78472590446472,-0.32,1.85,0.52,1.94
26.803543090820312,-0.23,2.21,0.81,2.36
26.804680824279785,-0.02,2.43,0.96,2.61
26.81470799446106,0.34,2.42,0.85,2.58
26.82467794418335,0.72,2.22,0.45,2.37
26.8347909450531,0.95,1.89,-0.18,2.12
26.85379195213318,0.98,1.52,-0.85,1.99
26.854557991027832,1.0,1.11,-1.37,2.02
26.864821910858154,0.93,0.65,-1.7,2.04
26.874644994735718,0.77,0.16,-1.86,2.01
26.88473606109619,0.66,-0.28,-1.94,2.06
26.904101848602295,0.54,-0.69,-2.05,2.22
26.904650926589966,0.38,-1.02,-2.12,2.38
26.91477394104004,0.28,-1.28,-2.0,2.39
26.92467999458313,0.23,-1.41,-1.71,2.22
26.93475890159607,0.21,-1.46,-1.3,1.96
26.95419692993164,0.27,-1.47,-0.96,1.77
26.9545578956604,0.39,-1.39,-0.78,1.64
26.96486496925354,0.6,-1.24,-0.74,1.56
26.97459077835083,0.77,-1.09,-0.71,1.51
26.984704971313477,0.78,-0.92,-0.62,1.35
27.003437995910645,0.73,-0.7,-0.52,1.13
27.004581928253174,0.74,-0.49,-0.51,1.02
27.014763832092285,0.83,-0.31,-0.62,1.08
27.02474093437195,0.84,-0.13,-0.76,1.14
27.034707069396973,0.84,0.08,-0.82,1.17
27.054903030395508,0.85,0.31,-0.76,1.18
27.055441856384277,0.74,0.47,-0.64,1.08
27.064952850341797,0.5,0.55,-0.56,0.93
27.074644088745117,0.26,0.59,-0.61,0.88
27.08478593826294,-0.04,0.49,-0.88,1.0
27.103967905044556,-0.34,0.33,-1.32,1.4
27.104703903198242,-0.58,0.22,-1.71,1.81
27.11469793319702,-0.64,0.12,-1.93,2.03
27.124727964401245,-0.59,-0.01,-1.96,2.04
27.13483691215515,-0.45,-0.11,-1.9,1.95
27.154587984085083,-0.16,-0.14,-1.69,1.7
27.1549711227417,0.13,-0.17,-1.38,1.39
27.164897918701172,0.31,-0.19,-1.14,1.19
27.17461109161377,0.5,-0.2,-1.03,1.16
27.184834957122803,0.66,-0.28,-1.03,1.25
27.20487403869629,0.72,-0.38,-1.04,1.32
27.205212116241455,0.72,-0.48,-1.03,1.34
27.214842796325684,0.63,-0.51,-1.07,1.34
27.224730014801025,0.52,-0.49,-1.18,1.37
27.234851837158203,0.5,-0.44,-1.26,1.42
27.254384994506836,0.6,-0.38,-1.27,1.45
27.254722118377686,0.68,-0.38,-1.23,1.45
27.264887809753418,0.65,-0.34,-1.24,1.44
27.274648904800415,0.55,-0.3,-1.27,1.41
27.2847900390625,0.54,-0.17,-1.2,1.32
27.304906845092773,0.52,0.18,-0.97,1.11
27.3052659034729,0.39,0.57,-0.63,0.93
27.314847946166992,0.36,0.81,-0.18,0.9
27.324777126312256,0.47,0.78,0.24,0.94
27.335311889648438,0.64,0.71,0.32,1.0
27.35404682159424,0.85,0.77,-0.02,1.14
27.35440492630005,1.01,0.89,-0.57,1.46
27.360962867736816,1.04,0.95,-0.99,1.72
27.370917797088623,0.88,0.79,-1.07,1.59
27.381053924560547,0.53,0.55,-1.0,1.25
27.40417194366455,0.2,0.37,-0.96,1.04
27.404550075531006,0.05,0.18,-1.05,1.06
27.410941123962402,0.0,-0.08,-1.18,1.18
27.421091079711914,-0.04,-0.35,-1.24,1.28
27.431108951568604,-0.04,-0.56,-1.16,1.28
27.454626083374023,-0.07,-0.71,-0.91,1.15
27.454987049102783,-0.04,-0.76,-0.53,0.92
27.461086988449097,-0.02,-0.73,-0.14,0.74
27.47092294692993,-0.05,-0.71,0.14,0.72
27.481027126312256,-0.09,-0.67,0.23,0.71
27.504898071289062,-0.11,-0.61,0.16,0.64
27.505334854125977,-0.13,-0.56,0.08,0.58
27.511034965515137,-0.08,-0.49,0.09,0.5
27.521084785461426,-0.04,-0.39,0.24,0.45
27.531084060668945,-0.03,-0.22,0.5,0.54
27.556052923202515,0.03,-0.04,0.71,0.71
27.556492805480957,0.04,0.16,0.82,0.83
27.56111192703247,0.01,0.31,0.79,0.84
27.571029901504517,0.03,0.36,0.61,0.7
27.58115291595459,0.16,0.32,0.29,0.46
27.60559391975403,0.27,0.2,-0.13,0.36
27.60595178604126,0.35,0.06,-0.58,0.68
27.6111159324646,0.48,-0.08,-0.98,1.09
27.62104296684265,0.51,-0.21,-1.18,1.3
27.631136894226074,0.3,-0.24,-1.24,1.29
27.65706777572632,0.11,-0.19,-1.15,1.17
27.658018112182617,0.0,-0.16,-0.95,0.96
27.66115379333496,-0.08,-0.12,-0.67,0.68
27.670949935913086,-0.08,-0.05,-0.4,0.41
27.681164979934692,-0.11,0.03,-0.19,0.22
27.705997943878174,-0.16,0.09,-0.08,0.2
27.70636296272278,-0.24,0.16,-0.03,0.28
27.711031913757324,-0.28,0.23,0.03,0.36
27.721067905426025,-0.24,0.27,0.09,0.37
27.734880924224854,-0.2,0.27,0.17,0.37
27.75704598426819,-0.09,0.28,0.26,0.39
27.758166790008545,0.01,0.27,0.31,0.41
27.76493000984192,0.03,0.24,0.33,0.4
27.774797916412354,-0.01,0.18,0.35,0.39
27.784934997558594,-0.01,0.1,0.31,0.32
27.806561946868896,0.03,-0.02,0.13,0.13
27.806947946548462,0.13,-0.17,-0.15,0.26
27.814939975738525,0.16,-0.28,-0.44,0.54
27.82485795021057,0.23,-0.34,-0.64,0.76
27.835097789764404,0.34,-0.37,-0.7,0.86
27.8563129901886,0.44,-0.33,-0.6,0.81
27.856688022613525,0.49,-0.24,-0.38,0.66
27.865039825439453,0.41,-0.11,-0.12,0.44
27.875043869018555,0.27,0.03,0.08,0.28
27.885047912597656,0.17,0.13,0.2,0.29
27.90578293800354,0.08,0.15,0.24,0.29
27.906147956848145,0.0,0.17,0.23,0.28
27.914881944656372,-0.03,0.16,0.15,0.22
27.92511296272278,-0.02,0.15,0.07,0.16
27.935029983520508,0.06,0.1,-0.04,0.12
27.956253051757812,0.12,0.06,-0.18,0.22
27.95663595199585,0.15,0.03,-0.31,0.34
27.964958906173706,0.14,0.04,-0.39,0.41
27.975130081176758,0.07,0.06,-0.39,0.4
27.98500895500183,0.0,0.1,-0.31,0.32
28.006591796875,-0.06,0.09,-0.22,0.24
28.00692892074585,-0.06,0.08,-0.14,0.17
28.014952898025513,-0.02,0.07,-0.11,0.13
28.025290966033936,0.06,0.03,-0.1,0.12
28.034943103790283,0.06,-0.03,-0.1,0.12
28.05620288848877,0.03,-0.06,-0.03,0.07
28.056535959243774,0.03,-0.05,0.08,0.09
28.064990043640137,0.03,-0.06,0.15,0.16
28.075407028198242,0.07,-0.07,0.14,0.17
28.08505892753601,0.1,-0.07,0.09,0.15
28.107050895690918,0.07,-0.06,0.0,0.09
28.107435941696167,0.03,-0.07,-0.04,0.08
28.114991903305054,0.01,-0.05,-0.03,0.05
28.125500917434692,-0.02,-0.01,0.02,0.03
28.135003089904785,-0.03,-0.01,0.05,0.05
28.157038927078247,0.01,0.01,0.07,0.07
28.157394886016846,0.04,0.04,0.06,0.08
28.1650447845459,0.06,0.05,0.02,0.08
28.1748948097229,0.02,0.06,-0.04,0.07
28.18502187728882,-0.01,0.07,-0.05,0.08
28.207135915756226,0.01,0.06,-0.06,0.08
28.20748996734619,0.07,0.07,-0.02,0.1
28.215063095092773,0.11,0.09,0.0,0.14
28.22491979598999,0.08,0.06,-0.01,0.1
28.235047817230225,0.02,0.04,-0.02,0.04
28.257137775421143,0.0,0.04,0.06,0.07
28.257501125335693,0.05,0.0,0.16,0.16
28.2649929523468,0.08,-0.01,0.21,0.22
28.274856090545654,0.08,-0.02,0.19,0.2
28.2850399017334,0.07,-0.03,0.12,0.14
28.307424068450928,0.06,-0.05,0.07,0.1
28.30782198905945,0.08,-0.03,0.08,0.11
28.31510305404663,0.12,0.03,0.14,0.18
28.325010776519775,-0.01,-0.04,0.19,0.19
28.335097789764404,-0.15,0.04,0.2,0.25
28.3575119972229,-0.03,0.12,0.19,0.22
28.357897996902466,0.02,0.01,0.09,0.09
28.365041971206665,0.04,0.02,0.07,0.08
28.37491798400879,0.0,0.02,0.06,0.06
28.385071992874146,-0.05,-0.01,0.04,0.06
28.40753698348999,0.15,0.03,0.17,0.22
28.407931804656982,0.19,-0.09,0.2,0.29
28.415010929107666,0.04,-0.02,0.23,0.23
28.42494297027588,0.07,0.03,0.15,0.16
28.435043811798096,0.0,-0.04,0.04,0.05
28.457065105438232,-0.04,-0.04,0.01,0.05
28.457437992095947,-0.07,-0.02,0.03,0.07
28.465023040771484,-0.11,-0.01,0.1,0.14
28.474918842315674,-0.1,0.01,0.16,0.18
28.485026836395264,-0.11,0.05,0.17,0.2
28.5074520111084,-0.1,0.06,0.14,0.18
28.507832050323486,-0.07,0.02,0.0,0.07
28.51492691040039,-0.07,0.04,-0.18,0.19
28.52499294281006,-0.06,0.04,-0.29,0.29
28.53508496284485,-0.06,-0.01,-0.3,0.3
28.558337926864624,0.03,0.02,-0.05,0.06
28.5587100982666,0.04,0.0,-0.17,0.17
28.565102100372314,0.03,0.03,-0.31,0.31
28.5749831199646,0.06,0.09,-0.22,0.24
28.58510994911194,0.04,0.03,-0.16,0.16
28.6074800491333,0.09,0.05,-0.01,0.1
28.607839107513428,0.07,0.0,0.07,0.09
28.61502981185913,0.14,-0.02,0.02,0.14
28.62506890296936,0.11,0.07,-0.14,0.19
28.635108947753906,0.0,0.11,-0.29,0.31
28.65745782852173,-0.03,0.07,-0.37,0.37
28.657827854156494,-0.07,0.11,-0.21,0.24
28.665042877197266,-0.12,0.08,0.11,0.18
28.675053119659424,-0.07,0.0,0.41,0.41
28.685154914855957,0.07,-0.01,0.6,0.6
