time,ax,ay,az,atotal
0.02645111083984375,-0.05,0.39,0.03,0.39
0.026819229125976562,-0.07,0.63,0.98,1.16
0.027894973754882812,-0.2,0.79,1.34,1.56
0.03791999816894531,-0.28,0.57,1.05,1.22
0.04788804054260254,-0.1,0.16,0.51,0.54
0.06046605110168457,0.07,-0.22,-0.03,0.23
0.06772804260253906,0.07,-0.4,-0.28,0.49
0.07795095443725586,-0.02,-0.37,-0.26,0.45
0.08801412582397461,-0.01,-0.31,-0.16,0.34
0.0978541374206543,-0.01,-0.27,0.05,0.27
0.11202812194824219,-0.04,-0.18,0.19,0.26
0.11776018142700195,-0.05,-0.08,0.15,0.17
0.12799906730651855,-0.08,0.03,0.01,0.08
0.13790607452392578,-0.07,0.12,-0.17,0.21
0.14790010452270508,-0.09,0.13,-0.37,0.4
0.16260814666748047,-0.11,0.09,-0.4,0.42
0.16782808303833008,-0.16,0.1,-0.2,0.27
0.17794203758239746,-0.12,0.1,0.06,0.16
0.18793511390686035,-0.06,0.09,0.19,0.21
0.19802308082580566,-0.08,0.07,0.22,0.24
0.21296024322509766,-0.14,0.02,0.23,0.27
0.21781611442565918,-0.14,0.04,0.14,0.2
0.22796916961669922,-0.08,0.09,-0.06,0.13
0.23787403106689453,-0.03,0.06,-0.14,0.15
0.24794816970825195,-0.03,-0.04,-0.06,0.07
0.2627120018005371,-0.01,-0.1,0.02,0.1
0.2678041458129883,-0.02,-0.14,0.0,0.14
0.277921199798584,0.0,-0.08,-0.01,0.08
0.2880840301513672,0.01,-0.02,-0.03,0.03
0.2980630397796631,-0.02,-0.01,0.01,0.02
0.3135089874267578,-0.04,0.06,0.03,0.07
0.31779909133911133,-0.08,0.14,0.03,0.16
0.3280630111694336,-0.2,0.18,-0.05,0.27
0.33803796768188477,-0.18,0.18,-0.16,0.3
0.348114013671875,-0.12,0.09,-0.21,0.25
0.3642902374267578,0.02,-0.08,-0.18,0.19
0.3679060935974121,0.15,-0.2,-0.14,0.28
0.37816715240478516,0.18,-0.28,0.02,0.33
0.3880951404571533,0.07,-0.32,0.21,0.38
0.39808011054992676,0.02,-0.25,0.3,0.39
0.4146242141723633,-0.03,-0.12,0.18,0.21
0.4179060459136963,-0.11,-0.02,0.0,0.11
0.4282069206237793,-0.16,0.07,-0.09,0.19
0.4381389617919922,-0.1,0.1,-0.11,0.17
0.4480409622192383,-0.05,0.06,-0.19,0.2
0.46519994735717773,-0.06,0.04,-0.17,0.18
0.4680180549621582,-0.04,0.02,-0.04,0.06
0.4781632423400879,0.01,0.01,-0.01,0.01
0.4880962371826172,0.03,0.05,0.03,0.06
0.4980912208557129,0.0,0.08,0.14,0.16
0.515592098236084,-0.09,0.09,0.2,0.23
0.5181441307067871,-0.08,0.07,0.1,0.14
0.5282621383666992,-0.06,0.11,-0.02,0.12
0.5381011962890625,-0.12,0.13,-0.04,0.18
0.5480751991271973,-0.13,0.06,-0.02,0.14
0.5653619766235352,-0.08,-0.02,-0.07,0.1
0.5682759284973145,-0.02,-0.03,-0.16,0.16
0.5781891345977783,-0.04,-0.01,-0.23,0.23
0.5881321430206299,-0.05,-0.03,-0.19,0.19
0.5981030464172363,-0.03,-0.14,-0.1,0.17
0.6155340671539307,0.03,-0.25,0.02,0.25
0.6183261871337891,0.06,-0.2,0.12,0.24
0.6282062530517578,0.02,-0.05,0.22,0.22
0.6380410194396973,-0.12,0.02,0.25,0.27
0.6480281352996826,-0.04,0.06,0.28,0.28
0.6654801368713379,0.01,0.15,0.24,0.28
0.6682310104370117,-0.03,0.28,0.19,0.33
0.6782360076904297,0.0,0.44,0.05,0.44
0.6880202293395996,0.01,0.47,-0.14,0.49
0.6980271339416504,-0.03,0.41,-0.3,0.5
0.7153081893920898,-0.02,0.31,-0.33,0.45
0.7185811996459961,-0.04,0.14,-0.32,0.35
0.7280950546264648,-0.06,-0.04,-0.2,0.21
0.7382211685180664,-0.02,-0.24,-0.07,0.25
0.7481091022491455,0.07,-0.39,0.06,0.4
0.7650070190429688,0.04,-0.49,0.16,0.51
0.7685890197753906,-0.01,-0.55,0.18,0.57
0.7781691551208496,0.01,-0.52,0.15,0.54
0.7882471084594727,-0.05,-0.47,0.1,0.48
0.7981562614440918,-0.19,-0.38,-0.01,0.42
0.815446138381958,-0.25,-0.26,-0.13,0.38
0.8186922073364258,-0.29,-0.14,-0.19,0.37
0.8283720016479492,-0.27,-0.13,-0.17,0.34
0.8381600379943848,-0.25,-0.2,0.0,0.32
0.8481240272521973,-0.29,-0.29,0.3,0.5
0.8650741577148438,-0.25,-0.44,0.61,0.79
0.8687560558319092,-0.25,-0.51,0.76,0.94
0.8782610893249512,-0.21,-0.45,0.96,1.08
0.8881840705871582,-0.33,-0.35,1.07,1.17
0.8981320858001709,-0.52,-0.27,1.02,1.17
0.9157419204711914,-0.62,-0.1,1.02,1.19
0.9179692268371582,-0.78,0.1,1.01,1.28
0.9282021522521973,-0.81,0.24,0.98,1.29
0.9381680488586426,-0.76,0.29,0.89,1.2
0.9481220245361328,-0.6,0.33,0.73,1.0
0.965630054473877,-0.54,0.24,0.55,0.8
0.9680061340332031,-0.57,0.05,0.31,0.65
0.9782261848449707,-0.69,-0.06,0.23,0.72
0.9882800579071045,-0.77,-0.2,0.27,0.84
0.9981260299682617,-0.83,-0.42,0.4,1.01
1.0158581733703613,-0.9,-0.6,0.7,1.28
1.0179100036621094,-0.85,-0.73,1.05,1.53
1.0282540321350098,-0.71,-0.79,1.31,1.68
1.0380990505218506,-0.64,-0.7,1.51,1.78
1.0481162071228027,-0.55,-0.48,1.54,1.7
1.065101146697998,-0.5,-0.24,1.39,1.49
1.0680532455444336,-0.41,-0.02,1.16,1.23
1.0782530307769775,-0.38,0.16,0.92,1.0
1.0882019996643066,-0.37,0.16,0.7,0.8
1.0981969833374023,-0.3,0.07,0.63,0.7
1.1155810356140137,-0.31,-0.13,0.6,0.68
1.1180109977722168,-0.32,-0.38,0.6,0.77
1.1282200813293457,-0.36,-0.61,0.7,0.99
1.1380550861358643,-0.35,-0.77,0.87,1.21
1.1481900215148926,-0.39,-0.95,0.99,1.42
1.1660001277923584,-0.43,-1.05,1.13,1.6
1.1680290699005127,-0.35,-1.08,1.22,1.66
1.1781971454620361,-0.15,-1.05,1.25,1.63
1.1882400512695312,-0.02,-0.93,1.03,1.38
1.198202133178711,0.11,-0.77,0.52,0.93
1.2154879570007324,0.26,-0.6,-0.09,0.66
1.2181792259216309,0.33,-0.55,-0.61,0.88
1.2281501293182373,0.33,-0.77,-0.94,1.25
1.238180160522461,0.41,-1.14,-0.88,1.49
1.2481932640075684,0.6,-1.49,-0.11,1.61
1.2655611038208008,0.78,-1.72,1.3,2.29
1.2680630683898926,0.79,-1.83,2.87,3.49
1.2782680988311768,0.93,-1.54,4.24,4.6
1.2882120609283447,1.16,-0.8,5.09,5.28
1.298224925994873,1.31,0.26,5.16,5.33
1.3160290718078613,1.58,1.36,4.34,4.81
1.3179292678833008,1.47,2.33,2.77,3.9
1.3282520771026611,1.13,3.0,0.87,3.32
1.338231086730957,0.88,3.27,-0.95,3.51
1.3481900691986084,0.71,3.07,-2.14,3.8
1.3664450645446777,0.65,2.29,-2.43,3.4
1.3679821491241455,0.52,0.98,-1.99,2.27
1.378343105316162,0.28,-0.4,-0.98,1.09
1.388227939605713,0.19,-1.56,0.39,1.61
1.3981952667236328,0.16,-2.46,1.67,2.97
1.4171161651611328,0.2,-3.11,2.58,4.04
1.418004035949707,0.37,-3.39,3.19,4.66
1.428339958190918,0.42,-3.32,3.34,4.72
1.438115119934082,0.32,-2.94,3.1,4.28
1.4482691287994385,0.3,-2.34,2.74,3.61
1.467231035232544,0.29,-1.67,2.34,2.88
1.468040943145752,0.31,-1.18,1.97,2.31
1.4783320426940918,0.47,-0.95,1.74,2.03
1.4883100986480713,0.65,-0.8,1.8,2.07
1.498250961303711,0.71,-0.64,1.9,2.12
1.517888069152832,0.75,-0.5,1.84,2.04
1.5183539390563965,0.81,-0.44,1.61,1.85
1.5283489227294922,0.85,-0.35,1.36,1.64
1.5381569862365723,0.7,-0.27,1.19,1.4
1.5482690334320068,0.47,-0.11,1.06,1.16
1.567492961883545,0.44,0.08,1.12,1.2
1.568018913269043,0.45,0.22,1.2,1.3
1.5782790184020996,0.41,0.3,1.34,1.43
1.5881280899047852,0.42,0.45,1.47,1.59
1.5982842445373535,0.41,0.7,1.66,1.84
1.6173481941223145,0.26,0.89,1.82,2.04
1.6180071830749512,0.24,1.05,1.78,2.08
1.628258228302002,0.48,1.25,1.75,2.2
1.6382100582122803,0.9,1.58,1.92,2.64
1.6482551097869873,1.07,1.93,2.45,3.29
1.6671850681304932,0.78,2.23,3.01,3.82
1.6680080890655518,0.25,2.59,3.03,3.99
1.6782569885253906,-0.11,3.2,2.68,4.17
1.6883161067962646,-0.18,3.89,2.08,4.41
1.6981792449951172,-0.06,4.43,1.19,4.58
1.717421054840088,0.12,4.61,0.1,4.61
1.7181310653686523,0.23,4.31,-1.08,4.44
1.7282490730285645,0.24,3.6,-2.27,4.26
1.738206148147583,0.22,2.74,-3.3,4.29
1.7482190132141113,0.22,1.86,-3.91,4.33
1.7676551342010498,0.18,0.98,-3.76,3.88
1.7681260108947754,0.02,0.12,-2.92,2.92
1.7782750129699707,-0.03,-0.75,-1.87,2.01
1.7882280349731445,-0.02,-1.4,-0.91,1.66
1.798285961151123,-0.11,-1.48,-0.17,1.49
1.817824125289917,-0.38,-1.01,0.31,1.12
1.8182802200317383,-0.6,-0.19,0.39,0.74
1.8282580375671387,-0.63,0.6,0.18,0.88
1.8382620811462402,-0.58,1.04,-0.24,1.21
1.8483781814575195,-0.53,1.11,-0.81,1.47
1.8673372268676758,-0.39,0.79,-1.37,1.62
1.8681392669677734,-0.27,0.06,-1.86,1.88
1.8782992362976074,-0.18,-0.78,-2.05,2.2
1.8882222175598145,-0.03,-1.69,-2.0,2.61
1.8984131813049316,0.12,-2.57,-1.71,3.08
1.9182720184326172,0.35,-3.31,-1.08,3.49
1.9187512397766113,0.57,-4.0,-0.38,4.05
1.9283311367034912,0.62,-4.58,0.22,4.62
1.9382672309875488,0.67,-4.91,0.82,5.02
1.948310136795044,0.75,-4.79,1.5,5.07
1.9675970077514648,0.75,-4.26,2.1,4.8
1.9681470394134521,0.65,-3.48,2.45,4.3
1.9782671928405762,0.49,-2.65,2.52,3.68
1.9881830215454102,0.44,-1.92,2.44,3.13
1.9984731674194336,0.39,-1.25,2.08,2.45
2.0180671215057373,0.41,-0.64,1.54,1.71
2.0185251235961914,0.42,-0.03,0.91,1.0
2.0283169746398926,0.28,0.39,0.34,0.58
2.038227081298828,0.03,0.55,-0.01,0.55
2.048342227935791,-0.25,0.49,-0.1,0.55
2.0676190853118896,-0.56,0.34,-0.01,0.65
2.0680689811706543,-0.9,0.02,0.14,0.91
2.0782880783081055,-1.08,-0.39,0.48,1.24
2.088150978088379,-1.08,-0.75,0.74,1.5
2.0983872413635254,-1.02,-0.93,0.89,1.64
2.1183619499206543,-0.66,-1.0,1.13,1.64
2.118819236755371,-0.4,-1.11,1.17,1.66
2.1282801628112793,-0.33,-1.28,1.28,1.84
2.138154983520508,-0.33,-1.32,1.58,2.08
2.1483511924743652,-0.45,-1.24,1.8,2.23
2.1687071323394775,-0.66,-0.93,1.85,2.17
2.16915225982666,-0.6,-0.44,1.88,2.02
2.1782591342926025,-0.65,-0.11,1.94,2.04
2.188319206237793,-0.83,0.15,1.97,2.14
2.198341131210327,-0.99,0.35,1.95,2.21
2.2181601524353027,-1.18,0.55,1.81,2.22
2.218625068664551,-1.21,0.7,1.84,2.31
2.22829008102417,-0.99,0.89,2.21,2.57
2.238115072250366,-0.55,1.36,2.8,3.16
2.2483370304107666,0.04,2.15,3.44,4.05
2.2685089111328125,0.56,3.21,3.7,4.93
2.2689499855041504,0.79,4.37,3.27,5.51
2.2783679962158203,0.85,5.45,2.17,5.92
2.2881920337677,0.91,6.09,0.75,6.2
2.2983641624450684,0.94,5.89,-1.03,6.05
2.3190300464630127,0.98,5.04,-2.89,5.89
2.319499969482422,1.13,4.05,-4.29,6.0
2.328327178955078,1.24,3.05,-5.12,6.08
2.338223934173584,1.13,1.93,-5.14,5.6
2.3484110832214355,1.03,0.77,-4.54,4.71
2.3690550327301025,1.26,-0.27,-3.54,3.76
2.369497060775757,1.5,-1.07,-2.3,2.94
2.3782970905303955,1.52,-1.53,-1.08,2.41
2.3882369995117188,1.35,-1.57,-0.14,2.07
2.3984322547912598,1.24,-1.13,0.43,1.73
2.419171094894409,1.26,-0.43,0.5,1.42
2.419610023498535,1.13,0.32,0.28,1.2
2.428335189819336,0.8,0.84,-0.16,1.17
2.438267230987549,0.51,1.06,-0.7,1.36
2.4484751224517822,0.34,0.93,-1.22,1.57
2.4689900875091553,0.18,0.6,-1.45,1.57
2.4694390296936035,0.0,0.24,-1.38,1.4
2.478325128555298,-0.21,-0.2,-1.19,1.22
2.488368034362793,-0.4,-0.73,-0.87,1.2
2.498460054397583,-0.52,-1.32,-0.58,1.53
2.5195350646972656,-0.5,-1.99,-0.41,2.09
2.5199952125549316,-0.52,-2.69,-0.29,2.75
2.5283799171447754,-0.59,-3.25,-0.16,3.3
2.538435935974121,-0.55,-3.58,0.05,3.62
2.5485291481018066,-0.3,-3.74,0.13,3.75
2.5695509910583496,-0.02,-3.87,0.11,3.87
2.5699870586395264,0.17,-3.86,0.15,3.86
2.57843017578125,0.28,-3.7,0.27,3.72
2.588505268096924,0.24,-3.58,0.34,3.6
2.598551034927368,0.32,-3.39,0.36,3.42
2.6197571754455566,0.62,-3.13,0.43,3.21
2.620197057723999,0.94,-2.83,0.7,3.06
2.6284070014953613,1.09,-2.54,1.13,2.98
2.6386220455169678,1.1,-2.24,1.49,2.9
2.6484711170196533,1.12,-1.98,1.63,2.79
2.6698079109191895,1.23,-1.63,1.44,2.49
2.6702399253845215,1.29,-1.2,1.04,2.04
2.678400993347168,1.14,-0.77,0.68,1.53
2.6886661052703857,0.86,-0.42,0.58,1.11
2.6984329223632812,0.53,-0.12,0.76,0.93
2.719630241394043,0.12,0.24,1.19,1.21
2.720102071762085,-0.05,0.76,1.68,1.84
2.728415012359619,-0.21,1.26,1.86,2.25
2.7386059761047363,-0.41,1.67,1.71,2.42
2.74849796295166,-0.3,1.94,1.11,2.25
2.769522190093994,0.19,2.23,0.41,2.27
2.7699742317199707,0.6,2.42,0.12,2.49
2.7784011363983154,0.75,2.46,0.79,2.69
2.78863525390625,0.54,2.58,2.09,3.36
2.7985310554504395,0.23,2.93,3.13,4.29
2.820003032684326,0.15,3.76,3.67,5.25
2.8204610347747803,-0.05,4.92,3.61,6.1
2.82845401763916,-0.57,5.94,2.29,6.39
2.838881015777588,-0.96,6.44,-0.26,6.51
2.848581075668335,-1.16,6.31,-3.16,7.15
2.8702750205993652,-1.09,5.6,-5.64,8.02
2.8707351684570312,-0.89,4.38,-7.05,8.34
2.8784122467041016,-0.89,2.64,-6.88,7.42
2.8888092041015625,-0.8,0.77,-5.46,5.57
2.898482084274292,-0.32,-0.89,-3.44,3.56
2.9206042289733887,-0.19,-1.98,-1.3,2.37
2.9210500717163086,-0.31,-2.35,0.44,2.41
2.928493022918701,-0.36,-2.1,1.56,2.64
2.938925266265869,-0.18,-1.41,1.94,2.4
2.948513984680176,-0.06,-0.64,1.64,1.76
2.9697751998901367,-0.19,0.05,0.78,0.8
2.9702160358428955,-0.46,0.67,-0.26,0.85
2.9784021377563477,-0.66,1.13,-1.27,1.82
2.9883241653442383,-0.82,1.26,-1.97,2.47
2.9985299110412598,-0.95,0.95,-2.29,2.65
3.0200881958007812,-0.96,0.28,-2.16,2.38
3.0205512046813965,-0.75,-0.62,-1.74,1.99
3.0284762382507324,-0.35,-1.56,-1.28,2.04
3.0383400917053223,0.16,-2.45,-0.87,2.6
3.048521041870117,0.45,-3.29,-0.32,3.33
3.0702390670776367,0.54,-4.05,0.31,4.09
3.070673942565918,0.49,-4.61,0.79,4.7
3.078489065170288,0.52,-4.75,1.1,4.9
3.0883140563964844,0.49,-4.44,1.13,4.6
3.0985240936279297,0.34,-3.86,0.78,3.95
3.1203689575195312,0.24,-3.28,0.23,3.29
3.1208372116088867,0.13,-2.88,-0.33,2.9
3.128493070602417,0.01,-2.62,-0.65,2.69
3.138366222381592,-0.23,-2.39,-0.66,2.49
3.1485819816589355,-0.41,-2.26,-0.34,2.32
3.170454978942871,-0.61,-2.25,0.08,2.33
3.170924186706543,-0.76,-2.24,0.53,2.42
3.178462028503418,-0.77,-2.18,0.81,2.44
3.188385009765625,-0.81,-1.93,0.97,2.3
3.198559045791626,-0.89,-1.66,1.07,2.16
3.220405101776123,-0.99,-1.47,1.12,2.09
3.2208609580993652,-1.1,-1.18,1.32,2.08
3.2284960746765137,-1.2,-0.78,1.59,2.13
3.2383711338043213,-1.27,-0.31,1.87,2.28
3.248598098754883,-1.13,0.2,2.06,2.35
3.270169258117676,-0.93,0.92,2.07,2.44
3.270613193511963,-0.64,1.59,1.88,2.54
3.2785661220550537,-0.38,2.06,1.53,2.59
3.288389205932617,-0.35,2.34,1.21,2.65
3.2985782623291016,-0.51,2.52,0.91,2.72
3.3203439712524414,-0.94,2.71,0.75,2.96
3.320805072784424,-1.38,2.97,1.0,3.42
3.328537940979004,-1.31,3.31,1.68,3.93
3.3383750915527344,-0.72,3.83,2.69,4.73
3.3485889434814453,0.19,4.51,3.05,5.44
3.370406150817871,1.12,5.33,2.29,5.9
3.3708410263061523,1.59,6.0,0.99,6.28
3.378559112548828,1.5,6.23,-0.46,6.42
3.3884029388427734,1.12,5.67,-2.26,6.2
3.3986639976501465,1.08,4.48,-3.97,6.08
3.4208250045776367,1.3,3.15,-4.67,5.78
3.4212770462036133,1.29,1.74,-4.3,4.81
3.4284262657165527,1.37,0.23,-3.41,3.68
3.4384121894836426,1.4,-1.12,-2.34,2.94
3.4486122131347656,1.41,-1.96,-1.35,2.76
3.471022129058838,1.34,-2.13,-0.62,2.59
3.471467971801758,1.18,-1.75,-0.37,2.14
3.4785642623901367,0.88,-1.07,-0.51,1.47
3.488415241241455,0.4,-0.46,-0.88,1.07
3.4986720085144043,-0.07,-0.03,-1.05,1.05
3.5206189155578613,-0.48,0.22,-1.07,1.19
3.521070957183838,-0.71,0.25,-1.14,1.36
3.528510093688965,-0.77,0.24,-1.0,1.28
3.53841495513916,-0.82,0.2,-0.72,1.1
3.5486111640930176,-0.67,0.04,-0.39,0.77
3.570852041244507,-0.44,-0.3,-0.14,0.55
3.5712931156158447,-0.11,-0.77,-0.01,0.77
3.578601121902466,0.35,-1.25,-0.04,1.29
3.588456153869629,0.6,-1.74,-0.06,1.84
3.5987260341644287,0.62,-2.25,-0.13,2.33
3.6207690238952637,0.65,-2.65,-0.14,2.73
3.621182918548584,0.65,-2.99,-0.1,3.06
3.6286051273345947,0.38,-3.25,0.0,3.27
3.638461112976074,0.12,-3.34,0.15,3.34
3.648681163787842,-0.11,-3.17,0.26,3.18
3.6712470054626465,-0.25,-2.97,0.37,3.0
3.6717031002044678,-0.22,-2.88,0.38,2.91
3.6785221099853516,0.01,-2.86,0.38,2.88
3.6884851455688477,0.4,-2.8,0.56,2.88
3.698507070541382,0.73,-2.65,0.72,2.84
3.721379041671753,0.95,-2.44,0.9,2.76
3.72183895111084,1.1,-2.25,0.99,2.69
3.728577136993408,1.07,-2.03,1.02,2.51
3.738466262817383,0.84,-1.85,0.9,2.22
3.7485580444335938,0.75,-1.57,0.69,1.87
3.7712149620056152,0.67,-1.31,0.4,1.52
3.771665096282959,0.56,-1.08,0.33,1.26
3.778653144836426,0.61,-0.84,0.6,1.19
3.7885091304779053,0.57,-0.52,1.08,1.32
3.798579216003418,0.38,-0.14,1.62,1.66
3.821505069732666,0.15,0.33,1.89,1.92
3.821956157684326,-0.08,0.82,1.82,1.99
3.8286170959472656,-0.2,1.33,1.39,1.93
3.8384780883789062,-0.02,2.0,0.71,2.12
3.8486170768737793,0.52,2.62,0.04,2.67
3.8713321685791016,1.05,3.1,-0.13,3.27
3.871793031692505,1.22,3.45,0.52,3.69
3.8785929679870605,0.96,3.78,1.52,4.18
3.8884661197662354,0.55,4.24,2.33,4.86
3.898561954498291,0.14,4.97,2.33,5.49
3.921264171600342,-0.38,5.9,1.41,6.07
3.9216420650482178,-0.97,6.52,-0.08,6.59
3.9285221099853516,-1.46,6.36,-1.96,6.81
3.9384679794311523,-1.71,5.56,-3.52,6.79
3.948617935180664,-1.92,4.28,-4.24,6.32
3.9716970920562744,-1.88,2.78,-4.2,5.37
3.9721450805664062,-1.67,1.38,-3.56,4.16
3.978607177734375,-1.51,0.39,-2.73,3.14
3.988481044769287,-1.31,0.02,-1.95,2.34
3.9986441135406494,-0.77,0.13,-1.15,1.39
4.020924091339111,-0.07,0.47,-0.51,0.69
4.021376132965088,0.39,0.81,-0.21,0.92
4.024620056152344,0.62,1.0,-0.04,1.17
4.0347740650177,0.73,0.89,-0.25,1.17
4.044734954833984,0.7,0.62,-0.85,1.26
4.054815053939819,0.45,0.21,-1.48,1.56
4.070549011230469,0.02,-0.39,-1.9,1.93
4.074650049209595,-0.51,-1.22,-1.82,2.24
4.084774971008301,-0.94,-2.2,-1.42,2.78
4.094773054122925,-1.1,-3.13,-0.82,3.41
4.1048150062561035,-1.1,-3.89,-0.15,4.04
4.12151312828064,-0.95,-4.4,0.34,4.51
4.124660015106201,-0.52,-4.53,0.57,4.59
4.134754180908203,0.0,-4.47,0.72,4.52
4.144894123077393,0.39,-4.4,0.78,4.48
4.1547980308532715,0.54,-4.29,0.69,4.37
4.171102046966553,0.53,-4.14,0.46,4.19
4.17464804649353,0.42,-3.88,0.3,3.91
4.184726238250732,0.28,-3.58,0.21,3.59
4.194847106933594,0.21,-3.25,0.12,3.25
4.2049431800842285,0.06,-2.95,0.05,2.95
4.221198081970215,-0.14,-2.68,0.13,2.68
4.224642038345337,-0.48,-2.43,0.31,2.49
4.2347331047058105,-0.76,-2.21,0.49,2.38
4.244750022888184,-0.93,-2.02,0.51,2.28
4.2548322677612305,-0.9,-1.75,0.5,2.03
4.271295070648193,-0.8,-1.4,0.59,1.71
4.274609088897705,-0.7,-1.09,0.85,1.54
4.2848381996154785,-0.67,-0.83,1.3,1.68
4.294940948486328,-0.64,-0.58,1.77,1.96
4.304886102676392,-0.59,-0.15,2.14,2.22
4.3214521408081055,-0.63,0.55,2.29,2.43
4.324723243713379,-0.54,1.25,2.18,2.57
4.33492112159729,-0.28,1.79,1.68,2.47
4.344944000244141,-0.13,2.32,1.1,2.57
4.354874134063721,-0.33,2.9,0.74,3.01
4.371695041656494,-0.73,3.4,0.79,3.56
4.374714136123657,-1.17,3.78,1.7,4.3
4.38484001159668,-1.32,3.98,2.91,5.1
4.394855976104736,-0.64,4.21,3.52,5.52
4.406199932098389,0.4,4.87,3.19,5.83
4.422928094863892,1.11,5.84,2.2,6.33
4.426018238067627,1.34,6.7,0.23,6.83
4.436237096786499,1.39,6.91,-2.55,7.49
4.446156978607178,1.36,6.22,-4.96,8.07
4.456192970275879,1.07,4.83,-6.22,7.94
4.472742080688477,0.35,2.9,-6.09,6.75
4.476140022277832,-0.07,0.8,-4.88,4.94
4.48602294921875,0.04,-0.83,-3.11,3.21
4.4961371421813965,0.23,-1.78,-1.12,2.11
4.506130218505859,0.43,-1.95,0.72,2.12
4.523428916931152,0.61,-1.59,1.94,2.58
4.526087045669556,0.84,-0.91,2.18,2.5
4.536076068878174,1.21,-0.14,1.68,2.07
4.546191215515137,1.38,0.38,0.75,1.61
4.556218147277832,1.19,0.47,-0.45,1.35
4.573030948638916,0.89,0.18,-1.6,1.83
4.576012134552002,0.66,-0.25,-2.28,2.38
4.586007118225098,0.36,-0.67,-2.42,2.53
4.596161127090454,0.13,-1.04,-2.09,2.33
4.606136083602905,0.06,-1.44,-1.52,2.09
4.623432159423828,0.1,-1.84,-0.8,2.0
4.625988960266113,0.07,-2.33,-0.06,2.33
4.636086940765381,0.02,-2.82,0.51,2.86
4.6461181640625,0.08,-3.25,0.67,3.31
4.656232118606567,0.33,-3.48,0.59,3.54
4.673285007476807,0.48,-3.5,0.36,3.55
4.676087141036987,0.41,-3.38,0.07,3.4
4.686110019683838,0.25,-3.23,-0.13,3.24
4.696171045303345,0.15,-3.05,-0.29,3.06
4.706540107727051,0.15,-2.74,-0.37,2.76
4.7231950759887695,0.19,-2.4,-0.19,2.41
4.72591495513916,0.11,-2.22,0.02,2.22
4.736090183258057,0.22,-2.22,0.34,2.25
4.746189117431641,0.58,-2.32,0.74,2.5
4.756141185760498,0.85,-2.39,1.01,2.73
4.772754192352295,0.98,-2.23,1.11,2.67
4.775984048843384,1.1,-1.96,0.91,2.42
4.786145210266113,1.2,-1.68,0.5,2.12
4.796194076538086,1.17,-1.31,0.25,1.77
4.80601692199707,0.92,-0.88,0.3,1.3
4.822822093963623,0.69,-0.44,0.45,0.93
4.825960159301758,0.57,-0.04,0.74,0.93
4.836148262023926,0.25,0.27,1.13,1.18
4.846113204956055,-0.05,0.58,1.4,1.51
4.856261253356934,-0.18,0.96,1.32,1.64
4.87291407585144,-0.11,1.46,1.0,1.77
4.876115083694458,0.08,1.99,0.74,2.12
4.886086940765381,0.34,2.39,0.75,2.52
4.896222114562988,0.47,2.7,1.27,3.02
4.906166076660156,0.66,3.06,2.08,3.75
4.923102140426636,0.79,3.54,2.67,4.5
4.925961971282959,0.93,4.19,2.96,5.21
4.9361419677734375,0.82,4.99,2.49,5.63
4.94610595703125,0.12,5.57,1.0,5.66
4.956912040710449,-0.63,5.7,-1.15,5.84
4.973107099533081,-1.02,5.35,-3.44,6.44
4.9760260581970215,-1.12,4.75,-5.23,7.15
4.98615026473999,-1.2,3.79,-5.92,7.13
4.9962310791015625,-1.39,2.43,-5.47,6.14
5.0061681270599365,-1.32,1.16,-4.31,4.65
5.023503065109253,-0.98,0.41,-2.74,2.93
5.025952100753784,-0.78,0.2,-1.36,1.58
5.036218166351318,-0.66,0.45,-0.26,0.84
5.046208143234253,-0.7,0.93,0.48,1.25
5.056187152862549,-0.56,1.39,0.8,1.69
5.0731401443481445,-0.27,1.61,0.67,1.76
5.076005935668945,-0.2,1.51,0.35,1.56
5.086275100708008,-0.4,1.04,-0.12,1.12
5.096281051635742,-0.7,0.41,-0.57,0.99
5.106061935424805,-1.02,-0.27,-0.85,1.35
5.12286901473999,-1.42,-0.97,-0.88,1.93
5.125929117202759,-1.7,-1.66,-0.75,2.49
5.136220932006836,-1.73,-2.36,-0.45,2.96
5.146083116531372,-1.41,-3.08,-0.13,3.38
5.156153202056885,-0.86,-3.67,0.11,3.77
5.172826051712036,-0.3,-4.1,0.31,4.12
5.176007032394409,0.19,-4.41,0.31,4.42
5.18615198135376,0.65,-4.58,0.24,4.63
5.1962971687316895,0.91,-4.64,0.11,4.72
5.2061121463775635,0.88,-4.64,-0.11,4.72
5.223329067230225,0.69,-4.46,-0.37,4.52
5.225892066955566,0.45,-4.16,-0.48,4.21
5.236325263977051,0.12,-3.94,-0.51,3.97
5.246196031570435,-0.18,-3.86,-0.47,3.89
5.256235122680664,-0.28,-3.73,-0.27,3.75
5.272993087768555,-0.4,-3.55,-0.06,3.57
5.276041030883789,-0.47,-3.27,0.18,3.3
5.28620719909668,-0.59,-2.81,0.49,2.91
5.296092987060547,-0.7,-2.19,0.88,2.46
5.30607795715332,-0.86,-1.43,1.14,2.02
5.323655128479004,-0.93,-0.65,1.41,1.8
5.326045036315918,-0.99,0.13,1.59,1.87
5.33626914024353,-1.0,0.85,1.67,2.12
5.346066951751709,-0.93,1.49,1.38,2.23
5.356201171875,-0.79,2.13,0.86,2.42
5.373898029327393,-0.59,2.69,0.32,2.77
5.376034259796143,-0.45,2.92,-0.1,2.95
5.38627815246582,-0.55,2.83,0.03,2.88
5.396146059036255,-0.97,2.57,0.79,2.85
5.406199932098389,-1.3,2.43,2.06,3.44
5.42351508140564,-1.17,2.82,3.7,4.79
5.4260969161987305,-0.77,3.7,4.74,6.06
5.436321258544922,-0.09,4.96,4.37,6.61
5.446208953857422,0.78,6.44,3.11,7.19
5.456234931945801,1.03,7.51,1.07,7.65
5.473636150360107,0.72,7.5,-2.01,7.79
5.476117134094238,0.95,6.66,-5.02,8.39
5.486268043518066,1.3,5.15,-6.79,8.62
5.4961841106414795,1.22,3.0,-7.29,7.97
5.506186008453369,1.08,0.7,-6.65,6.77
5.5239481925964355,1.04,-1.23,-4.96,5.21
5.526227951049805,1.2,-2.51,-2.82,3.96
5.536365032196045,1.41,-2.92,-0.92,3.37
5.546306133270264,1.4,-2.45,0.52,2.86
5.556333065032959,1.28,-1.29,1.35,2.26
5.573884963989258,1.09,-0.09,1.38,1.76
5.576267242431641,0.78,0.74,0.96,1.44
5.586282253265381,0.36,1.15,0.47,1.29
5.596380233764648,-0.1,1.22,-0.19,1.23
5.606274127960205,-0.23,1.18,-0.8,1.44
5.624104976654053,-0.16,1.11,-1.04,1.52
5.626338958740234,-0.08,0.7,-0.91,1.15
5.636298179626465,0.12,0.0,-0.61,0.62
5.646096229553223,0.51,-0.76,-0.42,1.0
5.656269073486328,0.86,-1.4,-0.35,1.67
5.673652172088623,0.86,-1.94,-0.36,2.15
5.676425933837891,0.54,-2.49,-0.26,2.56
5.686436176300049,0.08,-3.06,-0.06,3.06
5.696282148361206,-0.31,-3.45,0.06,3.46
5.706182956695557,-0.69,-3.54,0.06,3.6
5.724095106124878,-0.96,-3.43,0.04,3.56
5.726613998413086,-1.06,-3.27,-0.03,3.43
5.736379146575928,-0.92,-3.12,-0.11,3.25
5.746161937713623,-0.4,-2.89,-0.13,2.92
5.756338119506836,-0.02,-2.76,-0.16,2.76
5.7743120193481445,0.29,-2.76,-0.14,2.77
5.776639938354492,0.52,-2.81,-0.04,2.85
5.78627610206604,0.52,-2.94,0.15,2.98
5.796223163604736,0.65,-3.04,0.41,3.13
5.806225061416626,0.68,-3.02,0.51,3.13
5.824880123138428,0.58,-2.79,0.71,2.93
5.826775074005127,0.47,-2.44,0.91,2.64
5.836372137069702,0.56,-1.93,0.96,2.22
5.846327066421509,0.85,-1.32,1.03,1.87
5.856305122375488,0.73,-0.68,1.06,1.45
5.874153137207031,0.69,-0.04,1.06,1.26
5.876681089401245,0.5,0.52,0.7,1.0
5.886315107345581,0.11,1.1,0.1,1.11
5.896269083023071,0.01,1.78,-0.27,1.8
5.9062819480896,0.05,2.32,-0.56,2.38
5.924576044082642,0.17,2.52,-0.5,2.57
5.925989151000977,0.51,2.68,0.42,2.76
5.936365127563477,0.8,2.99,1.89,3.62
5.9463982582092285,0.74,3.5,3.07,4.71
5.956254959106445,0.12,4.49,3.5,5.69
5.974271059036255,-0.52,5.94,2.79,6.58
5.976081132888794,-0.93,7.1,1.15,7.25
5.986299991607666,-1.2,7.23,-0.98,7.39
5.996232986450195,-1.45,6.45,-2.9,7.21
6.006254196166992,-1.79,5.26,-3.9,6.78
6.024957180023193,-2.05,3.9,-4.04,5.97
6.02616810798645,-2.08,2.51,-3.63,4.87
6.036351203918457,-2.01,1.14,-3.04,3.81
6.046144008636475,-1.56,0.13,-2.49,2.94
6.056347131729126,-0.85,-0.3,-2.08,2.26
6.074592113494873,-0.08,-0.2,-1.59,1.6
6.076210975646973,0.6,0.16,-1.16,1.31
6.0863330364227295,0.91,0.6,-0.78,1.34
6.096346139907837,0.97,0.85,-0.44,1.36
6.106260061264038,0.97,0.77,-0.33,1.28
6.124698162078857,0.73,0.5,-0.47,1.0
6.126168251037598,0.16,0.09,-0.76,0.78
6.136352062225342,-0.4,-0.39,-0.98,1.12
6.146139144897461,-0.81,-1.0,-0.86,1.54
6.156373977661133,-1.03,-1.78,-0.5,2.11
6.17480993270874,-0.98,-2.65,-0.09,2.82
6.176239013671875,-0.63,-3.39,0.13,3.45
6.1863579750061035,-0.05,-3.86,0.22,3.86
6.196229934692383,0.54,-4.12,0.24,4.16
6.206274032592773,0.81,-4.26,0.2,4.34
6.225207090377808,0.73,-4.33,0.18,4.39
6.2261061668396,0.61,-4.44,0.03,4.48
6.236504077911377,0.31,-4.48,-0.08,4.49
6.246190071105957,-0.13,-4.35,-0.1,4.35
6.256330966949463,-0.47,-4.03,-0.12,4.05
6.274928092956543,-0.65,-3.59,-0.01,3.64
6.276288986206055,-0.86,-3.11,0.21,3.23
6.286370038986206,-0.97,-2.7,0.37,2.89
6.296379089355469,-0.81,-2.31,0.48,2.49
6.306286096572876,-0.63,-1.83,0.49,1.99
6.324948072433472,-0.54,-1.31,0.36,1.46
6.326247215270996,-0.56,-0.83,0.19,1.01
6.336483955383301,-0.64,-0.44,0.17,0.79
6.346243143081665,-0.81,-0.09,0.39,0.9
6.356411933898926,-0.95,0.21,0.69,1.19
6.375420093536377,-1.05,0.57,0.97,1.53
6.376306056976318,-1.15,0.97,1.24,1.94
6.386381149291992,-1.11,1.39,1.6,2.39
6.396266937255859,-1.06,1.8,1.74,2.71
6.406294107437134,-0.89,2.23,1.56,2.86
6.425122261047363,-0.86,2.76,1.31,3.17
6.426219940185547,-1.05,3.16,0.99,3.47
6.436416149139404,-1.22,3.27,0.73,3.56
6.44622802734375,-1.26,3.23,1.08,3.63
6.456343173980713,-1.05,3.33,2.18,4.11
6.475412130355835,-0.47,3.67,3.23,4.91
6.476179122924805,0.35,4.05,3.1,5.11
6.486385107040405,1.04,4.61,1.83,5.06
6.496250152587891,1.5,5.22,0.3,5.43
6.506350040435791,1.62,5.27,-1.4,5.68
6.525214195251465,1.53,4.33,-3.2,5.59
6.526258945465088,1.55,2.94,-4.18,5.34
6.536468029022217,1.69,1.61,-3.86,4.51
6.546223163604736,1.92,0.49,-2.87,3.48
6.556394100189209,2.03,-0.49,-1.82,2.77
6.575497150421143,2.18,-1.03,-0.77,2.53
6.576338052749634,2.1,-0.91,-0.1,2.29
6.5864551067352295,1.82,-0.3,-0.19,1.85
6.596277236938477,1.42,0.43,-0.93,1.75
6.606308937072754,0.84,1.01,-1.95,2.35
6.625647068023682,0.31,1.29,-2.74,3.04
6.626184940338135,-0.18,1.26,-2.84,3.11
6.636419057846069,-0.75,0.84,-2.59,2.82
6.646237134933472,-1.06,0.18,-2.11,2.36
6.656477928161621,-1.2,-0.45,-1.26,1.79
6.675405025482178,-1.23,-0.91,-0.27,1.55
6.676190137863159,-1.2,-1.38,0.46,1.88
6.686461925506592,-1.01,-1.9,0.6,2.23
6.696296215057373,-0.54,-2.25,0.43,2.35
6.706395149230957,0.21,-2.45,0.09,2.46
6.725527048110962,0.62,-2.63,-0.24,2.71
6.726145267486572,0.56,-2.89,-0.41,2.97
6.736408233642578,0.15,-3.21,-0.51,3.25
6.746251106262207,-0.18,-3.4,-0.55,3.44
6.756432056427002,-0.46,-3.47,-0.33,3.51
6.775259017944336,-0.5,-3.47,-0.09,3.5
6.776223182678223,-0.32,-3.45,0.12,3.46
6.786320209503174,-0.21,-3.45,0.45,3.48
6.796316146850586,0.03,-3.47,0.89,3.58
6.806413173675537,0.21,-3.35,1.13,3.54
6.82524299621582,0.38,-3.13,1.13,3.34
6.82625412940979,0.47,-2.8,0.98,3.0
6.836450099945068,0.5,-2.4,0.64,2.53
6.8462371826171875,0.54,-1.96,0.14,2.03
6.856428146362305,0.62,-1.41,-0.26,1.56
6.875658988952637,0.71,-0.86,-0.28,1.14
6.8762311935424805,0.68,-0.32,-0.02,0.75
6.886401176452637,0.61,0.16,0.55,0.83
6.896315097808838,0.61,0.65,1.26,1.54
6.906400203704834,0.54,1.12,1.57,2.0
6.925353050231934,0.42,1.61,1.56,2.28
6.926199913024902,0.19,2.14,1.25,2.48
6.936468124389648,0.11,2.54,0.6,2.61
6.946307182312012,0.27,2.83,-0.21,2.85
6.956471920013428,0.52,3.03,-0.68,3.14
6.975696086883545,0.8,3.08,-0.18,3.18
6.976243019104004,0.91,3.12,1.23,3.47
6.986387252807617,0.69,3.25,2.77,4.32
6.996338129043579,0.45,3.58,3.62,5.11
7.006473064422607,0.08,4.34,3.32,5.46
7.025315046310425,-0.48,5.31,2.21,5.77
7.026240110397339,-1.25,5.73,0.59,5.89
7.036482095718384,-2.0,5.2,-1.48,5.76
7.046396255493164,-2.12,4.21,-3.46,5.84
7.05646014213562,-1.78,3.1,-4.64,5.85
7.075614929199219,-1.56,1.82,-4.9,5.45
7.076251029968262,-1.4,0.55,-4.39,4.64
7.0863871574401855,-1.16,-0.47,-3.47,3.68
7.096371173858643,-0.83,-1.09,-2.52,2.86
7.106439113616943,-0.3,-1.2,-1.59,2.01
7.1259331703186035,0.09,-0.92,-0.85,1.25
7.126317024230957,0.43,-0.48,-0.29,0.7
7.136473178863525,0.61,-0.01,0.06,0.61
7.146336078643799,0.57,0.26,0.1,0.63
7.1565070152282715,0.35,0.34,-0.11,0.5
7.175306081771851,0.08,0.32,-0.58,0.66
7.1762940883636475,-0.19,0.15,-1.02,1.04
7.1864800453186035,-0.53,-0.19,-1.21,1.33
7.1964640617370605,-0.74,-0.75,-1.09,1.51
7.206455230712891,-0.76,-1.43,-0.81,1.81
7.225844144821167,-0.61,-2.12,-0.53,2.26
7.22622013092041,-0.42,-2.73,-0.27,2.77
7.236568927764893,-0.07,-3.2,0.04,3.2
7.246348142623901,0.19,-3.47,0.28,3.48
7.256531238555908,0.39,-3.58,0.48,3.63
7.276014089584351,0.41,-3.61,0.68,3.69
7.276384115219116,0.15,-3.56,0.7,3.63
7.286454200744629,-0.01,-3.36,0.52,3.4
7.296435117721558,-0.03,-3.02,0.29,3.03
7.30649209022522,-0.24,-2.7,0.11,2.71
7.325866222381592,-0.46,-2.42,-0.05,2.46
7.326247215270996,-0.57,-2.19,-0.13,2.26
7.3365702629089355,-0.71,-1.99,-0.18,2.12
7.34630012512207,-0.75,-1.83,-0.07,1.97
7.35655403137207,-0.84,-1.71,0.05,1.9
7.376173973083496,-1.03,-1.64,0.05,1.93
7.3765339851379395,-1.14,-1.64,0.15,2.0
7.3864641189575195,-1.09,-1.64,0.5,2.03
7.39641809463501,-1.0,-1.51,1.12,2.12
7.406623125076294,-0.82,-1.2,1.65,2.19
7.425523042678833,-0.6,-0.73,2.01,2.22
7.426271915435791,-0.51,-0.1,2.08,2.14
7.436492919921875,-0.41,0.67,1.91,2.06
7.446288108825684,-0.23,1.44,1.43,2.04
7.456516265869141,-0.2,2.04,0.84,2.21
7.4758501052856445,-0.45,2.45,0.3,2.5
7.4764580726623535,-1.02,2.53,-0.01,2.72
7.486454010009766,-1.4,2.35,0.12,2.73
7.496274948120117,-1.5,2.18,0.98,2.82
7.506472110748291,-1.3,2.33,2.53,3.67
7.525989055633545,-0.81,2.89,3.82,4.85
7.526379108428955,-0.05,3.81,4.15,5.63
7.5365400314331055,0.71,4.81,3.25,5.84
7.546253204345703,1.13,5.7,1.53,6.0
7.55659818649292,1.21,6.15,-0.78,6.31
7.576042175292969,1.38,5.85,-3.16,6.79
7.576422214508057,1.73,4.81,-4.61,6.88
7.5864691734313965,1.77,3.32,-4.63,5.96
7.596394062042236,1.55,1.79,-3.69,4.38
7.606493949890137,1.63,0.46,-2.54,3.05
7.6261820793151855,1.81,-0.51,-1.55,2.43
7.626564979553223,1.73,-1.02,-0.82,2.16
7.636504173278809,1.44,-1.03,-0.6,1.86
7.646364212036133,1.06,-0.72,-0.92,1.57
7.656628131866455,0.61,-0.27,-1.46,1.6
7.6762330532073975,0.08,0.11,-1.81,1.81
7.676614046096802,-0.39,0.16,-1.84,1.88
7.686537265777588,-0.72,-0.05,-1.65,1.8
7.696342945098877,-0.81,-0.31,-1.24,1.51
7.706552982330322,-0.75,-0.53,-0.8,1.21
7.726500034332275,-0.69,-0.82,-0.32,1.11
7.726895093917847,-0.64,-1.13,0.12,1.3
7.7366042137146,-0.4,-1.45,0.41,1.55
7.746467113494873,-0.1,-1.82,0.48,1.88
7.756615161895752,0.19,-2.34,0.26,2.36
7.776768207550049,0.42,-2.83,-0.03,2.86
7.777143955230713,0.5,-3.21,-0.16,3.25
7.7865309715271,0.32,-3.42,-0.11,3.43
7.796411037445068,0.06,-3.43,0.05,3.43
7.806581974029541,-0.06,-3.28,0.19,3.28
7.826672077178955,-0.06,-3.09,0.27,3.1
7.827047109603882,-0.11,-2.92,0.34,2.94
7.836566925048828,-0.07,-2.76,0.45,2.79
7.846462249755859,0.09,-2.69,0.44,2.72
7.856564998626709,0.2,-2.63,0.34,2.65
7.876867055892944,0.32,-2.46,0.32,2.5
7.877208232879639,0.32,-2.2,0.35,2.25
7.886627197265625,0.34,-1.92,0.29,1.97
7.8965160846710205,0.44,-1.61,0.18,1.67
7.906517028808594,0.51,-1.32,0.15,1.42
7.926945209503174,0.63,-1.03,0.26,1.23
7.9273130893707275,0.8,-0.74,0.59,1.23
7.936609268188477,0.87,-0.47,1.01,1.41
7.946423053741455,0.73,-0.17,1.32,1.51
7.956583023071289,0.63,0.22,1.43,1.57
7.977128028869629,0.52,0.77,1.36,1.64
7.977493047714233,0.24,1.32,1.04,1.69
7.986694097518921,0.07,1.87,0.51,1.93
7.996488094329834,0.22,2.49,0.09,2.5
8.006616115570068,0.47,2.96,-0.01,2.99
8.025964260101318,0.56,3.22,0.75,3.35
8.026329040527344,0.53,3.34,2.13,3.99
8.035283088684082,0.47,3.54,3.29,4.85
8.045331001281738,0.43,4.08,3.62,5.47
8.059946060180664,0.14,5.08,2.97,5.88
8.065388202667236,-0.78,6.14,1.31,6.32
8.075301170349121,-1.86,6.66,-1.05,6.99
8.085551261901855,-2.5,6.55,-3.52,7.84
8.095277070999146,-2.76,5.78,-5.2,8.25
8.110521078109741,-2.79,4.35,-5.9,7.84
8.115394115447998,-2.42,2.5,-5.51,6.51
8.12532901763916,-1.58,0.81,-4.32,4.67
8.135298252105713,-0.54,-0.35,-2.82,2.89
8.145371913909912,0.12,-0.9,-1.34,1.61
8.160555124282837,0.49,-1.03,-0.1,1.14
8.165266036987305,0.72,-0.97,0.73,1.41
8.175255060195923,0.73,-0.82,0.95,1.45
8.185403108596802,0.42,-0.58,0.62,0.94
8.195282936096191,-0.06,-0.36,0.06,0.36
8.210306167602539,-0.44,-0.31,-0.41,0.67
8.215327262878418,-0.83,-0.5,-0.73,1.21
8.225399017333984,-1.15,-0.81,-0.79,1.61
8.23536491394043,-1.18,-1.11,-0.62,1.73
8.245398044586182,-0.98,-1.47,-0.4,1.81
8.261064052581787,-0.59,-1.99,-0.33,2.1
8.26521611213684,-0.02,-2.47,-0.35,2.49
8.275328159332275,0.51,-2.98,-0.36,3.04
8.285444259643555,0.86,-3.45,-0.27,3.56
8.295385122299194,1.01,-3.81,-0.11,3.94
8.311570167541504,0.88,-4.09,-0.02,4.18
8.315330982208252,0.68,-4.19,0.02,4.24
8.32540225982666,0.33,-4.01,0.1,4.02
8.335462093353271,0.0,-3.6,0.18,3.6
8.345482110977173,-0.22,-3.25,0.21,3.26
8.362348079681396,-0.46,-3.02,0.2,3.06
8.365218162536621,-0.63,-2.73,0.34,2.82
8.375349998474121,-0.76,-2.48,0.5,2.64
8.385417938232422,-0.77,-2.2,0.54,2.39
8.3955659866333,-0.69,-1.96,0.63,2.17
8.411864042282104,-0.59,-1.69,0.81,1.96
8.415399074554443,-0.43,-1.41,0.88,1.71
8.425419092178345,-0.34,-1.16,0.86,1.48
8.435472965240479,-0.31,-0.89,1.03,1.39
8.445399045944214,-0.35,-0.6,1.22,1.4
8.461839199066162,-0.45,-0.25,1.45,1.53
8.465590953826904,-0.48,0.27,1.53,1.62
8.475419998168945,-0.56,0.92,1.29,1.68
8.485360145568848,-0.61,1.61,0.81,1.9
8.495498180389404,-0.45,2.26,0.41,2.34
8.512005090713501,-0.48,2.72,0.26,2.77
8.515422105789185,-0.87,2.93,0.59,3.11
8.525358200073242,-1.4,3.02,1.41,3.61
8.535426139831543,-1.53,3.21,2.62,4.41
8.545523166656494,-0.93,3.72,3.56,5.23
8.562211036682129,-0.03,4.64,3.37,5.73
8.56544017791748,0.77,5.95,2.39,6.45
8.575454235076904,1.07,7.23,0.84,7.35
8.585477113723755,1.05,7.76,-1.26,7.93
8.595413208007812,1.07,7.0,-3.3,7.81
8.611988067626953,1.51,5.35,-4.73,7.29
8.615442037582397,1.85,3.34,-5.18,6.43
8.625479221343994,1.99,1.48,-4.71,5.32
8.635502099990845,2.08,0.01,-3.66,4.2
8.645452976226807,2.03,-1.18,-2.48,3.41
8.662128925323486,1.84,-1.91,-1.37,2.98
8.665456056594849,1.56,-2.13,-0.53,2.69
8.67549991607666,1.22,-1.82,-0.15,2.19
8.685472965240479,0.76,-1.17,-0.17,1.4
8.695425987243652,0.18,-0.53,-0.25,0.61
8.712228059768677,-0.25,-0.18,-0.53,0.61
8.71553111076355,-0.45,-0.04,-0.95,1.05
8.725445032119751,-0.52,-0.03,-1.23,1.33
8.735580921173096,-0.49,-0.19,-1.33,1.43
8.745460987091064,-0.37,-0.4,-1.31,1.41
8.762174129486084,-0.22,-0.62,-1.21,1.37
8.765285968780518,-0.1,-0.94,-1.12,1.46
8.77540111541748,0.14,-1.47,-1.04,1.8
8.785490036010742,0.35,-2.19,-0.89,2.38
8.795501232147217,0.4,-2.96,-0.63,3.05
8.812328100204468,0.11,-3.59,-0.19,3.59
8.815423011779785,-0.26,-3.89,0.23,3.9
8.82546615600586,-0.54,-4.02,0.4,4.07
8.83552598953247,-0.61,-4.03,0.36,4.09
8.845432043075562,-0.47,-3.83,0.4,3.87
8.861938953399658,-0.31,-3.52,0.46,3.56
8.865402221679688,-0.25,-3.17,0.46,3.21
8.875517129898071,-0.11,-2.93,0.61,2.99
8.885473251342773,0.21,-2.72,0.82,2.84
8.89551591873169,0.36,-2.43,0.9,2.61
8.912146091461182,0.58,-2.09,0.86,2.33
8.915482997894287,0.87,-1.72,0.57,2.01
8.925497055053711,1.03,-1.36,0.32,1.73
8.93553113937378,1.06,-1.02,0.24,1.49
8.945491075515747,1.1,-0.74,0.3,1.35
8.962768077850342,1.15,-0.36,0.47,1.29
8.96550703048706,1.14,0.02,0.7,1.33
8.975539207458496,1.01,0.42,0.88,1.4
8.985501050949097,0.85,0.86,0.95,1.53
8.995492935180664,0.5,1.23,0.79,1.54
9.011922121047974,0.2,1.62,0.38,1.67
9.015474081039429,0.05,2.2,0.04,2.2
9.025423049926758,0.03,2.94,0.12,2.94
9.035540103912354,0.13,3.36,0.7,3.43
9.045695066452026,0.21,3.44,1.78,3.87
9.062901020050049,0.22,3.57,2.9,4.6
9.065758228302002,0.32,4.09,3.49,5.38
9.07553505897522,0.35,5.01,2.93,5.81
9.085726261138916,-0.06,6.05,1.12,6.15
9.095534086227417,-0.76,6.72,-1.52,6.93
9.112863063812256,-1.39,6.51,-4.05,7.79
9.115543127059937,-1.84,5.39,-5.59,7.98
9.125781059265137,-2.03,3.62,-5.69,7.04
9.135580062866211,-1.93,1.7,-4.45,5.13
9.145705223083496,-1.55,0.2,-2.65,3.07
9.162686109542847,-1.14,-0.75,-1.01,1.69
9.165734052658081,-0.77,-1.05,0.19,1.31
9.17552900314331,-0.39,-0.93,0.8,1.28
9.185750007629395,0.05,-0.51,0.92,1.05
9.195484161376953,0.38,0.02,0.59,0.7
9.211913108825684,0.47,0.39,-0.13,0.62
9.215512037277222,0.35,0.48,-1.11,1.25
9.225739002227783,0.2,0.33,-1.9,1.93
9.235573053359985,-0.05,-0.03,-2.25,2.25
9.245673179626465,-0.35,-0.62,-2.12,2.23
9.26278305053711,-0.55,-1.34,-1.67,2.21
9.265736103057861,-0.54,-2.14,-1.08,2.45
9.275530099868774,-0.38,-3.0,-0.51,3.06
9.285743236541748,-0.08,-3.83,-0.02,3.83
9.295541048049927,0.35,-4.46,0.38,4.48
9.312356948852539,0.69,-4.88,0.58,4.96
9.315515995025635,0.97,-5.06,0.77,5.2
9.325675010681152,1.03,-4.94,0.87,5.12
9.33559513092041,0.76,-4.51,0.9,4.66
9.345673084259033,0.33,-3.91,0.84,4.01
9.36245608329773,-0.01,-3.29,0.58,3.34
9.36557912826538,-0.23,-2.7,0.33,2.72
9.375539064407349,-0.41,-2.13,0.19,2.17
9.385825157165527,-0.65,-1.68,0.14,1.8
9.39549207687378,-0.91,-1.43,0.18,1.7
9.412214040756226,-1.07,-1.31,0.09,1.69
9.415497064590454,-1.1,-1.23,-0.01,1.65
9.425721168518066,-1.09,-1.17,0.11,1.6
9.435614109039307,-1.19,-1.15,0.34,1.68
9.445653915405273,-1.17,-1.17,0.64,1.77
9.462096214294434,-0.95,-1.1,1.08,1.81
9.465648174285889,-0.73,-0.89,1.45,1.85
9.475594997406006,-0.6,-0.47,1.76,1.91
9.485683917999268,-0.55,0.05,1.9,1.97
9.495583057403564,-0.52,0.63,1.75,1.93
9.512160062789917,-0.36,1.29,1.41,1.94
9.515398979187012,-0.19,1.95,0.84,2.13
9.525646209716797,-0.3,2.63,0.51,2.69
9.535606145858765,-0.86,3.29,0.56,3.44
9.545679092407227,-1.42,3.88,1.14,4.28
9.56212306022644,-1.49,4.38,2.03,5.05
9.56552004814148,-0.82,4.77,2.54,5.46
9.57557201385498,0.23,5.27,2.36,5.77
9.58572006225586,1.04,6.02,1.64,6.32
9.595603942871094,1.36,6.74,0.47,6.89
9.61215591430664,1.28,6.68,-1.3,6.92
9.615437984466553,1.3,5.82,-3.24,6.78
9.625661134719849,1.6,4.54,-4.62,6.67
9.635759115219116,1.81,3.1,-5.11,6.24
9.645650148391724,1.72,1.57,-4.7,5.24
9.66191291809082,1.44,0.11,-3.56,3.84
9.665596008300781,1.02,-1.19,-2.11,2.62
9.675628185272217,0.87,-1.97,-0.7,2.26
9.685744047164917,0.77,-2.12,0.34,2.28
9.69556212425232,0.54,-1.66,0.88,1.95
9.712212085723877,0.32,-0.77,0.78,1.14
9.715502262115479,0.22,0.03,0.07,0.23
9.725695133209229,0.25,0.55,-0.77,0.97
9.735651969909668,0.28,0.71,-1.31,1.51
9.745645999908447,0.28,0.42,-1.71,1.78
9.76225209236145,0.22,-0.17,-1.84,1.86
9.765587091445923,0.19,-0.76,-1.6,1.78
9.775681018829346,0.09,-1.22,-1.1,1.64
9.785721063613892,-0.03,-1.71,-0.58,1.8
9.795629024505615,-0.13,-2.26,-0.22,2.27
9.812555074691772,-0.21,-2.83,0.06,2.83
9.815526962280273,-0.34,-3.35,0.17,3.37
9.825674057006836,-0.42,-3.66,0.05,3.68
9.83568525314331,-0.41,-3.85,-0.1,3.87
9.845664024353027,-0.27,-3.89,-0.17,3.9
9.862457036972046,-0.21,-3.76,-0.19,3.77
9.865607261657715,-0.18,-3.48,-0.13,3.48
9.875648975372314,-0.03,-3.14,0.02,3.14
9.885714054107666,-0.02,-2.78,0.15,2.78
9.895555019378662,-0.02,-2.47,0.36,2.49
9.912672996520996,0.19,-2.31,0.64,2.4
9.915454149246216,0.3,-2.23,0.81,2.39
9.925671100616455,0.55,-2.07,0.87,2.31
9.935509204864502,0.77,-1.92,0.75,2.2
9.94569206237793,1.1,-1.75,0.57,2.14
9.96262812614441,1.49,-1.53,0.49,2.19
9.965567111968994,1.57,-1.31,0.42,2.08
9.975693225860596,1.55,-0.98,0.51,1.9
9.98574709892273,1.35,-0.53,0.82,1.66
9.995628118515015,1.06,0.03,1.25,1.63
10.012986183166504,0.7,0.6,1.58,1.82
10.015483140945435,0.26,1.22,1.64,2.06
10.025788068771362,0.01,1.84,1.33,2.27
10.035633087158203,-0.1,2.53,0.71,2.62
10.045658111572266,-0.19,3.22,0.04,3.22
10.063204050064087,0.0,3.61,-0.18,3.61
10.065502166748047,0.23,3.62,0.16,3.63
10.075774192810059,0.33,3.62,1.08,3.79
10.085718154907227,0.3,3.88,2.05,4.39
10.095648050308228,0.27,4.46,2.53,5.13
10.113122940063477,-0.15,5.24,2.21,5.68
10.115657091140747,-0.97,5.9,0.98,6.05
10.125823974609375,-1.69,6.09,-0.87,6.37
10.13557505607605,-2.02,5.69,-2.86,6.68
10.14568305015564,-2.19,4.68,-4.52,6.86
10.163454055786133,-2.17,3.24,-5.05,6.38
10.165733098983765,-1.97,1.65,-4.47,5.15
10.175831079483032,-1.41,0.24,-3.38,3.67
10.185646057128906,-0.85,-0.75,-2.21,2.48
10.195641040802002,-0.48,-1.21,-1.22,1.78
10.213233947753906,-0.09,-1.17,-0.21,1.19
10.21584701538086,0.2,-0.91,0.56,1.08
10.225770950317383,0.38,-0.56,0.87,1.1
10.235587120056152,0.37,-0.23,0.76,0.87
10.245635032653809,0.23,-0.04,0.35,0.42
10.264056205749512,0.02,-0.13,-0.37,0.39
10.265869140625,-0.02,-0.37,-1.09,1.15
10.275795936584473,0.02,-0.72,-1.64,1.79
10.285593032836914,-0.04,-1.19,-1.75,2.11
10.295658111572266,0.11,-1.86,-1.43,2.34
10.31375503540039,0.28,-2.7,-1.0,2.89
10.315863132476807,0.42,-3.5,-0.53,3.56
10.325719118118286,0.59,-4.1,0.0,4.14
10.335715055465698,0.71,-4.53,0.51,4.61
10.345662117004395,0.68,-4.84,0.88,4.96
10.364109992980957,0.54,-4.92,1.02,5.05
10.366034030914307,0.39,-4.68,0.86,4.77
10.37587022781372,0.31,-4.17,0.57,4.22
10.385600090026855,0.16,-3.59,0.38,3.61
10.395692110061646,-0.03,-3.06,0.18,3.06
10.413748264312744,-0.1,-2.54,0.14,2.54
10.416124105453491,-0.23,-2.05,0.22,2.07
10.425764083862305,-0.53,-1.65,0.25,1.75
10.435608148574829,-0.86,-1.31,0.37,1.61
10.445646047592163,-1.05,-1.07,0.44,1.56
10.464094161987305,-0.99,-0.97,0.58,1.5
10.466054916381836,-0.91,-0.91,0.88,1.55
10.475829124450684,-0.83,-0.79,1.16,1.63
10.485658168792725,-0.64,-0.59,1.28,1.54
10.495696067810059,-0.33,-0.23,1.3,1.36
10.5140061378479,-0.25,0.22,1.23,1.27
10.51620626449585,-0.37,0.74,1.16,1.42
10.52573013305664,-0.5,1.2,1.04,1.66
10.535875082015991,-0.44,1.62,0.84,1.87
10.545639038085938,-0.39,2.0,0.81,2.19
10.563926219940186,-0.6,2.36,0.88,2.58
10.566257953643799,-1.16,2.7,1.08,3.13
10.575840950012207,-1.61,3.07,1.9,3.95
10.585637092590332,-1.47,3.43,3.02,4.8
10.595702171325684,-0.77,3.92,3.45,5.27
10.614321231842041,0.21,4.75,2.9,5.56
10.616354942321777,1.15,5.9,1.87,6.29
10.625697135925293,1.43,6.8,0.28,6.95
10.63568925857544,1.64,6.96,-1.93,7.4
10.645687103271484,1.87,6.21,-4.07,7.65
10.664542198181152,1.96,4.81,-5.34,7.44
10.666238069534302,1.7,3.12,-5.62,6.64
10.67578125,1.46,1.4,-4.81,5.21
10.685647964477539,1.18,-0.13,-3.31,3.51
10.695691108703613,0.92,-1.3,-1.59,2.25
10.714322090148926,0.86,-1.9,-0.11,2.08
10.716300010681152,0.77,-1.76,0.81,2.08
10.725816249847412,0.72,-1.07,1.07,1.67
10.73571491241455,0.67,-0.34,0.7,1.02
10.745729923248291,0.55,0.13,0.07,0.56
10.76457405090332,0.45,0.32,-0.55,0.77
10.76562213897705,0.39,0.36,-1.23,1.33
10.775840044021606,0.2,0.25,-1.64,1.67
10.785584926605225,-0.01,0.08,-1.58,1.58
10.795732021331787,-0.14,-0.23,-1.29,1.31
10.814645051956177,-0.19,-0.71,-0.98,1.22
10.815718173980713,-0.27,-1.2,-0.61,1.37
10.825793266296387,-0.37,-1.74,-0.17,1.78
10.835678100585938,-0.29,-2.38,0.01,2.39
10.845716953277588,0.05,-2.99,0.07,2.99
10.864578247070312,0.26,-3.47,0.07,3.48
10.865601062774658,0.37,-3.81,0.06,3.82
10.875879049301147,0.36,-3.94,0.07,3.95
10.885566234588623,0.36,-3.84,0.24,3.86
10.895774126052856,0.34,-3.65,0.44,3.69
10.914809226989746,0.21,-3.41,0.54,3.45
10.915531158447266,0.21,-3.14,0.62,3.2
10.925831079483032,0.24,-2.77,0.49,2.82
10.935716152191162,0.32,-2.35,0.25,2.38
10.945740222930908,0.44,-1.99,0.13,2.04
10.964771032333374,0.45,-1.91,0.13,1.96
10.965580940246582,0.41,-2.01,0.09,2.05
10.975929260253906,0.52,-2.0,0.16,2.07
10.98573613166809,0.66,-1.81,0.28,1.94
10.995791912078857,0.65,-1.59,0.45,1.77
11.014488220214844,0.74,-1.33,0.91,1.77
11.015707969665527,0.83,-0.9,1.47,1.91
11.025795936584473,0.77,-0.36,1.76,1.95
11.035706043243408,0.64,0.35,1.67,1.82
11.045729160308838,0.45,1.23,1.25,1.81
11.063915252685547,0.32,2.12,0.56,2.21
11.065815925598145,0.29,2.98,0.0,2.99
11.075894117355347,0.45,3.69,-0.11,3.71
11.085631132125854,0.58,4.2,0.43,4.26
11.095794200897217,0.49,4.56,1.52,4.83
11.114907264709473,0.6,4.92,2.59,5.59
11.115615129470825,0.87,5.56,3.11,6.42
11.125863075256348,0.63,6.46,2.63,7.0
11.135746955871582,-0.22,7.16,0.8,7.2
11.145758152008057,-1.05,7.18,-1.93,7.5
11.164663076400757,-1.47,6.43,-4.44,7.95
11.165688037872314,-1.71,5.02,-6.03,8.03
11.175931930541992,-1.88,3.26,-6.36,7.38
11.185798168182373,-1.74,1.52,-5.4,5.87
11.195841073989868,-1.4,0.04,-3.71,3.96
11.214760065078735,-1.2,-0.91,-1.83,2.37
11.2156240940094,-1.11,-1.3,-0.11,1.71
11.22590708732605,-0.93,-1.34,1.06,1.94
11.235705137252808,-0.64,-1.2,1.38,1.93
11.245732069015503,-0.11,-0.86,1.02,1.33
11.265038967132568,0.17,-0.45,0.26,0.54
11.265582084655762,-0.04,-0.17,-0.67,0.69
11.275967121124268,-0.23,-0.07,-1.29,1.31
11.285818099975586,-0.21,-0.29,-1.63,1.66
11.295905113220215,-0.1,-0.85,-1.68,1.88
11.314625263214111,-0.2,-1.59,-1.4,2.12
11.315635204315186,-0.42,-2.33,-0.94,2.54
11.325906038284302,-0.33,-3.09,-0.58,3.16
11.335758209228516,-0.17,-3.9,-0.34,3.91
11.345804214477539,0.1,-4.61,-0.14,4.61
11.364670038223267,0.27,-5.17,0.0,5.17
11.365638256072998,0.29,-5.43,0.16,5.44
11.37588906288147,0.45,-5.33,0.27,5.35
11.385765075683594,0.62,-5.02,0.44,5.07
11.395761966705322,0.6,-4.61,0.64,4.69
11.415274143218994,0.36,-4.11,0.73,4.18
11.415655136108398,0.12,-3.48,0.8,3.57
11.425894260406494,-0.15,-2.81,0.76,2.91
11.435777187347412,-0.58,-2.11,0.56,2.25
11.445833206176758,-0.76,-1.55,0.6,1.82
11.465481042861938,-0.92,-1.14,0.7,1.62
11.465857982635498,-1.03,-0.72,0.68,1.42
11.476012229919434,-1.04,-0.36,0.7,1.3
11.485700130462646,-1.08,-0.06,0.74,1.31
11.495910167694092,-1.08,0.21,0.84,1.38
11.515342235565186,-1.0,0.52,0.88,1.42
11.515697956085205,-1.0,0.82,0.96,1.61
11.525857925415039,-1.26,1.02,1.05,1.93
11.535807132720947,-1.41,1.27,1.2,2.24
11.54585599899292,-1.24,1.44,1.28,2.29
11.565037250518799,-1.08,1.52,1.31,2.27
11.565644264221191,-1.0,1.69,1.48,2.45
11.57594919204712,-1.12,2.0,1.77,2.89
11.585790157318115,-1.38,2.38,2.17,3.5
11.595937252044678,-1.4,2.92,2.87,4.32
11.615154266357422,-1.01,3.65,3.5,5.15
11.61572003364563,-0.43,4.47,3.44,5.65
11.625785112380981,0.28,5.44,2.56,6.01
11.635804176330566,0.98,6.54,0.91,6.67
11.645832061767578,1.18,7.24,-1.2,7.43
11.664745092391968,1.06,6.84,-3.44,7.72
11.665685176849365,1.22,5.48,-5.16,7.62
11.675904035568237,1.46,3.71,-5.84,7.07
11.685749053955078,1.51,1.97,-5.51,6.04
11.695900917053223,1.51,0.5,-4.47,4.74
11.71500825881958,1.41,-0.83,-3.0,3.41
11.715741157531738,1.24,-1.86,-1.47,2.67
11.725970268249512,0.97,-2.38,-0.23,2.58
11.735818147659302,0.73,-2.26,0.51,2.42
11.74592924118042,0.41,-1.56,0.62,1.72
11.765218257904053,0.14,-0.73,0.39,0.83
11.765696048736572,-0.09,-0.07,-0.1,0.15
11.775946140289307,-0.34,0.42,-0.79,0.95
11.785901069641113,-0.44,0.65,-1.26,1.48
11.795959949493408,-0.54,0.51,-1.43,1.61
11.815454959869385,-0.58,0.11,-1.46,1.57
11.815832138061523,-0.41,-0.37,-1.39,1.49
11.825859069824219,-0.27,-0.9,-1.27,1.57
11.835876941680908,-0.15,-1.5,-1.02,1.82
11.845936059951782,-0.08,-2.25,-0.7,2.35
11.865442037582397,0.05,-3.04,-0.22,3.04
11.865827083587646,0.09,-3.74,0.23,3.74
11.87599802017212,0.04,-4.28,0.59,4.32
11.88595199584961,-0.07,-4.49,0.78,4.55
11.89595103263855,-0.28,-4.39,0.71,4.45
11.915629148483276,-0.26,-4.12,0.58,4.16
11.916007995605469,-0.16,-3.75,0.51,3.78
11.925889015197754,-0.2,-3.28,0.54,3.33
11.935874938964844,-0.19,-2.67,0.69,2.76
11.945958137512207,-0.08,-2.07,0.8,2.22
11.965565204620361,0.13,-1.71,0.67,1.84
11.965943098068237,0.4,-1.52,0.49,1.64
11.976117134094238,0.59,-1.3,0.36,1.47
11.985857009887695,0.68,-1.13,0.34,1.36
11.995968103408813,0.84,-1.01,0.41,1.37
12.014894008636475,0.84,-0.95,0.58,1.39
12.01560926437378,0.84,-0.93,0.89,1.53
12.025809049606323,0.86,-0.82,1.24,1.71
12.035874128341675,0.73,-0.47,1.52,1.75
12.045820236206055,0.48,0.06,1.62,1.69
12.065069198608398,0.24,0.63,1.52,1.66
12.06562614440918,0.13,1.22,1.19,1.7
12.076008081436157,0.05,1.92,0.61,2.01
12.085721969604492,0.18,2.67,0.0,2.67
12.09591293334961,0.37,3.42,-0.06,3.44
12.11591100692749,0.62,4.01,0.73,4.12
12.116284132003784,0.8,4.4,1.77,4.8
12.125914096832275,0.78,4.71,2.42,5.35
12.135815143585205,0.54,5.29,2.5,5.87
12.14584493637085,-0.03,6.04,1.49,6.22
12.165028095245361,-0.88,6.44,-0.48,6.51
12.165805101394653,-1.73,6.16,-2.75,6.96
12.175972938537598,-2.23,5.25,-4.61,7.33
12.185745239257812,-2.47,3.87,-5.24,6.96
12.19589900970459,-2.57,2.14,-4.43,5.55
12.215712070465088,-2.42,0.48,-3.0,3.88
12.216081142425537,-1.9,-0.69,-1.55,2.54
12.225986957550049,-1.45,-1.18,-0.46,1.92
12.235862255096436,-1.03,-0.96,0.2,1.42
12.245893955230713,-0.51,-0.3,0.46,0.74
12.266062259674072,-0.01,0.33,0.32,0.45
12.266418933868408,0.22,0.6,0.0,0.63
12.276024103164673,0.24,0.52,-0.45,0.72
12.285941123962402,0.22,0.29,-1.08,1.13
12.295897960662842,0.22,-0.02,-1.63,1.64
12.316466093063354,0.05,-0.49,-1.92,1.98
12.31682825088501,-0.12,-1.13,-1.7,2.04
12.326082229614258,-0.22,-1.99,-1.13,2.29
12.335906982421875,-0.34,-2.95,-0.51,3.01
12.345966100692749,-0.34,-3.86,0.06,3.87
12.36667013168335,-0.08,-4.6,0.5,4.62
12.367033004760742,0.27,-5.04,0.67,5.09
12.376013040542603,0.63,-5.23,0.72,5.31
12.385812044143677,0.81,-5.27,0.71,5.37
12.395942211151123,0.76,-5.07,0.61,5.16
12.41734504699707,0.67,-4.66,0.52,4.73
12.419778108596802,0.38,-4.07,0.45,4.11
12.429813146591187,0.09,-3.38,0.36,3.4
12.439831256866455,-0.15,-2.68,0.37,2.7
12.449851036071777,-0.44,-2.11,0.43,2.19
12.467426061630249,-0.68,-1.65,0.44,1.83
12.469728946685791,-0.82,-1.28,0.33,1.55
12.479791164398193,-0.87,-0.96,0.18,1.3
12.489825248718262,-0.88,-0.74,0.13,1.15
12.499794960021973,-0.82,-0.72,0.26,1.12
12.516879081726074,-0.74,-0.76,0.55,1.19
12.519612073898315,-0.58,-0.73,0.76,1.2
12.52972412109375,-0.39,-0.42,1.1,1.24
12.539819240570068,-0.3,0.1,1.47,1.5
12.549798965454102,-0.41,0.69,1.61,1.79
12.566656112670898,-0.32,1.26,1.56,2.03
12.569591999053955,-0.36,1.78,1.24,2.19
12.579738140106201,-0.49,2.28,0.81,2.46
12.589887142181396,-1.0,2.7,0.63,2.94
12.599829196929932,-1.68,3.09,0.88,3.62
12.616172075271606,-1.91,3.42,1.73,4.28
12.619662046432495,-1.53,3.84,2.78,4.98
12.62969708442688,-0.83,4.43,3.21,5.53
12.639845132827759,0.04,5.22,2.6,5.83
12.64983320236206,0.95,6.3,1.34,6.51
12.6664400100708,1.22,7.03,-0.15,7.13
12.669647216796875,1.03,6.73,-1.95,7.08
12.67974305152893,1.21,5.5,-3.61,6.68
12.689832210540771,1.59,3.86,-4.74,6.31
12.699816226959229,1.7,2.19,-5.15,5.84
12.716228008270264,1.59,0.68,-4.63,4.94
12.719752073287964,1.42,-0.53,-3.54,3.85
12.729738235473633,1.42,-1.28,-2.29,2.98
12.739859104156494,1.34,-1.64,-1.08,2.37
12.749876976013184,1.15,-1.5,-0.06,1.89
12.766468048095703,1.03,-0.85,0.46,1.41
12.769686222076416,0.87,-0.03,0.23,0.9
12.779767036437988,0.67,0.67,-0.37,1.01
12.789883136749268,0.26,1.01,-0.93,1.39
12.79979419708252,-0.22,1.01,-1.41,1.74
12.817024230957031,-0.55,0.73,-1.64,1.87
12.819691181182861,-0.68,0.22,-1.47,1.63
12.829752922058105,-0.7,-0.42,-0.95,1.25
12.839931964874268,-0.63,-1.15,-0.35,1.35
12.84981393814087,-0.51,-1.89,0.09,1.95
12.867257118225098,-0.26,-2.58,0.27,2.6
12.869709014892578,0.11,-3.21,0.3,3.22
12.87989616394043,0.32,-3.72,0.34,3.74
12.889846086502075,0.32,-4.04,0.32,4.06
12.899851083755493,0.1,-4.08,0.17,4.08
12.917403221130371,-0.22,-3.92,-0.05,3.92
12.919647216796875,-0.43,-3.6,-0.17,3.62
12.929901123046875,-0.4,-3.23,-0.09,3.25
12.93981409072876,-0.33,-2.91,0.03,2.92
12.949854135513306,-0.33,-2.63,0.14,2.65
12.967425107955933,-0.17,-2.43,0.34,2.45
12.969723224639893,0.04,-2.33,0.5,2.38
12.979948997497559,0.22,-2.3,0.48,2.35
12.989850044250488,0.63,-2.35,0.44,2.47
12.999890089035034,1.04,-2.38,0.37,2.62
13.01749324798584,1.26,-2.27,0.32,2.61
13.01972508430481,1.29,-2.03,0.45,2.44
13.02993106842041,1.12,-1.68,0.65,2.12
13.039906024932861,0.99,-1.21,0.97,1.83
13.049860954284668,0.89,-0.65,1.35,1.74
13.067652225494385,0.83,-0.01,1.7,1.89
13.070074081420898,0.6,0.61,1.84,2.02
13.079853057861328,0.27,1.23,1.55,1.99
13.08996295928955,0.11,1.82,0.91,2.03
13.099858045578003,0.21,2.34,0.17,2.35
13.117287158966064,0.41,2.88,-0.27,2.92
13.119760036468506,0.68,3.34,-0.08,3.4
13.129964113235474,0.9,3.64,1.0,3.88
13.139874935150146,1.01,3.88,2.41,4.67
13.149912118911743,0.97,4.26,3.18,5.4
13.167320251464844,0.63,5.01,2.81,5.77
13.169896125793457,-0.4,5.87,1.23,6.01
13.179907083511353,-1.51,6.31,-1.23,6.6
13.189949035644531,-2.06,6.14,-3.93,7.57
13.199918031692505,-2.12,5.26,-5.97,8.23
13.217339992523193,-1.95,3.95,-6.71,8.02
13.219850063323975,-1.75,2.3,-6.07,6.72
13.229898929595947,-1.4,0.78,-4.44,4.72
13.23994493484497,-0.75,-0.27,-2.45,2.57
13.2499520778656,-0.26,-0.79,-0.68,1.07
13.267790079116821,0.05,-0.78,0.71,1.05
13.270055055618286,0.09,-0.4,1.48,1.53
13.280051231384277,-0.14,0.24,1.42,1.44
13.289977073669434,-0.39,0.94,0.85,1.32
13.299962043762207,-0.75,1.32,-0.06,1.51
13.318472146987915,-1.16,1.21,-1.02,1.96
13.320128917694092,-1.37,0.88,-1.56,2.25
13.330030918121338,-1.45,0.37,-1.47,2.09
13.339805126190186,-1.41,-0.32,-1.01,1.76
13.349929094314575,-1.29,-1.09,-0.44,1.74
13.368596076965332,-0.98,-1.85,-0.1,2.09
13.370227098464966,-0.43,-2.53,-0.03,2.56
13.379998207092285,0.09,-3.17,0.02,3.17
13.389982223510742,0.48,-3.8,0.0,3.83
13.399882078170776,0.8,-4.32,-0.09,4.39
13.418015003204346,1.09,-4.6,-0.05,4.72
13.420335054397583,0.98,-4.61,-0.07,4.71
13.429973125457764,0.81,-4.45,-0.12,4.52
13.439967155456543,0.62,-4.25,-0.08,4.29
13.44992208480835,0.26,-4.01,0.02,4.01
13.467841148376465,-0.07,-3.66,0.18,3.66
13.470399141311646,-0.34,-3.27,0.29,3.3
13.479960918426514,-0.62,-2.88,0.29,2.96
13.490052223205566,-0.86,-2.51,0.26,2.66
13.499927043914795,-1.08,-2.16,0.24,2.42
13.51853609085083,-1.09,-1.89,0.27,2.19
13.520493984222412,-1.08,-1.67,0.48,2.04
13.53001594543457,-0.89,-1.45,0.81,1.88
13.539874076843262,-0.71,-1.2,1.01,1.72
13.54995608329773,-0.54,-0.86,1.21,1.57
13.56856918334961,-0.35,-0.41,1.39,1.49
13.570478916168213,-0.26,0.11,1.43,1.45
13.57991909980774,-0.31,0.64,1.28,1.46
13.590006113052368,-0.45,1.22,0.94,1.6
13.599929094314575,-0.54,1.79,0.49,1.93
13.618058204650879,-0.65,2.31,0.16,2.4
13.619794130325317,-0.81,2.62,0.25,2.75
13.630149126052856,-0.97,2.73,0.76,2.99
13.639912128448486,-0.9,2.95,1.72,3.53
13.649940013885498,-0.51,3.37,2.77,4.39
13.668689250946045,0.01,4.02,3.18,5.12
13.669858932495117,0.8,4.91,2.64,5.63
13.680005073547363,1.56,6.06,1.37,6.4
13.689987182617188,1.53,6.98,-0.28,7.15
13.69998812675476,1.0,7.08,-2.3,7.51
13.718436241149902,0.94,6.14,-4.12,7.45
13.719885110855103,1.27,4.52,-5.22,7.02
13.730010032653809,1.38,2.7,-5.25,6.06
13.739963054656982,1.36,1.07,-4.39,4.71
13.74998426437378,1.38,-0.25,-3.06,3.36
13.768494129180908,1.18,-1.4,-1.65,2.46
13.769876956939697,0.81,-2.2,-0.37,2.37
13.779986143112183,0.62,-2.3,0.59,2.45
13.789937973022461,0.65,-1.8,0.79,2.07
13.799990177154541,0.61,-0.96,0.37,1.19
13.818382263183594,0.45,-0.22,-0.23,0.55
13.819878101348877,0.27,0.21,-0.88,0.94
13.829987049102783,0.07,0.42,-1.44,1.5
13.83986520767212,-0.11,0.47,-1.83,1.89
13.850004196166992,-0.14,0.43,-1.89,1.94
13.868736267089844,-0.17,0.25,-1.69,1.71
13.86984920501709,-0.17,-0.12,-1.42,1.43
13.879987239837646,-0.13,-0.68,-1.08,1.28
13.889953136444092,-0.1,-1.3,-0.73,1.49
13.900029182434082,-0.01,-1.97,-0.37,2.0
13.919308185577393,0.0,-2.7,-0.03,2.7
13.91986894607544,-0.04,-3.36,0.35,3.37
13.92995309829712,-0.28,-3.85,0.69,3.92
13.939932107925415,-0.44,-4.14,0.83,4.24
13.950030088424683,-0.47,-4.11,0.78,4.2
13.969226121902466,-0.46,-3.88,0.66,3.96
13.969974040985107,-0.39,-3.56,0.59,3.62
13.980071067810059,-0.3,-3.23,0.54,3.28
13.98993706703186,-0.18,-2.88,0.55,2.93
14.00002408027649,0.03,-2.55,0.58,2.61
14.019392967224121,0.29,-2.25,0.46,2.31
14.019870042800903,0.51,-2.04,0.3,2.12
14.030059099197388,0.7,-1.86,0.2,1.99
14.039878129959106,0.82,-1.61,0.0,1.8
14.050028085708618,0.95,-1.33,-0.23,1.65
14.069664001464844,1.12,-1.1,-0.2,1.58
14.070044040679932,1.25,-0.85,0.14,1.51
14.080044031143188,1.28,-0.56,0.74,1.58
14.089967250823975,1.26,-0.15,1.27,1.79
14.100038051605225,1.07,0.38,1.48,1.86
14.119173049926758,0.76,1.01,1.35,1.84
14.119933128356934,0.49,1.7,0.91,1.98
14.130027055740356,0.34,2.34,0.45,2.4
14.139961242675781,0.22,2.91,0.28,2.93
14.150050163269043,0.16,3.36,0.51,3.4
14.168896198272705,0.25,3.64,1.19,3.83
14.169977188110352,0.22,3.9,2.0,4.38
14.180028915405273,0.22,4.44,2.54,5.11
14.18996810913086,0.2,5.19,2.45,5.74
14.200068950653076,-0.24,5.87,1.45,6.05
14.219474077224731,-0.8,6.31,-0.48,6.37
14.219980239868164,-1.29,6.12,-2.84,6.86
14.230025053024292,-1.68,5.28,-4.75,7.29
14.239957094192505,-1.84,3.99,-5.56,7.08
14.250070095062256,-1.85,2.29,-5.06,5.85
14.269207954406738,-1.72,0.48,-3.67,4.08
14.26983118057251,-1.34,-0.92,-1.89,2.49
14.280031204223633,-0.95,-1.68,-0.19,1.93
14.289917945861816,-0.79,-1.8,1.08,2.24
14.30009412765503,-0.63,-1.39,1.84,2.39
14.31913709640503,-0.26,-0.84,1.9,2.09
14.319823265075684,-0.06,-0.37,1.27,1.32
14.330043077468872,-0.02,-0.03,0.31,0.31
14.339949131011963,-0.07,0.13,-0.6,0.61
14.35004210472107,-0.18,0.0,-1.4,1.41
14.368274211883545,-0.31,-0.47,-1.89,1.97
14.369948148727417,-0.37,-1.07,-1.91,2.22
14.38018012046814,-0.29,-1.6,-1.62,2.29
14.390133142471313,-0.15,-2.14,-1.05,2.38
14.400012016296387,-0.05,-2.84,-0.51,2.88
14.419318199157715,0.19,-3.53,-0.04,3.53
14.419823169708252,0.53,-4.1,0.38,4.15
14.430130958557129,0.72,-4.51,0.63,4.61
14.439960956573486,0.73,-4.81,0.77,4.92
14.450041055679321,0.66,-4.83,0.82,4.94
14.47017526626587,0.41,-4.56,0.8,4.64
14.4705491065979,0.24,-4.03,0.68,4.09
14.480163097381592,0.04,-3.35,0.51,3.38
14.490034103393555,-0.19,-2.66,0.5,2.71
14.500059127807617,-0.5,-2.01,0.61,2.15
14.519925117492676,-0.72,-1.46,0.68,1.76
14.520263195037842,-1.03,-1.03,0.68,1.6
14.530113220214844,-1.37,-0.65,0.65,1.64
14.540080070495605,-1.42,-0.3,0.52,1.54
14.550035953521729,-1.33,0.01,0.44,1.4
14.570004940032959,-1.25,0.18,0.45,1.34
14.570374965667725,-1.2,0.09,0.51,1.3
14.580129146575928,-1.03,-0.11,0.68,1.23
14.59003210067749,-0.8,-0.28,0.98,1.29
14.600084066390991,-0.54,-0.26,1.28,1.41
14.619249105453491,-0.4,0.01,1.48,1.53
14.619965076446533,-0.25,0.45,1.59,1.67
14.630038261413574,-0.19,0.96,1.45,1.74
14.640015125274658,-0.23,1.44,1.39,2.01
14.650092124938965,-0.55,1.91,1.32,2.38
14.669312000274658,-1.11,2.58,1.43,3.15
14.669970035552979,-1.62,3.44,2.2,4.39
14.68011999130249,-1.67,4.19,3.05,5.44
14.69001293182373,-1.06,4.97,2.97,5.88
14.700115203857422,0.09,5.99,1.86,6.27
14.719613075256348,1.12,7.19,0.28,7.28
14.719993114471436,1.25,7.88,-1.42,8.1
14.730195999145508,1.07,7.46,-3.34,8.24
14.740067958831787,1.24,6.08,-4.78,7.83
14.750165939331055,1.36,4.16,-5.22,6.81
14.770697116851807,1.08,2.17,-4.8,5.37
14.771081924438477,1.09,0.48,-3.85,4.03
14.780174255371094,1.2,-0.88,-2.62,3.01
14.790051937103271,1.24,-1.79,-1.41,2.59
14.800140142440796,1.25,-2.2,-0.26,2.54
14.82039499282837,1.19,-2.13,0.62,2.51
14.82078218460083,1.1,-1.67,0.91,2.19
14.830228090286255,0.99,-0.89,0.64,1.47
14.839991092681885,0.81,-0.14,0.13,0.83
14.850190162658691,0.42,0.24,-0.41,0.63
14.870169162750244,0.16,0.19,-0.94,0.97
14.870569229125977,-0.02,-0.1,-1.34,1.34
14.880122184753418,-0.24,-0.37,-1.44,1.5
14.889983177185059,-0.41,-0.7,-1.34,1.56
14.900114059448242,-0.51,-1.15,-1.17,1.71
14.91930103302002,-0.5,-1.65,-0.89,1.94
14.91991114616394,-0.37,-2.25,-0.55,2.34
14.930141925811768,-0.18,-2.85,-0.21,2.86
14.94005823135376,0.02,-3.38,0.14,3.38
14.950210094451904,0.22,-3.72,0.39,3.74
14.969404220581055,0.39,-3.85,0.57,3.91
14.969864130020142,0.29,-3.79,0.66,3.85
14.980184078216553,0.04,-3.52,0.57,3.56
14.989953994750977,-0.1,-3.13,0.48,3.16
15.000140190124512,-0.11,-2.73,0.39,2.75
15.01898717880249,-0.02,-2.49,0.41,2.52
15.019975185394287,0.01,-2.27,0.34,2.29
15.030151128768921,0.22,-2.05,0.34,2.08
15.040095090866089,0.43,-1.89,0.46,1.99
15.05019998550415,0.56,-1.76,0.51,1.91
15.07040023803711,0.69,-1.64,0.54,1.85
15.070765018463135,0.86,-1.47,0.56,1.79
15.080137252807617,1.1,-1.21,0.55,1.72
15.089976072311401,1.27,-0.91,0.59,1.67
15.100194931030273,1.25,-0.52,0.8,1.57
15.11954402923584,1.01,-0.07,1.11,1.5
15.119915008544922,0.78,0.42,1.27,1.54
15.130207061767578,0.52,0.92,1.15,1.56
15.140141010284424,0.2,1.38,0.81,1.61
15.150206089019775,-0.14,1.87,0.41,1.91
15.169678211212158,-0.28,2.44,0.14,2.46
15.17005205154419,-0.29,2.96,0.0,2.97
15.180180072784424,-0.15,3.23,0.3,3.24
15.190087080001831,0.18,3.28,1.26,3.51
15.200157165527344,0.42,3.32,2.35,4.08
15.219504117965698,0.44,3.54,2.84,4.55
15.219958066940308,0.38,4.01,2.25,4.61
15.230207920074463,0.13,4.8,0.76,4.86
15.240148067474365,-0.6,5.43,-1.29,5.61
15.250232219696045,-1.38,5.25,-3.52,6.46
15.269856929779053,-1.51,4.36,-5.06,6.84
15.270230054855347,-1.37,2.9,-5.03,5.96
15.280209064483643,-1.48,1.22,-3.6,4.07
15.290170192718506,-1.53,-0.11,-1.68,2.27
15.300215244293213,-1.27,-0.8,-0.02,1.5
15.320428133010864,-0.99,-0.77,0.95,1.57
15.320801258087158,-0.73,-0.2,1.21,1.42
15.330220222473145,-0.45,0.46,0.76,0.99
15.340115070343018,-0.18,1.0,-0.3,1.05
15.350240230560303,-0.01,1.43,-1.51,2.07
15.370818138122559,-0.05,1.63,-2.41,2.9
15.371179103851318,-0.2,1.37,-2.93,3.24
15.380200147628784,-0.32,0.63,-2.94,3.02
15.390110969543457,-0.52,-0.33,-2.47,2.54
15.400207996368408,-0.64,-1.26,-1.72,2.22
15.420870065689087,-0.75,-2.14,-0.69,2.37
15.421241044998169,-0.83,-2.99,0.33,3.12
15.430299043655396,-0.71,-3.79,1.07,4.0
15.440093040466309,-0.4,-4.41,1.56,4.69
15.450273990631104,-0.03,-4.75,1.76,5.06
15.470648050308228,0.33,-4.78,1.58,5.04
15.471018075942993,0.58,-4.52,1.18,4.7
15.480234146118164,0.62,-4.06,0.79,4.18
15.490074157714844,0.55,-3.5,0.59,3.59
15.500285148620605,0.45,-3.08,0.37,3.13
15.521242141723633,0.31,-2.69,0.02,2.7
15.521615028381348,0.26,-2.3,-0.09,2.31
15.53022813796997,0.06,-1.9,-0.11,1.9
15.540208101272583,-0.29,-1.61,-0.19,1.64
15.550262928009033,-0.68,-1.46,-0.13,1.61
15.570611953735352,-0.94,-1.38,-0.02,1.66
15.570984125137329,-1.13,-1.35,0.04,1.76
15.580220222473145,-1.32,-1.31,0.07,1.86
15.590075016021729,-1.42,-1.2,0.2,1.86
15.600281238555908,-1.36,-0.99,0.44,1.73
15.620424032211304,-1.15,-0.7,0.61,1.47
15.620803117752075,-0.91,-0.34,0.74,1.22
15.630218982696533,-0.59,0.05,0.87,1.05
15.640078067779541,-0.38,0.53,0.96,1.16
15.650378227233887,-0.21,1.0,1.0,1.42
15.67183804512024,-0.03,1.47,0.99,1.77
15.672266960144043,-0.12,1.97,1.09,2.25
15.68028712272644,-0.43,2.47,1.44,2.89
15.69020414352417,-0.75,3.07,2.16,3.82
15.700369119644165,-0.79,3.81,3.06,4.95
15.721405029296875,-0.41,4.56,3.46,5.73
15.72180700302124,0.14,5.35,2.99,6.13
15.730323076248169,0.73,6.47,1.9,6.78
15.740121126174927,1.06,7.43,0.26,7.5
15.750349044799805,0.93,7.6,-1.95,7.9
15.7714262008667,0.88,6.82,-4.14,8.02
15.771806240081787,1.15,5.25,-5.45,7.65
15.780272960662842,1.19,3.18,-5.57,6.52
15.790210247039795,1.21,1.13,-4.75,5.03
15.800310134887695,1.43,-0.56,-3.44,3.76
15.82106614112854,1.65,-1.74,-1.99,3.11
15.821455001831055,1.78,-2.42,-0.64,3.07
15.830311059951782,1.63,-2.61,0.52,3.12
15.840244054794312,1.17,-2.21,1.07,2.71
15.850403070449829,0.76,-1.42,0.81,1.8
15.870796203613281,0.45,-0.78,0.04,0.9
15.871164083480835,0.11,-0.47,-0.88,1.0
15.880316257476807,-0.24,-0.41,-1.54,1.61
15.890422105789185,-0.41,-0.51,-1.94,2.04
15.900366067886353,-0.5,-0.76,-2.0,2.19
15.92051911354065,-0.55,-1.12,-1.58,2.01
15.920883178710938,-0.48,-1.47,-0.86,1.76
15.930260181427002,-0.32,-1.8,-0.25,1.84
15.94045114517212,-0.07,-2.13,0.21,2.14
15.950384140014648,0.18,-2.49,0.52,2.55
15.97137713432312,0.34,-2.86,0.51,2.92
15.971750259399414,0.46,-3.09,0.34,3.14
15.980332136154175,0.55,-3.26,0.17,3.31
15.99058198928833,0.37,-3.22,-0.04,3.24
16.000378131866455,0.19,-2.92,-0.1,2.92
16.021420001983643,0.19,-2.51,0.0,2.51
16.02179718017578,0.1,-2.16,0.09,2.16
16.026423931121826,0.14,-1.93,0.31,1.95
16.036739110946655,0.19,-1.81,0.7,1.94
16.046558141708374,0.2,-1.76,0.95,2.0
16.056557178497314,0.35,-1.66,0.91,1.92
16.070635080337524,0.6,-1.6,0.64,1.82
16.076460123062134,0.87,-1.6,0.33,1.85
16.086578130722046,1.13,-1.57,0.06,1.93
16.096724033355713,1.33,-1.41,-0.13,1.94
16.106600046157837,1.46,-1.16,-0.19,1.87
16.121421098709106,1.42,-0.94,0.11,1.7
16.126671075820923,1.33,-0.68,0.65,1.62
16.13663911819458,1.15,-0.28,1.06,1.58
16.146592140197754,0.8,0.23,1.28,1.52
16.15669822692871,0.27,0.83,1.15,1.44
16.170692920684814,-0.11,1.52,0.75,1.69
16.176476001739502,-0.4,2.24,0.45,2.31
16.18668007850647,-0.61,2.81,0.47,2.91
16.19665503501892,-0.54,3.18,0.72,3.3
16.206557035446167,-0.26,3.51,1.26,3.73
16.22134304046631,-0.08,3.88,1.79,4.27
16.226486206054688,0.13,4.38,2.08,4.85
16.236985206604004,0.32,5.0,1.92,5.36
16.2466881275177,0.07,5.56,0.77,5.61
16.25660514831543,-0.57,5.71,-1.17,5.85
16.271940231323242,-0.93,5.38,-3.17,6.31
16.276566982269287,-0.99,4.48,-4.49,6.41
16.286554098129272,-1.23,3.08,-4.78,5.81
16.296721935272217,-1.49,1.48,-3.96,4.48
16.306462049484253,-1.34,0.09,-2.46,2.8
16.32191514968872,-0.99,-0.84,-0.94,1.6
16.326560020446777,-0.85,-1.09,0.1,1.38
16.336685180664062,-0.76,-0.71,0.67,1.23
16.346712112426758,-0.69,-0.03,0.72,0.99
16.356651067733765,-0.65,0.59,0.3,0.92
16.371870040893555,-0.62,0.96,-0.34,1.19
16.376546144485474,-0.6,0.95,-0.96,1.47
16.386810064315796,-0.66,0.54,-1.41,1.64
16.39662218093872,-0.77,-0.12,-1.48,1.67
16.406721115112305,-0.72,-0.84,-1.22,1.64
16.422747135162354,-0.57,-1.53,-0.91,1.86
16.42789912223816,-0.45,-2.22,-0.55,2.33
16.43785309791565,-0.41,-2.91,-0.09,2.94
16.447880268096924,-0.31,-3.51,0.36,3.54
16.473467111587524,-0.1,-4.0,0.69,4.06
16.473852157592773,0.02,-4.31,0.88,4.39
16.477959156036377,0.06,-4.3,0.98,4.41
16.487852096557617,0.12,-4.0,1.03,4.13
16.49793815612793,0.26,-3.61,0.98,3.74
16.523547172546387,0.38,-3.29,0.79,3.4
16.52392292022705,0.4,-2.96,0.47,3.02
16.527924060821533,0.37,-2.59,0.19,2.62
16.537926197052002,0.25,-2.21,-0.03,2.22
16.54801607131958,0.09,-1.91,-0.13,1.91
16.57326602935791,-0.06,-1.64,-0.23,1.65
16.57365322113037,-0.31,-1.44,-0.21,1.48
16.577928066253662,-0.63,-1.29,-0.09,1.43
16.587952136993408,-0.9,-1.13,0.14,1.45
16.59789204597473,-1.08,-1.0,0.28,1.49
16.6232430934906,-1.09,-0.89,0.41,1.46
16.62362003326416,-1.03,-0.77,0.58,1.41
16.62790012359619,-0.94,-0.52,0.96,1.44
16.637911081314087,-0.9,-0.11,1.33,1.6
16.648014068603516,-0.69,0.41,1.52,1.71
16.67330813407898,-0.28,0.95,1.49,1.78
16.67368793487549,-0.03,1.5,1.3,1.98
16.677988052368164,-0.05,2.05,1.15,2.35
16.687785148620605,-0.69,2.55,1.04,2.83
16.697968006134033,-1.44,2.98,1.24,3.53
16.722958087921143,-1.92,3.38,1.98,4.36
16.723331928253174,-1.97,3.86,3.12,5.33
16.727992057800293,-1.49,4.56,3.54,5.96
16.73793911933899,-0.29,5.45,2.73,6.1
16.748151063919067,0.92,6.36,1.07,6.51
16.772998094558716,1.22,6.8,-0.69,6.94
16.773369073867798,1.08,6.32,-2.53,6.89
16.777960062026978,1.3,4.95,-4.18,6.6
16.78792715072632,1.59,3.15,-4.89,6.03
16.79805612564087,1.52,1.31,-4.47,4.89
16.822975158691406,1.5,-0.2,-3.4,3.72
16.823348999023438,1.55,-1.24,-2.14,2.91
16.827914237976074,1.52,-1.84,-1.12,2.63
16.83789610862732,1.57,-1.9,-0.38,2.49
16.848016262054443,1.45,-1.4,-0.17,2.02
16.873148918151855,1.15,-0.55,-0.31,1.31
16.873512268066406,0.62,0.23,-0.72,0.97
16.87802505493164,0.14,0.68,-1.16,1.35
16.88799524307251,-0.26,0.87,-1.49,1.74
16.898049116134644,-0.57,0.91,-1.6,1.92
16.924029111862183,-0.67,0.74,-1.5,1.8
16.924415111541748,-0.71,0.27,-1.31,1.51
16.92789602279663,-0.66,-0.35,-0.97,1.22
16.93791913986206,-0.52,-0.93,-0.61,1.22
16.947912216186523,-0.29,-1.44,-0.37,1.51
16.973642110824585,0.04,-2.0,-0.24,2.01
16.974020957946777,0.48,-2.65,-0.14,2.69
16.977988243103027,0.86,-3.26,-0.01,3.37
16.987900257110596,0.88,-3.8,0.22,3.9
16.997981071472168,0.55,-4.12,0.4,4.17
17.00788712501526,0.16,-4.15,0.39,4.17
17.023743152618408,0.06,-3.94,0.34,3.95
17.028032064437866,0.07,-3.59,0.4,3.61
17.03790521621704,-0.01,-3.19,0.5,3.22
17.048027992248535,-0.08,-2.85,0.59,2.91
17.05799102783203,0.06,-2.58,0.68,2.66
17.0736141204834,0.31,-2.4,0.72,2.52
17.078060150146484,0.48,-2.31,0.69,2.45
17.087972164154053,0.69,-2.17,0.56,2.34
17.0979962348938,0.91,-1.87,0.24,2.09
17.10796022415161,1.1,-1.56,0.02,1.9
17.124141216278076,1.26,-1.32,0.13,1.82
17.12807321548462,1.38,-1.16,0.48,1.86
17.138000965118408,1.53,-0.95,1.03,2.07
17.14802598953247,1.45,-0.62,1.56,2.21
17.15798807144165,1.22,-0.09,1.74,2.12
17.1742000579834,0.84,0.58,1.48,1.79
17.178062915802002,0.49,1.35,0.84,1.66
17.188019037246704,0.33,2.12,0.27,2.16
17.19804620742798,0.23,2.86,-0.03,2.86
17.207929134368896,0.1,3.47,0.12,3.47
17.22343611717224,0.01,3.89,0.9,3.99
17.22785711288452,-0.03,4.19,1.94,4.61
17.23787498474121,-0.03,4.59,2.68,5.31
17.24803113937378,0.05,5.22,2.59,5.82
17.257976055145264,-0.21,5.94,1.47,6.12
17.273754119873047,-0.83,6.65,-0.68,6.73
17.27808904647827,-1.16,6.84,-3.24,7.65
17.28790807723999,-1.37,6.1,-5.5,8.32
17.298035144805908,-1.59,4.67,-6.53,8.18
17.307992935180664,-1.86,2.76,-5.85,6.73
17.324093103408813,-1.81,0.89,-3.96,4.44
17.328091144561768,-1.21,-0.48,-1.79,2.21
17.33797812461853,-0.78,-1.3,0.12,1.52
17.348007202148438,-0.56,-1.44,1.56,2.19
17.358033180236816,-0.43,-1.08,2.22,2.5
17.373405933380127,-0.15,-0.45,2.03,2.08
17.37811803817749,0.09,0.12,1.17,1.17
17.38793110847473,-0.07,0.34,-0.14,0.37
17.398035049438477,-0.33,0.32,-1.21,1.29
17.407927989959717,-0.48,0.11,-1.82,1.88
17.42393207550049,-0.64,-0.28,-2.12,2.23
17.428057193756104,-0.71,-0.85,-2.03,2.31
17.43799614906311,-0.76,-1.49,-1.52,2.26
17.448065042495728,-0.71,-2.14,-0.85,2.4
17.45801019668579,-0.5,-2.87,-0.33,2.93
17.473889112472534,-0.14,-3.62,-0.05,3.62
17.47806406021118,0.31,-4.31,0.12,4.32
17.48795509338379,0.67,-4.8,0.29,4.85
17.498034954071045,0.91,-5.05,0.48,5.15
17.507996082305908,0.9,-5.08,0.59,5.19
17.52439594268799,0.72,-4.9,0.57,4.98
17.528041124343872,0.54,-4.42,0.57,4.48
17.537999153137207,0.27,-3.76,0.5,3.8
17.548049926757812,-0.13,-3.1,0.27,3.11
17.558064937591553,-0.42,-2.47,0.09,2.5
17.574435234069824,-0.74,-1.95,0.13,2.08
17.57806921005249,-1.03,-1.54,0.22,1.86
17.58799123764038,-1.14,-1.25,0.29,1.71
17.598031997680664,-1.19,-1.08,0.29,1.63
17.608016967773438,-1.26,-0.89,0.23,1.55
17.624195098876953,-1.08,-0.71,0.27,1.32
17.62791109085083,-0.8,-0.58,0.38,1.05
17.637959957122803,-0.43,-0.45,0.66,0.9
17.648066997528076,-0.3,-0.26,1.19,1.25
17.65807604789734,-0.36,0.06,1.64,1.68
17.673624992370605,-0.43,0.64,1.75,1.91
17.67817211151123,-0.41,1.29,1.44,1.97
17.68803596496582,-0.48,1.86,1.05,2.18
17.69805908203125,-0.93,2.3,0.73,2.58
17.708102226257324,-1.44,2.7,0.43,3.09
17.723750114440918,-1.9,3.04,0.45,3.61
17.727894067764282,-2.16,3.24,1.11,4.04
17.73798704147339,-1.75,3.58,2.25,4.57
17.74800205230713,-0.92,4.15,2.99,5.19
17.758026123046875,0.14,4.91,2.85,5.67
17.77307891845703,1.18,5.65,1.81,6.04
17.778051137924194,1.79,6.18,0.16,6.43
17.788023948669434,1.7,6.06,-1.97,6.59
17.79808807373047,1.45,5.08,-3.98,6.61
17.808051109313965,1.28,3.57,-5.01,6.28
17.824043035507202,1.24,2.0,-4.71,5.26
17.828063011169434,1.29,0.59,-3.54,3.81
17.838019132614136,1.24,-0.49,-2.09,2.47
17.848096132278442,1.16,-1.07,-0.74,1.74
17.858074188232422,0.95,-1.08,0.1,1.44
17.873160123825073,0.78,-0.52,0.3,0.98
17.878098964691162,0.65,0.3,-0.14,0.72
17.888018131256104,0.39,0.86,-1.05,1.41
17.898133039474487,0.02,1.03,-1.91,2.17
17.90806293487549,-0.22,0.98,-2.29,2.5
17.92419195175171,-0.46,0.72,-2.32,2.47
17.928040981292725,-0.53,0.32,-2.05,2.14
17.938048124313354,-0.41,-0.13,-1.43,1.49
17.948086261749268,-0.22,-0.57,-0.78,0.99
17.958094120025635,0.01,-1.07,-0.25,1.09
17.973281145095825,0.24,-1.69,0.07,1.7
17.978166103363037,0.45,-2.4,0.28,2.45
17.988035202026367,0.61,-3.08,0.42,3.16
17.998120069503784,0.57,-3.64,0.42,3.7
18.00809097290039,0.4,-4.02,0.49,4.06
18.024431228637695,-0.03,-4.23,0.59,4.27
18.028107166290283,-0.34,-4.29,0.69,4.35
18.038047075271606,-0.39,-4.22,0.84,4.32
18.048169136047363,-0.32,-3.98,0.77,4.06
18.058179140090942,-0.19,-3.66,0.66,3.72
18.073723077774048,-0.01,-3.37,0.49,3.4
18.078064918518066,0.24,-3.16,0.43,3.19
18.08814811706543,0.41,-2.98,0.48,3.04
18.09830904006958,0.54,-2.7,0.53,2.8
18.108145236968994,0.59,-2.36,0.47,2.47
18.124486923217773,0.71,-1.95,0.28,2.09
18.127975940704346,0.76,-1.56,0.06,1.73
18.138100147247314,0.81,-1.17,0.02,1.42
18.148179054260254,0.96,-0.64,0.14,1.16
18.158109188079834,1.13,0.02,0.34,1.18
18.175727128982544,1.16,0.69,0.49,1.43
18.178036212921143,1.08,1.3,0.57,1.78
18.18805694580078,0.88,1.89,0.42,2.12
18.198304176330566,0.57,2.35,0.13,2.42
18.20808696746826,0.26,2.71,-0.09,2.72
18.22475004196167,0.2,2.92,-0.09,2.92
18.227980136871338,0.36,3.02,0.3,3.05
18.238097190856934,0.59,3.21,1.57,3.62
18.248136043548584,0.62,3.48,2.94,4.59
18.258053064346313,0.34,3.7,3.51,5.11
18.27501606941223,0.1,4.2,3.21,5.28
18.277948141098022,-0.17,5.0,2.04,5.4
18.28798508644104,-0.83,5.56,0.07,5.62
18.29819917678833,-1.49,5.37,-2.2,5.99
18.308165073394775,-1.7,4.54,-4.13,6.36
18.324982166290283,-1.39,3.49,-5.12,6.35
18.327975034713745,-1.13,2.3,-4.99,5.6
18.338118076324463,-1.09,1.09,-3.88,4.17
18.348220109939575,-0.73,0.0,-2.3,2.41
18.35816192626953,-0.21,-0.89,-0.72,1.16
18.37412691116333,0.04,-1.34,0.58,1.46
18.378064155578613,0.0,-1.18,1.44,1.86
18.388086080551147,-0.21,-0.56,1.65,1.75
18.398213148117065,-0.3,0.1,1.11,1.15
18.40808916091919,-0.39,0.57,0.13,0.7
18.42461109161377,-0.66,0.93,-0.81,1.39
18.42804193496704,-0.93,1.14,-1.44,2.05
18.43811798095703,-1.12,1.08,-1.74,2.33
18.448222160339355,-1.24,0.63,-1.64,2.15
18.458172082901,-1.14,-0.07,-1.39,1.79
18.475622177124023,-0.85,-0.86,-1.15,1.66
18.47813606262207,-0.43,-1.7,-0.99,2.01
18.488193035125732,0.05,-2.5,-0.78,2.61
18.49822998046875,0.54,-3.33,-0.48,3.4
18.50819706916809,0.98,-4.12,-0.12,4.23
18.525886058807373,1.27,-4.78,0.3,4.95
18.528106212615967,1.18,-5.17,0.7,5.34
18.538255214691162,0.85,-5.18,0.9,5.32
18.548217058181763,0.52,-4.89,0.88,4.99
18.558156967163086,0.25,-4.41,0.71,4.47
18.575661182403564,0.02,-3.88,0.46,3.9
18.57809019088745,-0.21,-3.3,0.15,3.31
18.58814311027527,-0.32,-2.66,0.05,2.67
18.598283052444458,-0.4,-2.13,0.07,2.16
18.608177185058594,-0.48,-1.83,-0.02,1.89
18.625529050827026,-0.62,-1.66,-0.1,1.77
18.62802219390869,-0.93,-1.42,0.03,1.69
18.6382999420166,-1.17,-1.12,0.34,1.65
18.648247241973877,-1.29,-0.85,0.5,1.62
18.658209085464478,-1.25,-0.58,0.72,1.55
18.67534303665161,-1.0,-0.25,1.08,1.49
18.67828893661499,-0.78,0.15,1.33,1.54
18.68821096420288,-0.55,0.7,1.43,1.68
18.69830894470215,-0.37,1.32,1.48,2.01
18.7083101272583,-0.17,1.88,1.24,2.25
18.72523307800293,-0.14,2.35,0.85,2.5
18.72807216644287,-0.57,2.69,0.53,2.8
18.738152027130127,-1.25,2.97,0.55,3.26
18.748208045959473,-1.89,3.32,1.29,4.03
18.758288145065308,-2.05,3.75,2.59,4.99
18.77619504928589,-1.61,4.3,3.57,5.81
18.77822494506836,-0.55,5.12,3.65,6.31
18.788156032562256,0.77,6.03,2.74,6.66
18.79818606376648,1.53,6.8,1.22,7.07
18.808195114135742,1.48,6.83,-0.96,7.05
18.825114250183105,1.54,6.1,-3.61,7.25
18.82828998565674,1.79,4.78,-5.7,7.65
18.83822202682495,1.63,3.22,-6.39,7.33
18.848191261291504,1.28,1.49,-5.69,6.01
18.85822296142578,1.22,-0.19,-4.22,4.39
18.875251054763794,1.2,-1.64,-2.46,3.19
18.878116130828857,1.19,-2.62,-0.77,2.97
18.88824224472046,1.25,-2.93,0.53,3.22
18.898187160491943,1.32,-2.55,1.17,3.1
18.90817403793335,1.15,-1.68,1.11,2.31
18.92567491531372,0.87,-0.76,0.71,1.35
18.928194999694824,0.55,-0.16,0.15,0.59
18.938268184661865,0.3,0.15,-0.35,0.48
18.94826602935791,0.1,0.32,-0.88,0.94
18.958380222320557,-0.12,0.45,-1.27,1.35
18.975013256072998,-0.4,0.43,-1.44,1.55
18.978143215179443,-0.48,0.08,-1.51,1.58
18.98830223083496,-0.47,-0.55,-1.48,1.64
18.998122215270996,-0.47,-1.3,-1.26,1.87
19.008220195770264,-0.35,-2.07,-0.84,2.26
19.02474308013916,-0.13,-2.78,-0.37,2.8
19.028207063674927,0.01,-3.53,0.06,3.53
19.03826093673706,0.14,-4.15,0.38,4.16
19.048354148864746,0.3,-4.46,0.53,4.5
19.058317184448242,0.39,-4.29,0.64,4.35
19.076107025146484,0.36,-3.71,0.63,3.78
19.078254222869873,0.31,-3.05,0.6,3.12
19.08831810951233,0.33,-2.49,0.67,2.59
19.098419189453125,0.38,-2.08,0.76,2.24
19.108307123184204,0.35,-1.8,0.69,1.95
19.126002073287964,0.36,-1.54,0.49,1.65
19.128462076187134,0.41,-1.3,0.3,1.39
19.138293266296387,0.5,-1.12,0.14,1.23
19.1481990814209,0.69,-1.06,0.1,1.26
19.158266067504883,0.78,-1.09,0.19,1.35
19.176751136779785,0.8,-1.16,0.33,1.44
19.178548097610474,0.96,-1.18,0.62,1.64
19.18837594985962,1.1,-1.16,0.99,1.88
19.19819402694702,1.18,-0.97,1.4,2.07
19.208473205566406,1.08,-0.54,1.72,2.1
19.226373195648193,0.8,0.04,1.68,1.86
19.228652954101562,0.38,0.67,1.37,1.57
19.238259077072144,0.05,1.42,0.76,1.61
19.24813413619995,-0.11,2.28,0.04,2.28
19.25825309753418,-0.09,3.1,-0.37,3.12
19.276835918426514,-0.06,3.68,-0.1,3.68
19.278906106948853,-0.07,3.84,0.81,3.92
19.28826904296875,0.1,3.85,1.73,4.22
19.298295974731445,0.39,4.11,2.08,4.62
19.308268070220947,0.43,4.79,1.46,5.02
19.32661199569702,-0.16,5.46,-0.03,5.46
19.328899145126343,-0.94,5.6,-1.96,6.0
19.338330030441284,-1.17,4.94,-3.9,6.4
19.348133087158203,-1.3,3.73,-4.96,6.34
19.358277082443237,-1.54,2.39,-4.64,5.44
19.376280069351196,-1.73,1.17,-3.32,3.92
19.378998041152954,-1.67,0.44,-1.56,2.32
19.388447046279907,-1.53,0.19,-0.08,1.54
19.398186206817627,-1.28,0.36,0.78,1.54
19.40827703475952,-0.84,0.86,1.04,1.58
19.427319049835205,-0.67,1.41,0.71,1.71
19.428232192993164,-0.59,1.74,-0.04,1.83
19.438340187072754,-0.47,1.77,-1.08,2.12
19.448209047317505,-0.36,1.47,-2.01,2.51
19.4583261013031,-0.41,0.94,-2.48,2.68
19.477191925048828,-0.44,0.17,-2.34,2.38
19.4782772064209,-0.4,-0.72,-1.8,1.97
19.488336086273193,-0.27,-1.54,-1.07,1.89
19.498213052749634,-0.11,-2.34,-0.24,2.35
19.508320093154907,0.03,-3.18,0.47,3.21
19.527392148971558,0.09,-3.92,0.93,4.02
19.52814817428589,0.15,-4.43,1.04,4.55
19.538421154022217,0.4,-4.69,1.0,4.81
19.548251152038574,0.57,-4.87,0.85,4.97
19.55834412574768,0.72,-4.85,0.61,4.94
19.57731819152832,0.82,-4.68,0.38,4.76
19.57824993133545,0.81,-4.34,0.22,4.42
19.588364124298096,0.76,-3.77,0.13,3.84
19.59817409515381,0.74,-3.26,0.2,3.34
19.608317136764526,0.59,-2.96,0.25,3.02
19.627546072006226,0.25,-2.76,0.22,2.78
19.628146171569824,-0.17,-2.44,0.19,2.45
19.638386249542236,-0.53,-2.02,0.13,2.09
19.648427963256836,-0.8,-1.61,0.07,1.79
19.658366203308105,-0.96,-1.31,0.14,1.63
19.676592111587524,-1.08,-1.21,0.26,1.64
19.67814302444458,-0.97,-1.07,0.3,1.47
19.688470125198364,-0.8,-0.76,0.39,1.17
19.69815492630005,-0.72,-0.3,0.58,0.97
19.708378076553345,-0.74,0.25,0.81,1.12
19.727143049240112,-0.74,0.82,1.01,1.49
19.72822093963623,-0.85,1.26,1.17,1.91
19.73837900161743,-0.83,1.61,1.3,2.22
19.748302936553955,-0.88,1.92,1.4,2.53
19.758403062820435,-1.3,2.24,1.48,2.98
19.777404069900513,-1.9,2.61,1.68,3.63
19.778213024139404,-2.3,3.03,2.2,4.39
19.788424015045166,-2.07,3.52,2.93,5.02
19.79840898513794,-1.52,4.13,3.28,5.48
19.808352947235107,-0.79,4.95,2.79,5.73
19.82761001586914,0.06,5.91,1.49,6.09
19.828227996826172,0.71,6.61,-0.29,6.65
19.838414192199707,0.94,6.58,-2.24,7.01
19.84834098815918,0.97,5.87,-4.11,7.23
19.858395099639893,1.03,4.62,-5.39,7.17
19.87723207473755,0.96,2.98,-5.65,6.45
19.878204107284546,0.71,1.23,-4.8,5.0
19.88843297958374,0.81,-0.13,-3.19,3.29
19.898173093795776,1.09,-1.02,-1.49,2.1
19.908384084701538,1.26,-1.5,0.05,1.95
19.927359104156494,1.37,-1.61,1.21,2.43
19.928211212158203,1.53,-1.37,1.67,2.64
19.93843126296997,1.72,-0.7,1.25,2.23
19.94817805290222,1.52,0.09,0.02,1.52
19.958380222320557,1.09,0.66,-1.34,1.84
19.97699213027954,0.72,0.93,-2.27,2.55
19.978249073028564,0.23,0.82,-2.69,2.82
19.98840308189392,-0.34,0.43,-2.47,2.53
19.998215198516846,-0.7,-0.11,-1.86,1.99
20.00849723815918,-0.85,-0.6,-1.21,1.59
20.02695608139038,-0.93,-1.12,-0.59,1.57
20.027332067489624,-0.96,-1.65,-0.09,1.91
20.037114143371582,-0.89,-2.28,0.22,2.45
20.047032117843628,-0.54,-2.89,0.3,2.95
20.05719518661499,-0.07,-3.4,0.27,3.41
20.076542139053345,0.35,-3.75,0.11,3.76
20.07696294784546,0.69,-3.85,0.03,3.91
20.087182998657227,0.84,-3.78,0.12,3.87
20.096997261047363,0.73,-3.6,0.28,3.68
20.107267141342163,0.44,-3.24,0.38,3.29
20.127870082855225,0.2,-2.8,0.57,2.86
20.12825918197632,0.08,-2.49,0.74,2.59
20.137059211730957,0.04,-2.34,0.77,2.46
20.14701795578003,0.15,-2.28,0.71,2.39
20.15712022781372,0.39,-2.28,0.47,2.36
20.176955223083496,0.73,-2.2,0.25,2.33
20.177327156066895,0.86,-2.07,0.28,2.25
20.187089920043945,0.94,-1.96,0.41,2.21
20.196973085403442,1.08,-1.84,0.55,2.2
20.207167148590088,1.24,-1.57,0.71,2.12
20.227050065994263,1.41,-1.24,0.96,2.1
20.227415084838867,1.32,-1.0,1.22,2.05
20.23720908164978,1.1,-0.6,1.41,1.88
20.247307062149048,0.86,-0.03,1.46,1.69
20.257319927215576,0.47,0.67,1.26,1.5
20.27779197692871,0.18,1.45,0.73,1.63
20.278155088424683,0.16,2.27,0.01,2.27
20.28708791732788,0.36,3.08,-0.49,3.13
20.297198057174683,0.59,3.7,-0.39,3.76
20.307274103164673,0.89,3.94,0.48,4.06
20.327556133270264,0.93,3.92,1.66,4.35
20.32792091369629,0.62,3.97,2.46,4.71
20.33723020553589,0.27,4.5,2.54,5.17
20.34711503982544,-0.32,5.22,1.67,5.48
20.357265949249268,-1.19,5.59,-0.02,5.71
20.377460956573486,-1.75,5.34,-2.13,6.0
20.377836227416992,-1.72,4.63,-4.11,6.42
20.3871111869812,-1.59,3.68,-5.24,6.59
20.397330045700073,-1.67,2.49,-5.14,5.95
20.40973424911499,-1.5,1.18,-4.12,4.54
20.428365230560303,-0.92,0.03,-2.62,2.77
20.429670095443726,-0.55,-0.76,-1.09,1.43
20.439805030822754,-0.52,-0.97,0.22,1.12
20.449748992919922,-0.65,-0.68,1.28,1.58
20.45998191833496,-0.75,-0.17,1.64,1.81
20.478223085403442,-0.75,0.46,1.12,1.42
20.47964906692505,-0.77,1.01,0.24,1.29
20.489835262298584,-1.07,1.31,-0.61,1.79
20.4997820854187,-1.36,1.31,-1.26,2.27
20.509836196899414,-1.54,0.97,-1.49,2.35
20.52845311164856,-1.48,0.4,-1.38,2.06
20.529804229736328,-1.15,-0.39,-1.1,1.63
20.539822101593018,-0.7,-1.35,-0.85,1.74
20.54962921142578,-0.04,-2.25,-0.58,2.32
20.559858083724976,0.64,-3.11,-0.31,3.19
20.578747034072876,1.09,-4.0,0.02,4.14
20.579775094985962,1.33,-4.73,0.32,4.92
20.589874267578125,1.26,-5.21,0.51,5.38
20.59970211982727,1.0,-5.38,0.62,5.5
20.609755992889404,0.69,-5.3,0.64,5.38
20.629050254821777,0.44,-5.04,0.57,5.09
20.629751205444336,0.31,-4.6,0.48,4.63
20.639682054519653,0.12,-4.12,0.37,4.13
20.649735927581787,-0.09,-3.56,0.29,3.57
20.65974712371826,-0.26,-2.96,0.34,2.99
20.679140090942383,-0.53,-2.37,0.35,2.45
20.679567098617554,-0.64,-1.89,0.21,2.0
20.68980598449707,-0.81,-1.48,0.07,1.68
20.6998131275177,-0.89,-1.13,0.12,1.44
20.70987892150879,-1.06,-0.88,0.28,1.4
20.729042053222656,-1.16,-0.7,0.49,1.44
20.729522228240967,-1.16,-0.48,0.75,1.46
20.73982524871826,-1.01,-0.04,0.94,1.38
20.749601125717163,-0.75,0.53,1.06,1.4
20.759846210479736,-0.73,1.17,1.12,1.77
20.77893304824829,-0.74,1.9,1.05,2.29
20.779670238494873,-0.65,2.66,0.65,2.81
20.789748191833496,-0.64,3.2,0.28,3.27
20.799780130386353,-0.89,3.41,-0.02,3.52
20.809885025024414,-1.32,3.3,0.14,3.55
20.828293085098267,-1.57,3.18,1.07,3.7
20.829585075378418,-1.54,3.19,2.46,4.31
20.83980417251587,-1.23,3.5,3.56,5.14
20.84966802597046,-0.4,4.25,3.59,5.57
20.8598051071167,0.58,5.27,2.48,5.85
20.879257202148438,1.24,6.17,0.78,6.34
20.879766941070557,1.28,6.33,-1.31,6.58
20.889836072921753,1.09,5.72,-3.58,6.83
20.899816036224365,1.27,4.71,-5.21,7.13
20.909903049468994,1.35,3.27,-5.52,6.55
20.929540157318115,1.15,1.51,-4.71,5.07
20.92991614341736,1.17,-0.19,-3.55,3.74
20.939877033233643,1.34,-1.63,-2.31,3.12
20.949902057647705,1.5,-2.57,-1.04,3.15
20.959914207458496,1.46,-2.72,0.18,3.09
20.97947597503662,1.3,-2.15,1.02,2.71
20.979843139648438,1.01,-1.25,1.28,2.05
20.989875078201294,0.76,-0.42,1.03,1.34
20.999699115753174,0.52,0.21,0.47,0.73
21.009902954101562,0.09,0.63,-0.34,0.72
21.028255939483643,-0.42,0.87,-1.19,1.53
21.02967596054077,-0.72,0.95,-1.65,2.03
21.039873123168945,-0.86,0.78,-1.9,2.22
21.04975700378418,-0.9,0.35,-1.88,2.11
21.059821128845215,-0.84,-0.21,-1.56,1.78
21.079144954681396,-0.71,-0.83,-1.07,1.52
21.079637050628662,-0.47,-1.45,-0.53,1.61
21.08980417251587,-0.09,-2.18,0.0,2.18
21.099717140197754,0.2,-2.99,0.33,3.01
21.109763145446777,0.47,-3.7,0.62,3.78
21.129560947418213,0.57,-4.15,0.79,4.26
21.129937171936035,0.45,-4.22,0.82,4.32
21.13982391357422,0.22,-3.85,0.79,3.93
21.149779081344604,0.08,-3.34,0.82,3.44
21.159836053848267,0.08,-3.01,0.86,3.13
21.18004322052002,0.0,-2.77,0.76,2.87
21.18041706085205,0.16,-2.47,0.67,2.56
21.189861059188843,0.43,-2.21,0.64,2.34
21.199868202209473,0.5,-2.04,0.48,2.15
21.209893226623535,0.67,-1.9,0.25,2.03
21.230748176574707,0.96,-1.74,0.07,1.98
21.23110604286194,1.04,-1.61,0.01,1.91
21.239864110946655,0.89,-1.47,0.07,1.71
21.249634265899658,0.88,-1.3,0.4,1.62
21.25988006591797,1.02,-1.12,0.89,1.75
21.280688047409058,1.05,-0.91,1.37,1.95
21.281063079833984,1.03,-0.48,1.73,2.06
21.2898690700531,0.91,0.18,1.9,2.11
21.299713134765625,0.61,0.95,1.63,1.98
21.30993103981018,0.33,1.69,1.22,2.11
21.330023050308228,0.26,2.29,0.7,2.4
21.330389976501465,0.42,2.9,0.11,2.93
21.339844226837158,0.69,3.57,-0.27,3.64
21.349637031555176,0.98,4.03,0.13,4.14
21.35981798171997,0.94,4.03,1.3,4.33
21.379011154174805,0.7,3.86,2.39,4.59
21.379667043685913,0.5,3.9,2.67,4.75
21.38985824584961,-0.11,4.42,1.79,4.76
21.399659156799316,-1.24,5.12,0.05,5.26
21.409836053848267,-2.15,5.31,-2.05,6.08
21.428956985473633,-2.37,4.67,-3.95,6.55
21.429654121398926,-2.25,3.46,-5.13,6.58
21.439999103546143,-1.92,2.12,-5.0,5.76
21.44968605041504,-1.49,0.86,-3.7,4.08
21.459925174713135,-0.98,-0.21,-1.93,2.17
21.479516983032227,-0.39,-0.88,-0.21,0.98
21.47990608215332,-0.12,-1.0,1.05,1.45
21.489938259124756,-0.13,-0.66,1.54,1.68
21.499752044677734,-0.08,0.04,1.3,1.3
21.509888172149658,-0.11,0.79,0.36,0.87
21.53006911277771,-0.17,1.24,-0.91,1.54
21.530429124832153,-0.4,1.3,-1.84,2.28
21.53995418548584,-0.69,1.06,-2.11,2.46
21.549853086471558,-0.99,0.56,-2.02,2.31
21.559890031814575,-1.07,-0.06,-1.69,2.0
21.58033323287964,-0.83,-0.72,-1.15,1.59
21.58070206642151,-0.52,-1.4,-0.52,1.58
21.589956045150757,-0.11,-2.15,0.07,2.15
21.599849224090576,0.28,-2.96,0.5,3.01
21.60988211631775,0.72,-3.68,0.73,3.82
21.63153600692749,1.04,-4.19,0.81,4.39
21.632517099380493,1.05,-4.43,0.81,4.62
21.639914989471436,0.93,-4.39,0.71,4.54
21.64985203742981,0.71,-4.13,0.54,4.22
21.6599760055542,0.38,-3.72,0.38,3.75
21.681232929229736,0.1,-3.26,0.36,3.28
21.68160605430603,-0.14,-2.89,0.39,2.91
21.68993091583252,-0.4,-2.61,0.32,2.65
21.69975996017456,-0.46,-2.38,0.25,2.43
21.70999002456665,-0.36,-2.16,0.28,2.2
21.73088502883911,-0.45,-2.04,0.32,2.11
21.731253147125244,-0.66,-1.93,0.24,2.05
21.7398681640625,-0.61,-1.71,0.17,1.82
21.74976110458374,-0.49,-1.45,0.21,1.54
21.75997495651245,-0.44,-1.3,0.33,1.41
21.7812819480896,-0.58,-1.18,0.54,1.42
21.78166103363037,-0.67,-0.91,0.79,1.37
21.790019989013672,-0.73,-0.53,0.93,1.29
21.799778938293457,-0.78,-0.11,0.97,1.24
21.809907913208008,-0.93,0.29,0.98,1.38
21.83021593093872,-1.05,0.79,0.9,1.59
21.830565929412842,-0.96,1.3,0.72,1.76
21.839879989624023,-0.92,1.79,0.56,2.08
21.849706172943115,-1.18,2.21,0.63,2.58
21.85990309715271,-1.64,2.58,1.16,3.26
21.879648208618164,-1.94,2.94,2.33,4.22
21.879982948303223,-1.81,3.41,3.53,5.23
21.889869213104248,-1.11,4.11,3.98,5.82
21.8996901512146,-0.04,5.05,3.46,6.12
21.909990072250366,0.84,6.08,2.14,6.5
21.929112911224365,1.34,6.89,-0.12,7.02
21.929742097854614,1.57,7.0,-3.11,7.81
21.939865112304688,1.92,6.31,-5.78,8.76
21.949716091156006,2.1,4.84,-7.19,8.91
21.960012912750244,1.57,2.9,-6.99,7.72
21.979809045791626,1.01,1.0,-5.41,5.59
21.980189085006714,0.95,-0.62,-3.13,3.32
21.989919185638428,0.87,-1.68,-0.86,2.07
21.99998426437378,0.69,-1.95,1.12,2.35
22.010022163391113,0.43,-1.58,2.37,2.88
22.03050994873047,0.38,-0.88,2.43,2.61
22.03086805343628,0.64,-0.08,1.6,1.72
22.040088176727295,0.84,0.41,0.32,0.98
22.04991102218628,0.94,0.6,-0.98,1.48
22.059958934783936,1.02,0.54,-1.85,2.18
22.081013202667236,1.02,0.25,-2.33,2.55
22.0813889503479,0.88,-0.23,-2.29,2.46
22.089932918548584,0.6,-0.79,-1.73,1.99
22.10002899169922,0.15,-1.27,-1.03,1.64
22.110065937042236,-0.25,-1.72,-0.45,1.79
22.132188081741333,-0.38,-2.18,-0.02,2.21
22.132566928863525,-0.46,-2.72,0.27,2.77
22.13998317718506,-0.49,-3.27,0.4,3.33
22.150134086608887,-0.44,-3.72,0.44,3.77
22.16007423400879,-0.3,-3.92,0.39,3.95
22.181527137756348,-0.16,-3.8,0.21,3.8
22.181900024414062,0.0,-3.46,0.18,3.46
22.189962148666382,0.13,-3.12,0.28,3.13
22.200110912322998,0.24,-2.96,0.35,2.99
22.210090160369873,0.37,-2.78,0.3,2.82
22.23092007637024,0.48,-2.44,0.34,2.5
22.231260061264038,0.48,-2.13,0.43,2.22
22.23990511894226,0.38,-2.03,0.43,2.1
22.250153064727783,0.46,-2.05,0.42,2.14
22.260131120681763,0.62,-2.03,0.5,2.18
22.281511068344116,0.7,-1.98,0.63,2.19
22.28185510635376,0.8,-1.92,0.7,2.19
22.28995418548584,0.99,-1.7,0.73,2.09
22.300281047821045,1.14,-1.37,0.85,1.97
22.310115098953247,1.17,-0.93,1.09,1.84
22.331552982330322,1.14,-0.38,1.3,1.77
22.33191704750061,1.07,0.31,1.21,1.64
22.339967250823975,0.9,1.1,0.86,1.66
22.350287914276123,0.54,1.77,0.36,1.88
22.35991621017456,0.12,2.38,-0.27,2.39
22.38092803955078,-0.14,3.05,-0.75,3.14
22.38129425048828,-0.05,3.61,-0.79,3.69
22.38995599746704,0.32,3.91,0.06,3.92
22.40041708946228,0.43,3.95,1.41,4.21
22.40995693206787,0.38,4.0,2.47,4.71
22.430278062820435,0.24,4.36,2.71,5.13
22.43064022064209,-0.22,5.03,1.84,5.36
22.439960956573486,-0.97,5.55,-0.04,5.63
22.45058012008667,-1.6,5.54,-2.44,6.26
22.460151195526123,-1.88,4.96,-4.5,6.95
22.480759143829346,-2.06,4.01,-5.46,7.08
22.481131076812744,-2.24,2.82,-5.06,6.21
22.49001121520996,-2.2,1.53,-3.64,4.52
22.50062108039856,-1.81,0.52,-1.94,2.7
22.510108947753906,-1.42,-0.02,-0.64,1.55
22.53142809867859,-0.96,-0.04,0.24,0.99
22.53181004524231,-0.54,0.26,0.68,0.9
22.540065050125122,-0.14,0.63,0.55,0.84
22.5500590801239,0.15,0.89,0.04,0.9
22.565377235412598,0.19,0.93,-0.59,1.11
22.569897174835205,0.07,0.77,-1.08,1.32
22.579981088638306,-0.13,0.51,-1.21,1.31
22.58998703956604,-0.28,0.05,-0.99,1.03
22.600080013275146,-0.26,-0.6,-0.67,0.93
22.616603136062622,-0.2,-1.32,-0.38,1.38
22.6199312210083,-0.19,-2.0,-0.18,2.01
22.629947185516357,-0.07,-2.7,-0.09,2.7
22.640064239501953,0.2,-3.38,-0.06,3.38
22.650028228759766,0.48,-3.98,0.02,4.0
22.665704250335693,0.72,-4.49,0.17,4.55
22.6699640750885,0.84,-4.81,0.31,4.89
22.68003225326538,0.75,-4.91,0.46,4.98
22.69001293182373,0.68,-4.8,0.61,4.88
22.70009708404541,0.65,-4.46,0.68,4.55
22.71565294265747,0.5,-3.98,0.65,4.06
22.719877243041992,0.33,-3.41,0.58,3.47
22.730046033859253,0.1,-2.86,0.48,2.9
22.740031242370605,-0.14,-2.36,0.36,2.39
22.75008726119995,-0.26,-2.02,0.1,2.03
22.765605926513672,-0.51,-1.84,-0.29,1.93
22.769927978515625,-0.81,-1.67,-0.49,1.91
22.780055046081543,-1.01,-1.53,-0.35,1.86
22.790046215057373,-1.09,-1.49,0.12,1.85
22.800055980682373,-1.11,-1.55,0.71,2.03
22.815714120864868,-1.04,-1.55,1.28,2.26
22.82004404067993,-0.76,-1.24,1.71,2.24
22.830102920532227,-0.45,-0.62,1.85,2.0
22.84011220932007,-0.33,0.17,1.56,1.6
22.850111961364746,-0.31,1.04,1.16,1.58
22.86630392074585,-0.48,1.79,0.64,1.96
22.870005130767822,-0.5,2.47,0.25,2.53
22.880059242248535,-0.73,3.05,0.06,3.13
22.890146255493164,-1.25,3.42,0.22,3.64
22.90006399154663,-1.93,3.47,0.83,4.05
22.91590905189514,-2.36,3.5,2.05,4.69
22.919940948486328,-2.27,3.79,3.51,5.64
22.930063247680664,-1.51,4.35,4.06,6.13
22.940083026885986,-0.24,5.21,3.2,6.11
22.95010209083557,0.83,6.02,1.51,6.26
22.966694116592407,1.41,6.31,-0.63,6.49
22.970119953155518,1.9,5.77,-2.99,6.77
22.980041980743408,2.06,4.56,-5.02,7.08
22.99015998840332,1.89,3.08,-5.8,6.83
23.000150203704834,1.46,1.43,-5.24,5.62
23.01820707321167,1.31,-0.08,-3.9,4.11
23.02014398574829,1.43,-1.22,-2.29,2.96
23.030060052871704,1.49,-1.82,-0.67,2.44
23.040029048919678,1.54,-1.92,0.64,2.54
23.050118923187256,1.52,-1.49,1.32,2.5
23.067588090896606,1.46,-0.6,1.27,2.02
23.070037126541138,1.33,0.41,0.6,1.51
23.080101013183594,1.02,1.18,-0.45,1.62
23.09012794494629,0.69,1.5,-1.56,2.27
23.10018014907837,0.42,1.52,-2.2,2.7
23.117406129837036,0.06,1.23,-2.3,2.6
23.120180130004883,-0.39,0.56,-2.02,2.13
23.130136966705322,-0.59,-0.2,-1.44,1.56
23.14021921157837,-0.64,-0.89,-0.7,1.3
23.15010905265808,-0.67,-1.57,-0.04,1.7
23.166682243347168,-0.63,-2.22,0.37,2.33
23.170128107070923,-0.63,-2.84,0.45,2.94
23.1800799369812,-0.31,-3.33,0.28,3.35
23.190107107162476,0.08,-3.62,0.14,3.62
23.20015811920166,0.21,-3.82,0.05,3.82
23.216969966888428,0.25,-3.82,0.02,3.82
23.220166206359863,0.2,-3.6,0.11,3.6
23.23003101348877,0.12,-3.27,0.31,3.28
23.240242958068848,0.06,-2.93,0.51,2.97
23.2501540184021,0.12,-2.61,0.6,2.68
23.26732301712036,0.24,-2.39,0.65,2.48
23.27018904685974,0.35,-2.31,0.69,2.43
23.280100107192993,0.46,-2.28,0.7,2.42
23.290180206298828,0.54,-2.22,0.65,2.37
23.300101041793823,0.61,-2.11,0.61,2.27
23.316679000854492,0.66,-1.93,0.53,2.1
23.32006025314331,0.82,-1.65,0.51,1.91
23.330106258392334,0.91,-1.4,0.48,1.73
23.340192079544067,1.02,-1.09,0.51,1.57
23.350157260894775,1.12,-0.74,0.71,1.51
23.365698099136353,1.09,-0.42,1.01,1.54
23.370079040527344,0.93,-0.06,1.34,1.63
23.38010811805725,0.67,0.46,1.46,1.67
23.390203952789307,0.37,1.07,1.25,1.68
23.400110244750977,0.1,1.64,0.74,1.8
23.41592812538147,0.07,2.18,0.2,2.19
23.42000102996826,0.26,2.74,-0.12,2.75
23.430122137069702,0.51,3.22,0.1,3.26
23.440210103988647,0.79,3.48,1.05,3.71
23.450150966644287,0.87,3.65,2.31,4.4
23.46657419204712,0.77,4.04,3.23,5.22
23.4699969291687,0.48,4.87,3.03,5.75
23.480318069458008,-0.15,5.92,1.42,6.08
23.49029016494751,-1.18,6.53,-1.14,6.73
23.500205039978027,-1.66,6.47,-3.79,7.67
23.517343997955322,-1.84,5.59,-5.65,8.15
23.52002716064453,-1.94,4.11,-6.17,7.66
23.530102252960205,-2.02,2.32,-5.26,6.09
23.540229082107544,-1.91,0.73,-3.62,4.15
23.550194263458252,-1.48,-0.37,-1.92,2.45
23.567005157470703,-1.1,-0.9,-0.39,1.47
23.570123195648193,-0.87,-0.82,0.86,1.47
23.58010196685791,-0.69,-0.45,1.42,1.64
23.590198040008545,-0.33,-0.01,1.16,1.2
23.600200176239014,-0.12,0.32,0.37,0.5
23.616578102111816,-0.17,0.44,-0.56,0.73
23.620028018951416,-0.08,0.4,-1.37,1.42
23.63015604019165,-0.06,0.15,-1.89,1.89
23.640244007110596,-0.13,-0.36,-1.91,1.94
23.65015697479248,-0.16,-1.01,-1.52,1.83
23.66649103164673,-0.09,-1.73,-0.93,1.96
23.670093059539795,0.1,-2.49,-0.41,2.52
23.680192947387695,0.26,-3.18,-0.05,3.19
23.690213203430176,0.39,-3.84,0.24,3.86
23.700243949890137,0.58,-4.37,0.53,4.44
23.71721601486206,0.73,-4.75,0.7,4.85
23.720065116882324,0.75,-5.03,0.65,5.12
23.73065423965454,0.69,-5.04,0.6,5.12
23.74026393890381,0.5,-4.74,0.61,4.8
23.75023317337036,0.34,-4.2,0.63,4.26
23.766611099243164,0.22,-3.62,0.67,3.68
23.77009391784668,-0.11,-3.1,0.63,3.16
23.780225038528442,-0.42,-2.58,0.56,2.67
23.790271043777466,-0.65,-2.05,0.44,2.19
23.80012798309326,-0.95,-1.53,0.24,1.81
23.81744408607483,-1.14,-1.11,-0.01,1.59
23.820061206817627,-1.26,-0.85,-0.1,1.52
23.830238103866577,-1.36,-0.72,0.14,1.54
23.84030294418335,-1.41,-0.66,0.56,1.65
23.85018301010132,-1.28,-0.59,1.09,1.78
23.867615222930908,-1.06,-0.38,1.49,1.86
23.870060920715332,-0.84,-0.07,1.76,1.95
23.880324125289917,-0.58,0.37,1.95,2.06
23.890308141708374,-0.42,0.98,1.79,2.08
23.90026092529297,-0.31,1.6,1.25,2.05
23.918074131011963,-0.28,2.14,0.64,2.25
23.920112133026123,-0.32,2.68,0.27,2.71
23.930253982543945,-0.52,3.09,0.28,3.14
23.940158128738403,-1.0,3.27,0.66,3.48
23.950382232666016,-1.17,3.43,1.69,3.99
23.968326091766357,-0.95,3.6,2.84,4.68
23.970115184783936,-0.43,3.87,3.15,5.0
23.98106813430786,0.36,4.38,2.31,4.96
23.990067958831787,1.27,5.1,0.94,5.33
24.000275135040283,1.47,5.65,-0.71,5.88
24.018415927886963,1.17,5.47,-2.63,6.18
24.020089149475098,1.09,4.5,-4.29,6.31
24.03038501739502,1.17,3.17,-5.06,6.08
24.0403311252594,1.03,1.71,-4.91,5.3
24.050288200378418,1.05,0.33,-4.1,4.24
24.068331241607666,1.24,-0.85,-2.9,3.26
24.07010793685913,1.26,-1.73,-1.48,2.6
24.080239057540894,1.1,-2.1,-0.05,2.37
24.090238094329834,1.02,-1.92,0.96,2.37
24.100272178649902,0.93,-1.36,1.31,2.1
24.118147134780884,0.59,-0.66,0.99,1.32
24.1203191280365,0.37,-0.02,0.29,0.47
24.13037919998169,0.24,0.41,-0.57,0.74
24.140218257904053,0.12,0.66,-1.34,1.49
24.15034294128418,-0.13,0.7,-1.77,1.9
24.167935132980347,-0.26,0.56,-1.75,1.85
24.170294046401978,-0.35,0.24,-1.37,1.43
24.180376052856445,-0.52,-0.17,-0.82,0.98
24.19032907485962,-0.47,-0.67,-0.42,0.91
24.200452089309692,-0.24,-1.19,-0.24,1.23
24.21881413459778,-0.09,-1.66,-0.17,1.67
24.220366954803467,0.05,-2.16,-0.05,2.16
24.230310916900635,0.17,-2.6,0.05,2.6
24.240188121795654,0.29,-2.95,0.2,2.97
24.25028705596924,0.41,-3.15,0.34,3.19
24.269045114517212,0.39,-3.14,0.47,3.19
24.27037811279297,0.35,-2.97,0.63,3.05
24.28043508529663,0.32,-2.77,0.71,2.87
24.290223121643066,0.16,-2.72,0.67,2.8
24.30033826828003,0.11,-2.67,0.71,2.76
24.319180011749268,0.08,-2.56,0.67,2.64
24.32066297531128,0.13,-2.47,0.55,2.53
24.33032512664795,0.33,-2.47,0.46,2.53
24.340439081192017,0.66,-2.44,0.39,2.55
24.35027813911438,0.83,-2.35,0.39,2.52
24.368767261505127,0.88,-2.18,0.43,2.38
24.37075424194336,0.98,-1.89,0.58,2.2
24.380425930023193,1.09,-1.49,0.8,2.01
24.39045524597168,1.09,-1.04,1.05,1.83
24.400207042694092,0.97,-0.49,1.24,1.64
24.41866111755371,0.78,0.11,1.12,1.36
24.420769214630127,0.5,0.72,0.7,1.12
24.430356979370117,0.21,1.27,0.16,1.29
24.440195083618164,0.08,1.85,-0.18,1.86
24.45028591156006,0.07,2.44,-0.18,2.44
24.468382120132446,0.12,2.87,0.34,2.89
24.470936059951782,0.22,3.12,1.39,3.42
24.480377197265625,0.36,3.26,2.45,4.09
24.4903621673584,0.39,3.6,2.74,4.54
24.50030517578125,0.54,4.27,2.41,4.93
24.518474102020264,0.4,5.23,1.18,5.37
24.520220041275024,-0.15,6.13,-0.86,6.19
24.530368089675903,-0.87,6.41,-3.11,7.17
24.540152072906494,-1.14,5.96,-4.94,7.82
24.550340175628662,-1.19,4.76,-5.69,7.51
24.568855047225952,-1.51,3.07,-5.13,6.16
24.57025718688965,-1.76,1.41,-3.53,4.18
24.58038902282715,-1.59,0.24,-1.77,2.39
24.59023094177246,-1.29,-0.46,-0.41,1.42
24.60031008720398,-1.27,-0.71,0.5,1.53
24.618914127349854,-1.26,-0.53,0.89,1.63
24.620243072509766,-0.92,0.03,0.73,1.17
24.630359172821045,-0.6,0.6,0.05,0.85
24.640159130096436,-0.49,0.91,-0.79,1.3
24.650368213653564,-0.42,0.92,-1.47,1.78
24.668889045715332,-0.41,0.76,-1.75,1.95
24.670268058776855,-0.48,0.39,-1.71,1.81
24.680405139923096,-0.56,-0.19,-1.45,1.56
24.690237045288086,-0.38,-0.87,-1.07,1.43
24.70036792755127,-0.14,-1.63,-0.61,1.74
24.719862937927246,0.04,-2.47,-0.19,2.47
24.720345973968506,0.24,-3.29,0.13,3.3
24.730457067489624,0.34,-3.93,0.32,3.95
24.740358114242554,0.43,-4.46,0.41,4.49
24.750397205352783,0.56,-4.77,0.53,4.83
24.76897096633911,0.48,-4.82,0.66,4.88
24.770298957824707,0.41,-4.62,0.7,4.69
24.78041696548462,0.35,-4.24,0.66,4.3
24.79020404815674,0.27,-3.71,0.64,3.77
24.800340175628662,0.15,-3.14,0.6,3.2
24.818618059158325,-0.01,-2.64,0.57,2.7
24.82031011581421,-0.13,-2.3,0.48,2.35
24.830368041992188,-0.3,-2.04,0.2,2.07
24.840216159820557,-0.5,-1.77,-0.18,1.84
24.85039520263672,-0.77,-1.51,-0.32,1.72
24.868741035461426,-1.14,-1.37,-0.27,1.8
24.870298147201538,-1.29,-1.32,0.03,1.84
24.880388259887695,-1.43,-1.33,0.46,2.0
24.890188217163086,-1.42,-1.36,0.93,2.17
24.90042495727539,-1.47,-1.02,1.29,2.2
24.9188871383667,-1.36,-0.32,1.79,2.27
24.920284032821655,-0.92,0.26,2.12,2.32
24.93034315109253,-0.67,0.68,1.71,1.95
24.940216064453125,-0.54,1.25,0.91,1.63
24.950404167175293,-0.41,1.98,0.39,2.05
24.96897792816162,-0.44,2.53,0.11,2.57
24.97020721435547,-0.91,2.78,0.03,2.92
24.98045301437378,-1.39,2.89,0.71,3.28
24.99056100845337,-1.57,3.22,2.18,4.19
25.000433921813965,-1.23,3.86,3.55,5.38
25.01897096633911,-0.61,4.6,3.53,5.83
25.02020812034607,0.29,5.42,2.26,5.87
25.030405044555664,1.04,6.27,0.49,6.37
25.04021906852722,1.18,6.61,-1.3,6.83
25.0503990650177,0.87,6.1,-3.21,6.94
25.069406032562256,0.63,4.72,-4.61,6.62
25.070216178894043,0.51,3.01,-4.74,5.63
25.080417156219482,0.32,1.51,-3.72,4.02
25.090278148651123,0.43,0.28,-2.53,2.58
25.100462913513184,0.72,-0.72,-1.64,1.93
25.119678020477295,1.16,-1.38,-0.89,2.01
25.120237112045288,1.49,-1.59,-0.22,2.19
25.130445957183838,1.65,-1.27,-0.03,2.08
25.14024591445923,1.82,-0.62,-0.27,1.94
25.150464057922363,1.54,0.07,-0.81,1.74
25.169219970703125,1.09,0.62,-1.3,1.8
25.170234203338623,0.61,0.9,-1.63,1.95
25.18045425415039,0.08,0.91,-1.77,1.99
25.190285205841064,-0.57,0.7,-1.69,1.91
25.200488090515137,-1.08,0.43,-1.46,1.86
25.21991491317749,-1.22,0.08,-1.02,1.59
25.22029709815979,-1.25,-0.4,-0.55,1.42
25.230370044708252,-1.1,-1.02,-0.21,1.51
25.24026918411255,-0.74,-1.68,-0.02,1.83
25.250364065170288,-0.26,-2.33,0.02,2.34
25.268868923187256,0.27,-2.91,-0.13,2.92
25.270286083221436,0.68,-3.38,-0.19,3.45
25.28044605255127,0.86,-3.73,-0.05,3.82
25.290252208709717,0.77,-3.91,0.14,3.98
25.300414085388184,0.62,-3.89,0.31,3.95
25.31940793991089,0.4,-3.67,0.5,3.72
25.320204257965088,0.21,-3.37,0.74,3.45
25.330552101135254,0.08,-3.15,0.95,3.29
25.340385913848877,0.08,-3.03,1.05,3.2
25.350478172302246,0.02,-2.87,0.96,3.02
25.370604038238525,0.14,-2.67,0.85,2.8
25.370978116989136,0.37,-2.45,0.71,2.57
25.380544185638428,0.59,-2.22,0.56,2.36
25.390424251556396,0.91,-1.96,0.41,2.19
25.400466918945312,1.18,-1.71,0.26,2.09
25.419774055480957,1.34,-1.4,0.28,1.95
25.420318126678467,1.46,-1.06,0.45,1.85
25.43058204650879,1.38,-0.69,0.65,1.67
25.440436124801636,1.11,-0.17,0.78,1.36
25.450489044189453,0.89,0.46,0.82,1.29
25.470701217651367,0.54,1.13,0.61,1.39
25.471065044403076,0.08,1.78,0.22,1.79
25.48055601119995,-0.15,2.39,-0.19,2.4
25.490406036376953,-0.08,3.0,-0.49,3.04
25.50047206878662,0.02,3.36,-0.75,3.44
25.51992893218994,0.22,3.44,-0.66,3.5
25.520469188690186,0.59,3.41,0.22,3.46
25.530588150024414,0.84,3.39,1.68,3.87
25.540399074554443,0.68,3.37,2.68,4.35
25.55067205429077,0.36,3.48,2.74,4.44
25.570300102233887,-0.09,3.95,2.02,4.43
25.57068395614624,-1.02,4.51,0.68,4.67
25.580600261688232,-2.04,4.59,-1.02,5.12
25.59039306640625,-2.6,3.94,-2.87,5.52
25.600601196289062,-2.42,2.93,-4.07,5.56
25.62034797668457,-1.97,1.93,-4.11,4.94
25.62073516845703,-1.68,0.89,-3.1,3.63
25.63060998916626,-1.58,-0.09,-1.82,2.41
25.640428066253662,-1.29,-0.78,-0.77,1.69
25.650568962097168,-0.77,-0.96,-0.13,1.23
25.67012310028076,-0.35,-0.61,0.03,0.7
25.670464992523193,0.05,0.06,-0.16,0.17
25.680665969848633,0.35,0.75,-0.67,1.06
25.690338134765625,0.37,1.2,-1.4,1.88
25.70066499710083,0.24,1.53,-1.95,2.49
25.72057604789734,0.07,1.67,-2.13,2.7
25.7209529876709,-0.33,1.37,-2.11,2.53
25.730727195739746,-0.59,0.7,-1.8,2.01
25.740472078323364,-0.51,-0.17,-1.17,1.28
25.75064992904663,-0.42,-1.09,-0.35,1.21
25.76971197128296,-0.47,-1.9,0.35,1.98
25.77041721343994,-0.29,-2.64,0.67,2.73
25.780667066574097,0.17,-3.26,0.67,3.33
25.790455102920532,0.58,-3.73,0.6,3.82
25.800681114196777,0.85,-3.97,0.62,4.1
25.820224046707153,0.89,-4.0,0.61,4.14
25.820600986480713,0.75,-3.91,0.56,4.02
25.83065700531006,0.44,-3.62,0.52,3.68
25.84049105644226,0.24,-3.16,0.53,3.21
25.850666999816895,0.04,-2.78,0.5,2.82
25.86968421936035,-0.19,-2.54,0.48,2.59
25.870386123657227,-0.44,-2.32,0.52,2.41
25.880671977996826,-0.71,-2.05,0.48,2.22
25.890422105789185,-0.8,-1.76,0.41,1.97
25.90069007873535,-0.87,-1.59,0.13,1.81
25.919785022735596,-0.79,-1.55,-0.07,1.74
25.920392990112305,-0.7,-1.55,0.0,1.7
25.93057107925415,-0.55,-1.57,0.24,1.68
25.94051218032837,-0.46,-1.59,0.54,1.74
25.950695991516113,-0.46,-1.47,0.92,1.79
25.970561027526855,-0.46,-1.1,1.23,1.71
25.970941066741943,-0.48,-0.55,1.31,1.49
25.980699062347412,-0.56,0.11,1.13,1.26
25.990517139434814,-0.58,0.71,0.92,1.29
26.000669956207275,-0.56,1.13,0.81,1.49
26.0208580493927,-0.58,1.63,0.75,1.88
26.02122402191162,-0.79,2.21,0.84,2.49
26.03058099746704,-1.18,2.74,1.2,3.21
26.04045605659485,-1.44,3.2,1.87,3.97
26.05068016052246,-1.39,3.55,2.54,4.58
26.070981979370117,-0.97,3.88,2.7,4.82
26.07136297225952,-0.23,4.46,2.14,4.95
26.08065104484558,0.52,5.37,1.14,5.51
26.090617179870605,0.95,6.18,-0.11,6.25
26.100605964660645,1.0,6.39,-1.57,6.65
26.120347023010254,1.03,5.95,-3.16,6.81
26.12071704864502,1.22,5.01,-4.35,6.74
26.130688190460205,1.16,3.59,-4.83,6.12
26.14046001434326,0.87,1.91,-4.6,5.05
26.150722980499268,0.81,0.28,-3.81,3.9
26.171394109725952,1.15,-0.93,-2.62,3.0
26.171772003173828,1.53,-1.68,-1.08,2.51
26.180612087249756,1.57,-2.13,0.47,2.68
26.190546989440918,1.4,-2.22,1.64,3.09
26.20060396194458,1.29,-1.92,2.14,3.15
26.22109317779541,1.27,-1.22,1.8,2.51
26.221458911895752,1.09,-0.39,0.66,1.33
26.2306489944458,0.87,0.26,-0.63,1.1
26.24048614501953,0.59,0.63,-1.69,1.89
26.250705242156982,0.24,0.78,-2.43,2.56
26.2713942527771,-0.05,0.76,-2.64,2.74
26.271767139434814,-0.31,0.42,-2.35,2.4
26.28061294555664,-0.59,-0.16,-1.8,1.9
26.29050922393799,-0.77,-0.8,-1.12,1.57
26.300634145736694,-0.74,-1.45,-0.52,1.7
26.32181692123413,-0.67,-2.17,-0.2,2.27
26.32218909263611,-0.56,-2.84,-0.07,2.89
26.33060121536255,-0.39,-3.43,0.02,3.45
26.340557098388672,-0.2,-3.87,0.16,3.87
26.350621223449707,0.07,-4.13,0.27,4.13
26.37139105796814,0.32,-4.19,0.29,4.21
26.371755123138428,0.45,-3.97,0.45,4.02
26.38054895401001,0.61,-3.59,0.72,3.71
26.390505075454712,0.69,-3.21,0.94,3.41
26.400607109069824,0.68,-2.85,1.11,3.13
26.421914100646973,0.55,-2.55,1.2,2.87
26.422279119491577,0.44,-2.2,1.23,2.55
26.430563926696777,0.39,-1.82,1.14,2.18
26.440535068511963,0.43,-1.5,0.93,1.81
26.450695991516113,0.47,-1.23,0.45,1.39
26.471691131591797,0.69,-0.87,-0.06,1.11
26.472055912017822,0.89,-0.55,-0.51,1.16
26.480576038360596,0.96,-0.36,-0.71,1.24
26.49056625366211,1.02,-0.22,-0.43,1.12
26.50066900253296,1.22,-0.04,0.17,1.23
26.521878242492676,1.31,0.22,0.6,1.45
26.522232055664062,1.2,0.63,0.73,1.53
26.5307559967041,0.95,1.18,0.64,1.64
26.54069709777832,0.6,1.77,0.34,1.89
26.550742149353027,0.26,2.27,0.0,2.28
26.571104049682617,0.07,2.78,-0.03,2.78
26.57146406173706,0.04,3.25,0.34,3.26
26.58072519302368,0.17,3.56,1.08,3.72
26.590781211853027,0.33,3.81,1.86,4.25
26.600693225860596,0.43,4.16,2.43,4.83
26.621060132980347,0.36,4.65,2.48,5.28
26.621435165405273,-0.01,5.2,1.67,5.46
26.63073706626892,-0.65,5.55,0.02,5.58
26.64085292816162,-1.17,5.4,-1.89,5.83
26.650805950164795,-1.22,4.7,-3.51,5.99
26.67180299758911,-1.12,3.56,-4.47,5.82
26.672210216522217,-1.13,2.19,-4.51,5.13
26.680633068084717,-1.09,0.84,-3.63,3.88
26.690943241119385,-1.04,-0.28,-2.35,2.58
26.700745105743408,-0.94,-1.04,-1.05,1.75
26.722145080566406,-0.89,-1.38,0.14,1.64
26.722520112991333,-0.93,-1.49,0.94,1.99
26.73070001602173,-1.01,-1.36,1.21,2.08
26.740983963012695,-1.09,-0.93,0.98,1.73
26.750802040100098,-1.08,-0.39,0.26,1.17
26.77224826812744,-0.95,0.04,-0.7,1.18
26.772627115249634,-0.93,0.31,-1.37,1.68
26.78075408935547,-0.91,0.42,-1.76,2.02
26.791025161743164,-0.76,0.25,-1.84,2.0
26.800856113433838,-0.48,-0.24,-1.57,1.65
26.821985244750977,-0.09,-0.89,-1.08,1.4
26.822367191314697,0.25,-1.66,-0.6,1.78
26.83075213432312,0.54,-2.37,-0.17,2.43
26.841179132461548,0.8,-2.97,0.15,3.07
26.85088014602661,1.05,-3.6,0.4,3.77
26.872519969940186,1.12,-4.15,0.59,4.33
26.872890949249268,1.04,-4.46,0.7,4.63
26.880742073059082,0.86,-4.44,0.71,4.57
26.891101121902466,0.61,-4.12,0.66,4.21
26.900800228118896,0.39,-3.54,0.62,3.61
26.923044204711914,0.05,-2.96,0.57,3.01
26.923421144485474,-0.22,-2.43,0.58,2.5
26.930671215057373,-0.5,-1.94,0.55,2.07
26.941086053848267,-0.88,-1.47,0.44,1.76
26.950817108154297,-1.02,-1.1,0.4,1.55
26.97277021408081,-1.1,-0.88,0.3,1.44
26.97316026687622,-1.25,-0.79,0.16,1.48
26.980759143829346,-1.33,-0.84,0.17,1.58
26.991207122802734,-1.16,-0.96,0.36,1.54
27.000874996185303,-0.82,-1.2,0.71,1.61
27.02278208732605,-0.56,-1.35,1.09,1.82
27.023147106170654,-0.31,-1.23,1.45,1.92
27.03073215484619,-0.03,-0.78,1.63,1.8
27.040666103363037,0.17,-0.18,1.62,1.63
27.050902128219604,0.1,0.42,1.4,1.46
27.072676181793213,-0.17,0.94,1.04,1.41
27.07303810119629,-0.36,1.53,0.61,1.68
27.080727100372314,-0.53,2.05,0.42,2.15
27.090656042099,-0.99,2.45,0.37,2.66
27.10080313682556,-1.69,2.79,0.74,3.34
27.12135410308838,-2.05,3.19,1.62,4.12
27.121743202209473,-1.82,3.58,2.43,4.69
27.130785942077637,-1.09,4.04,2.52,4.88
27.140775203704834,-0.02,4.72,1.94,5.1
27.15077805519104,0.87,5.41,0.83,5.54
27.17196226119995,1.14,5.65,-0.63,5.79
27.172325134277344,1.21,5.22,-2.15,5.77
27.18073010444641,1.38,4.32,-3.53,5.74
27.190753936767578,1.39,3.22,-4.42,5.64
27.200820922851562,1.05,2.01,-4.53,5.06
27.222750186920166,0.62,0.73,-3.99,4.1
27.223117113113403,0.54,-0.35,-2.98,3.04
27.230789184570312,0.66,-1.1,-1.79,2.2
27.24081802368164,0.65,-1.48,-0.58,1.71
27.250848054885864,0.57,-1.65,0.6,1.84
27.273340225219727,0.53,-1.49,1.4,2.11
27.273701190948486,0.58,-0.93,1.59,1.93
27.280789136886597,0.66,-0.25,1.08,1.29
27.290735244750977,0.67,0.4,0.13,0.79
27.300875186920166,0.63,0.98,-0.9,1.47
27.32254409790039,0.5,1.26,-1.74,2.2
27.322912216186523,0.34,1.15,-2.19,2.49
27.33084201812744,0.12,0.69,-2.16,2.27
27.340765953063965,-0.13,0.0,-1.67,1.67
27.350903034210205,-0.29,-0.68,-1.02,1.25
27.372578144073486,-0.39,-1.3,-0.43,1.42
27.372940063476562,-0.42,-1.93,-0.1,1.97
27.380929946899414,-0.39,-2.42,0.02,2.45
27.390807151794434,-0.25,-2.77,0.05,2.78
27.400789260864258,-0.1,-3.06,-0.03,3.06
27.423532009124756,0.08,-3.13,-0.26,3.14
27.423899173736572,0.4,-3.03,-0.36,3.07
27.43082094192505,0.65,-2.75,-0.14,2.82
27.44081711769104,0.78,-2.49,0.21,2.61
27.45082712173462,0.87,-2.39,0.64,2.62
27.475097179412842,0.84,-2.37,0.93,2.68
27.47618007659912,0.87,-2.33,0.98,2.67
27.48069405555725,0.76,-2.23,0.78,2.48
27.49084997177124,0.73,-2.07,0.63,2.28
27.500867128372192,0.66,-1.99,0.58,2.17
27.522942066192627,0.65,-1.89,0.5,2.06
27.523303031921387,0.83,-1.6,0.44,1.85
27.53081512451172,0.9,-1.31,0.41,1.64
27.540744066238403,0.97,-1.04,0.45,1.49
27.550892114639282,0.99,-0.78,0.59,1.39
27.5723819732666,0.99,-0.47,0.74,1.32
27.57275414466858,0.93,-0.07,0.76,1.2
27.58086395263672,0.82,0.31,0.69,1.11
27.59077024459839,0.67,0.7,0.56,1.11
27.60090708732605,0.32,1.16,0.31,1.24
27.623109102249146,0.01,1.58,-0.03,1.58
27.6234769821167,-0.21,1.93,-0.3,1.96
27.63081121444702,-0.28,2.22,-0.33,2.26
27.640875101089478,-0.16,2.5,-0.01,2.5
27.650938034057617,0.18,2.83,0.7,2.92
27.67474913597107,0.5,3.13,1.42,3.47
27.675783157348633,0.67,3.43,1.77,3.91
27.680840015411377,0.8,3.96,1.87,4.45
27.690892219543457,0.47,4.59,1.4,4.82
27.700889110565186,-0.44,5.09,0.18,5.11
27.72449803352356,-1.31,5.25,-1.41,5.59
27.724902153015137,-1.77,4.91,-2.73,5.89
27.730841159820557,-1.94,4.03,-3.7,5.8
27.740859985351562,-2.02,2.8,-4.11,5.36
27.750951051712036,-1.96,1.54,-3.72,4.47
27.77426505088806,-1.81,0.54,-2.68,3.27
27.774653911590576,-1.51,-0.26,-1.5,2.14
27.780867099761963,-1.09,-0.95,-0.61,1.56
27.790759086608887,-0.7,-1.4,0.02,1.56
27.80090093612671,-0.13,-1.39,0.44,1.46
27.82425022125244,0.05,-1.13,0.48,1.22
27.824646949768066,0.19,-0.58,0.18,0.63
27.830971240997314,0.52,0.03,-0.49,0.71
27.840775966644287,0.66,0.45,-1.31,1.53
27.850955963134766,0.43,0.73,-1.89,2.07
27.87431001663208,0.02,0.9,-2.08,2.26
27.874698162078857,-0.26,0.74,-1.87,2.02
27.880845069885254,-0.46,0.19,-1.34,1.42
27.890871047973633,-0.65,-0.68,-0.68,1.16
27.900947093963623,-0.69,-1.62,-0.03,1.76
27.923792123794556,-0.53,-2.43,0.41,2.52
27.924166202545166,-0.22,-3.03,0.39,3.06
27.930857181549072,0.1,-3.45,0.29,3.46
27.9408221244812,0.39,-3.72,0.41,3.76
27.950953006744385,0.52,-3.84,0.49,3.9
27.973701000213623,0.55,-3.79,0.6,3.87
27.97407293319702,0.4,-3.56,0.65,3.64
27.980911254882812,0.15,-3.25,0.6,3.3
27.990928173065186,-0.08,-2.9,0.52,2.94
28.001001119613647,-0.3,-2.53,0.45,2.58
28.02352213859558,-0.59,-2.24,0.42,2.35
28.023913145065308,-0.78,-1.96,0.41,2.14
28.030976057052612,-0.81,-1.7,0.54,1.95
28.040842056274414,-0.81,-1.61,0.65,1.91
28.05097508430481,-0.74,-1.65,0.71,1.94
28.07406997680664,-0.71,-1.61,0.87,1.96
28.074446201324463,-0.78,-1.54,1.04,2.01
28.080968141555786,-0.72,-1.5,1.13,2.01
28.090854167938232,-0.64,-1.45,1.11,1.93
28.10091495513916,-0.68,-1.25,1.12,1.81
28.123589992523193,-0.81,-0.84,1.08,1.59
28.12393093109131,-0.87,-0.16,0.88,1.24
28.130900144577026,-0.72,0.65,0.45,1.06
28.140862941741943,-0.49,1.44,-0.02,1.52
28.1509370803833,-0.45,2.12,-0.33,2.19
28.1737060546875,-0.59,2.54,-0.29,2.62
28.174053192138672,-1.11,2.65,0.0,2.87
28.18101406097412,-1.63,2.59,0.59,3.11
28.190842151641846,-1.66,2.61,1.37,3.38
28.201003074645996,-1.19,2.93,2.08,3.78
28.224156141281128,-0.49,3.46,2.52,4.3
28.224492073059082,0.22,3.96,2.37,4.62
28.23091697692871,1.02,4.48,1.73,4.9
28.240955114364624,1.35,4.87,0.81,5.11
28.250951051712036,1.12,4.79,-0.36,4.93
28.273714065551758,0.88,4.34,-1.8,4.78
28.274043083190918,0.89,3.64,-3.28,4.97
28.280848026275635,1.08,2.79,-4.46,5.37
28.29090404510498,1.0,1.69,-4.99,5.36
28.30091094970703,0.84,0.49,-4.66,4.76
28.32357692718506,0.82,-0.63,-3.54,3.68
28.32394814491272,0.77,-1.62,-2.1,2.76
28.33093810081482,0.65,-2.35,-0.76,2.55
28.340963125228882,0.55,-2.6,0.33,2.67
28.35093402862549,0.39,-2.36,1.1,2.63
28.37381410598755,0.38,-1.62,1.19,2.04
28.37418794631958,0.49,-0.64,0.4,0.89
28.380953073501587,0.5,0.24,-0.69,0.88
28.390953063964844,0.25,0.88,-1.49,1.74
28.400994062423706,0.01,1.24,-1.93,2.29
28.424328088760376,-0.25,1.36,-2.11,2.52
28.42470908164978,-0.52,1.27,-1.94,2.37
28.43099808692932,-0.65,0.9,-1.55,1.9
28.440880060195923,-0.6,0.34,-1.1,1.29
28.450951099395752,-0.48,-0.24,-0.7,0.88
28.473522186279297,-0.34,-0.81,-0.38,0.95
28.473875999450684,-0.14,-1.37,-0.19,1.39
28.48097515106201,0.07,-1.89,-0.06,1.89
28.49094295501709,0.27,-2.34,0.17,2.36
28.50096106529236,0.4,-2.74,0.44,2.8
28.524176120758057,0.51,-3.03,0.56,3.12
28.524559020996094,0.55,-3.12,0.64,3.23
28.531026124954224,0.42,-2.91,0.58,2.99
28.540847063064575,0.37,-2.51,0.42,2.57
28.551098108291626,0.27,-2.1,0.4,2.15
28.573713064193726,0.2,-1.81,0.37,1.85
28.574087142944336,0.07,-1.72,0.32,1.75
28.581010103225708,0.04,-1.75,0.16,1.75
28.590973138809204,0.07,-1.83,0.03,1.83
28.601131916046143,0.12,-1.84,0.06,1.84
28.6238112449646,0.18,-1.82,0.25,1.84
28.624186038970947,0.37,-1.84,0.44,1.92
28.63094425201416,0.63,-1.85,0.54,2.02
28.640953063964844,0.87,-1.76,0.63,2.06
28.6509952545166,1.16,-1.61,0.71,2.1
28.674215078353882,1.34,-1.31,0.81,2.04
28.67460823059082,1.23,-0.86,0.93,1.76
28.680932998657227,0.93,-0.29,0.9,1.32
28.690886974334717,0.61,0.27,0.69,0.95
28.700950145721436,0.35,0.67,0.36,0.83
28.72437810897827,0.21,1.08,0.09,1.1
28.7247371673584,0.21,1.61,-0.05,1.62
28.730987071990967,0.27,2.12,0.09,2.13
28.74083423614502,0.53,2.49,0.79,2.66
28.751025199890137,0.68,2.7,1.89,3.36
28.77480411529541,0.56,2.97,2.58,3.97
28.77517604827881,0.46,3.43,2.42,4.22
28.780877113342285,0.51,4.08,1.34,4.32
28.79072904586792,0.17,4.75,-0.55,4.78
28.80094313621521,-0.43,5.32,-2.87,6.06
28.824028968811035,-1.24,5.47,-4.76,7.35
28.824405193328857,-1.64,5.01,-5.79,7.83
28.83099603652954,-1.38,3.79,-5.69,6.97
28.84100604057312,-0.97,2.19,-4.64,5.22
28.8510799407959,-0.59,0.98,-3.2,3.39
28.875667095184326,-0.09,0.4,-1.84,1.88
28.87604308128357,0.37,0.17,-0.73,0.83
28.881049156188965,0.7,-0.11,0.3,0.76
28.891098976135254,0.46,-0.42,1.19,1.34
28.901188135147095,-0.25,-0.45,1.61,1.69
28.9254732131958,-0.91,-0.04,1.21,1.51
28.925841093063354,-1.26,0.58,0.15,1.39
28.93106508255005,-1.57,1.1,-0.92,2.12
28.941012144088745,-1.88,1.45,-1.53,2.82
28.95106601715088,-2.03,1.59,-1.82,3.15
28.976200103759766,-2.07,1.35,-1.98,3.16
28.976577043533325,-1.91,0.93,-2.03,2.93
28.981017112731934,-1.57,0.48,-1.99,2.57
28.991019248962402,-0.95,0.05,-1.87,2.09
29.001151084899902,-0.24,-0.42,-1.66,1.72
29.025761127471924,0.37,-0.95,-1.46,1.78
29.026137113571167,0.96,-1.46,-1.25,2.14
29.030883073806763,1.36,-1.94,-1.03,2.58
29.040982246398926,1.59,-2.41,-0.75,2.98
29.051101207733154,1.7,-2.75,-0.53,3.27
29.076308250427246,1.66,-2.89,-0.31,3.34
29.076691150665283,1.34,-2.84,-0.04,3.14
29.081056118011475,0.88,-2.6,0.22,2.75
29.091033935546875,0.41,-2.36,0.39,2.42
29.10109305381775,0.02,-2.16,0.43,2.2
29.126346111297607,-0.39,-1.87,0.38,1.94
29.126739025115967,-0.69,-1.48,0.23,1.64
29.131057262420654,-0.88,-1.12,0.02,1.42
29.141062259674072,-0.99,-0.88,-0.37,1.37
29.1510910987854,-0.85,-0.73,-0.86,1.41
29.17650008201599,-0.73,-0.6,-1.29,1.59
29.176886081695557,-0.74,-0.5,-1.63,1.85
29.18105912208557,-0.64,-0.38,-1.81,1.95
29.191076040267944,-0.68,-0.35,-1.88,2.02
29.201136112213135,-0.83,-0.42,-1.77,1.99
29.22647714614868,-0.92,-0.37,-1.49,1.78
29.226866245269775,-1.01,-0.17,-1.29,1.64
29.231032133102417,-1.04,0.12,-1.16,1.56
29.24111008644104,-1.13,0.4,-0.96,1.53
29.251142024993896,-1.19,0.6,-0.82,1.56
29.276591062545776,-1.06,0.64,-0.74,1.44
29.276976108551025,-1.0,0.65,-0.69,1.37
29.281126976013184,-0.94,0.88,-0.68,1.45
29.29104709625244,-0.94,1.18,-0.57,1.61
29.301187992095947,-0.79,1.17,-0.38,1.46
29.326656103134155,-0.66,1.17,-0.02,1.34
29.327059030532837,-0.56,1.23,0.65,1.49
29.33114004135132,-0.44,1.27,1.11,1.74
29.34116506576538,-0.08,1.37,0.94,1.66
29.351174116134644,0.44,1.64,0.18,1.7
29.376869201660156,0.99,1.88,-0.82,2.27
29.37722396850586,1.35,1.88,-1.68,2.85
29.38111400604248,1.48,1.63,-2.4,3.25
29.39098310470581,1.68,1.33,-2.87,3.58
29.40116810798645,1.74,0.91,-3.01,3.59
29.42632293701172,1.54,0.51,-2.83,3.26
29.42670202255249,1.36,0.2,-2.36,2.73
29.43119192123413,1.15,-0.07,-1.92,2.23
29.44102191925049,0.91,-0.21,-1.72,1.95
29.451190948486328,0.57,-0.2,-1.61,1.71
29.47670006752014,0.07,-0.09,-1.63,1.63
29.477076053619385,-0.29,-0.01,-1.75,1.77
29.48114013671875,-0.3,0.07,-1.79,1.81
29.491043090820312,-0.21,0.15,-1.73,1.74
29.501187086105347,-0.16,0.27,-1.59,1.62
29.5259952545166,0.01,0.39,-1.34,1.39
29.526379108428955,0.16,0.44,-1.11,1.2
29.531084060668945,0.2,0.41,-0.95,1.05
29.541049003601074,0.28,0.4,-0.91,1.03
29.551122188568115,0.36,0.38,-0.81,0.96
29.57681107521057,0.34,0.22,-0.79,0.88
29.577181100845337,0.32,0.01,-0.99,1.04
29.581186056137085,0.35,-0.18,-1.19,1.25
29.591164112091064,0.21,-0.37,-1.31,1.37
29.60119104385376,0.12,-0.55,-1.36,1.47
29.6271071434021,0.17,-0.68,-1.35,1.52
29.627559185028076,0.19,-0.75,-1.43,1.62
29.631129264831543,0.19,-0.69,-1.61,1.76
29.641083240509033,0.26,-0.62,-1.69,1.81
29.651145935058594,0.34,-0.65,-1.4,1.58
29.67693305015564,0.99,-0.59,-0.27,1.18
29.677371978759766,1.56,-0.48,1.48,2.2
29.68124008178711,1.25,-0.39,2.77,3.06
29.691084146499634,0.7,0.04,2.39,2.49
29.701226234436035,0.67,0.92,0.67,1.32
29.711116075515747,0.82,1.68,-1.2,2.22
29.727083206176758,0.33,1.84,-2.71,3.29
29.73099112510681,-0.16,1.49,-3.57,3.87
29.741109132766724,-0.73,0.67,-3.6,3.73
29.751211166381836,-1.02,-0.24,-2.98,3.15
29.761106967926025,-0.7,-1.0,-2.26,2.56
29.7773699760437,-0.21,-1.43,-1.64,2.18
29.781230926513672,0.14,-1.52,-0.92,1.78
29.791117191314697,0.18,-1.41,-0.25,1.44
29.801191091537476,0.18,-1.17,0.18,1.19
29.811164140701294,0.34,-0.93,0.38,1.06
29.827199935913086,0.47,-0.66,0.26,0.85
29.831042051315308,0.66,-0.22,0.06,0.69
29.841073989868164,0.68,0.3,0.02,0.74
29.851218223571777,0.46,0.77,0.01,0.89
29.86109709739685,0.29,1.16,0.01,1.19
29.87699604034424,0.04,1.5,0.06,1.5
29.881001949310303,-0.13,1.65,0.04,1.65
29.89113426208496,-0.13,1.37,-0.19,1.38
29.90124011039734,-0.51,1.15,-0.54,1.36
29.91113805770874,-0.74,0.69,-0.57,1.16
29.927497148513794,-0.58,0.31,-0.57,0.87
29.931090116500854,-0.52,-0.17,-0.6,0.81
29.941153049468994,-0.4,-0.56,-0.64,0.93
29.95125412940979,-0.2,-0.77,-0.59,0.99
29.961137056350708,0.0,-0.79,-0.47,0.91
29.977508068084717,0.07,-0.67,-0.33,0.75
29.98107409477234,0.14,-0.48,-0.23,0.55
29.991132259368896,0.34,-0.22,-0.22,0.46
30.001219034194946,0.49,-0.03,-0.17,0.51
30.01109218597412,0.42,0.14,-0.17,0.47
30.042537212371826,0.1,0.15,-0.27,0.32
30.042935132980347,0.01,0.15,-0.41,0.43
30.04335308074951,-0.06,0.18,-0.45,0.48
30.051221132278442,-0.09,0.17,-0.4,0.44
30.061115264892578,-0.23,0.09,-0.11,0.27
30.0762939453125,-0.23,0.04,0.13,0.26
30.081184148788452,-0.11,-0.01,0.29,0.31
30.09130311012268,-0.1,-0.03,0.35,0.36
30.101299047470093,-0.09,0.05,0.26,0.27
30.111140251159668,0.07,0.11,-0.06,0.14
30.12754511833191,0.23,0.16,-0.35,0.44
30.131089210510254,0.28,0.16,-0.42,0.52
30.1411771774292,0.24,0.18,-0.37,0.47
30.151269912719727,0.15,0.21,-0.34,0.42
30.16118097305298,-0.01,0.19,-0.24,0.3
30.177454948425293,-0.06,0.12,-0.15,0.2
30.18112802505493,0.08,0.1,-0.09,0.15
30.191182136535645,-0.07,0.08,-0.02,0.1
30.20152521133423,-0.2,0.04,0.04,0.2
30.21122908592224,-0.15,-0.04,0.1,0.18
30.223738193511963,-0.24,-0.16,0.12,0.31
30.23420810699463,-0.3,-0.19,0.04,0.35
30.389894008636475,-0.19,-0.15,-0.1,0.26
30.391287088394165,-0.03,-0.11,-0.22,0.24
30.395158052444458,0.1,-0.11,-0.2,0.24
30.396127223968506,0.09,-0.16,-0.12,0.21
30.396883010864258,-0.01,-0.13,-0.03,0.13
30.39760708808899,-0.08,0.02,-0.01,0.08
30.3983211517334,-0.11,0.19,-0.1,0.24
30.400694131851196,-0.17,0.3,-0.09,0.35
30.400957107543945,-0.23,0.33,0.01,0.4
