time,ax,ay,az,atotal
0.010624170303344727,-0.55,0.19,-0.87,1.04
0.014342069625854492,0.06,-0.21,-0.58,0.61
0.029255151748657227,-0.14,0.03,-0.09,0.16
0.034136056900024414,-0.29,0.04,0.42,0.51
0.04411602020263672,-0.05,-0.04,0.87,0.87
0.05403709411621094,0.05,0.13,1.31,1.31
0.0639951229095459,0.06,0.27,1.62,1.64
0.07975888252258301,0.1,0.14,1.63,1.63
0.08428692817687988,-0.01,-0.09,1.39,1.39
0.0942380428314209,-0.06,-0.19,1.07,1.08
0.1039879322052002,-0.07,-0.16,0.72,0.74
0.11409211158752441,-0.06,-0.12,0.4,0.42
0.13104510307312012,-0.07,-0.12,0.14,0.19
0.13438820838928223,-0.15,-0.09,-0.1,0.2
0.14432120323181152,-0.16,-0.01,-0.31,0.34
0.15404295921325684,-0.14,0.1,-0.52,0.54
0.16413402557373047,-0.17,0.19,-0.67,0.71
0.18157601356506348,-0.22,0.23,-0.77,0.83
0.18471121788024902,-0.31,0.22,-0.79,0.87
0.1943221092224121,-0.38,0.19,-0.74,0.85
0.20403003692626953,-0.34,0.16,-0.61,0.71
0.21416211128234863,-0.21,0.13,-0.37,0.44
0.2339930534362793,-0.13,0.06,-0.07,0.15
0.2351839542388916,-0.1,0.0,0.15,0.18
0.2442460060119629,0.03,-0.02,0.23,0.23
0.254194974899292,0.16,0.0,0.29,0.33
0.2640960216522217,0.11,0.02,0.33,0.34
0.2811720371246338,-0.04,-0.02,0.31,0.31
0.28402113914489746,-0.15,-0.08,0.21,0.27
0.2942531108856201,-0.22,-0.15,0.09,0.28
0.3040730953216553,-0.26,-0.18,0.0,0.31
0.31411194801330566,-0.26,-0.15,-0.06,0.3
0.3319399356842041,-0.21,-0.13,-0.16,0.29
0.33411502838134766,-0.15,-0.12,-0.3,0.35
0.34429407119750977,-0.19,-0.06,-0.38,0.42
0.35416603088378906,-0.18,0.02,-0.33,0.37
0.36423707008361816,-0.03,0.04,-0.24,0.24
0.3816192150115967,-0.19,0.14,-0.16,0.28
0.3842041492462158,-0.27,0.1,-0.1,0.3
0.3944242000579834,-0.16,0.13,0.03,0.2
0.40419888496398926,0.02,0.13,0.09,0.15
0.4143049716949463,0.04,0.1,0.03,0.11
0.4322822093963623,-0.01,0.06,-0.07,0.09
0.434218168258667,0.04,0.11,-0.09,0.14
0.4443840980529785,0.03,0.22,-0.12,0.25
0.4542410373687744,-0.17,0.26,-0.11,0.32
0.4643881320953369,-0.23,0.12,-0.09,0.27
0.4829709529876709,-0.17,0.01,-0.15,0.22
0.4841291904449463,-0.13,-0.05,-0.2,0.24
0.49436402320861816,0.14,0.24,0.02,0.27
0.5042412281036377,0.33,0.46,0.26,0.62
0.5143759250640869,0.16,0.34,0.39,0.54
0.5328030586242676,-0.05,0.12,0.37,0.39
0.5341088771820068,-0.04,-0.38,0.13,0.4
0.5443189144134521,-0.17,-0.54,0.04,0.56
0.5543482303619385,0.04,-0.34,0.12,0.36
0.5645039081573486,-0.09,-0.61,-0.04,0.61
0.5830881595611572,-0.5,-0.74,-0.15,0.9
0.5840799808502197,0.14,-0.35,0.11,0.39
0.5943570137023926,0.46,-0.01,0.35,0.57
0.6041491031646729,0.48,0.06,0.3,0.56
0.6143710613250732,-0.14,-0.09,0.16,0.23
0.6333620548248291,-0.51,-0.06,0.15,0.53
0.6343162059783936,-0.54,0.17,0.17,0.59
0.644416093826294,-0.44,-0.13,-0.21,0.5
0.6541500091552734,-0.45,-0.29,-0.41,0.67
0.6643950939178467,-0.21,-0.22,-0.32,0.44
0.6834299564361572,0.07,-0.14,-0.04,0.16
0.6841452121734619,0.19,-0.13,0.18,0.29
0.6944580078125,0.12,-0.28,0.24,0.38
0.7042241096496582,0.09,-0.39,0.21,0.45
0.7144138813018799,0.12,-0.39,0.32,0.51
0.733889102935791,0.21,-0.44,0.45,0.66
0.7343630790710449,0.2,-0.62,0.47,0.8
0.7444479465484619,0.08,-0.9,0.35,0.96
0.7543509006500244,0.05,-1.05,0.25,1.08
0.7644360065460205,0.13,-1.03,0.35,1.09
0.7838270664215088,0.12,-0.99,0.57,1.14
0.7842659950256348,0.09,-0.99,0.78,1.26
0.7944009304046631,0.09,-1.07,0.98,1.45
0.8042271137237549,0.12,-1.16,1.15,1.63
0.814316987991333,0.2,-1.21,1.3,1.78
0.8338620662689209,0.38,-1.25,1.45,1.95
0.8343510627746582,0.6,-1.2,1.61,2.09
0.844419002532959,0.84,-1.01,1.7,2.14
0.8543441295623779,0.98,-0.77,1.68,2.09
0.8642551898956299,1.0,-0.49,1.55,1.9
0.8840360641479492,0.97,-0.18,1.4,1.71
0.8845322132110596,0.96,0.17,1.22,1.56
0.8945820331573486,0.99,0.49,1.17,1.6
0.9042520523071289,0.96,0.73,1.26,1.74
0.9143140316009521,0.86,0.93,1.31,1.82
0.9339590072631836,0.7,1.08,1.34,1.85
0.934438943862915,0.59,1.19,1.33,1.87
0.9445669651031494,0.41,1.23,1.34,1.86
0.954308032989502,0.18,1.16,1.33,1.77
0.9643580913543701,-0.07,0.98,1.3,1.62
0.9835422039031982,-0.32,0.73,1.27,1.49
0.984140157699585,-0.47,0.47,1.24,1.4
0.994499921798706,-0.51,0.21,1.32,1.43
1.0042510032653809,-0.46,-0.03,1.45,1.52
1.0144200325012207,-0.46,-0.27,1.65,1.73
1.033263921737671,-0.39,-0.52,1.85,1.96
1.0343120098114014,-0.29,-0.73,2.05,2.19
1.0444700717926025,-0.2,-0.89,2.12,2.3
1.0543549060821533,-0.03,-1.02,2.06,2.29
1.0644581317901611,0.2,-1.12,1.97,2.27
1.084233045578003,0.41,-1.21,1.82,2.22
1.0846290588378906,0.61,-1.26,1.65,2.16
1.0946118831634521,0.75,-1.22,1.57,2.12
1.1042640209197998,0.9,-1.05,1.58,2.09
1.114450216293335,0.98,-0.86,1.64,2.09
1.1340270042419434,1.1,-0.71,1.76,2.19
1.134423017501831,1.17,-0.65,1.89,2.31
1.1446290016174316,1.15,-0.6,1.94,2.33
1.1542952060699463,1.18,-0.51,1.94,2.32
1.1644599437713623,1.17,-0.34,1.95,2.29
1.1846301555633545,1.08,-0.12,1.99,2.26
1.1850740909576416,0.98,0.07,2.02,2.24
1.1946380138397217,0.9,0.21,2.02,2.22
1.2044432163238525,0.79,0.38,2.02,2.2
1.2144749164581299,0.64,0.59,1.99,2.17
1.2344810962677002,0.52,0.82,1.98,2.2
1.2349679470062256,0.44,1.05,1.92,2.23
1.2445321083068848,0.44,1.24,1.81,2.23
1.254366159439087,0.44,1.49,1.67,2.28
1.2645518779754639,0.28,1.7,1.53,2.3
1.2851779460906982,0.06,1.79,1.33,2.23
1.2856090068817139,-0.13,1.79,1.15,2.13
1.2946770191192627,-0.3,1.81,1.06,2.11
1.3044068813323975,-0.32,1.9,1.01,2.17
1.3146159648895264,-0.38,2.08,1.11,2.38
1.3344409465789795,-0.36,2.27,1.24,2.61
1.3348240852355957,-0.33,2.41,1.34,2.77
1.3446919918060303,-0.46,2.44,1.33,2.81
1.3544280529022217,-0.63,2.31,1.17,2.66
1.3645720481872559,-0.7,2.13,0.88,2.4
1.3849470615386963,-0.68,1.92,0.54,2.1
1.385343074798584,-0.65,1.71,0.22,1.84
1.3946599960327148,-0.59,1.47,-0.07,1.58
1.4043710231781006,-0.51,1.18,-0.38,1.34
1.4146270751953125,-0.39,0.78,-0.68,1.1
1.4351232051849365,-0.23,0.3,-0.94,1.01
1.4355909824371338,-0.17,-0.08,-1.06,1.07
1.4449961185455322,-0.13,-0.43,-0.99,1.08
1.4544880390167236,-0.2,-0.72,-0.77,1.07
1.4647130966186523,-0.38,-0.94,-0.43,1.1
1.4853410720825195,-0.57,-1.05,-0.03,1.19
1.4857251644134521,-0.82,-1.1,0.41,1.43
1.494675874710083,-0.97,-1.09,0.78,1.65
1.504384994506836,-1.02,-1.04,1.05,1.79
1.514631986618042,-1.06,-1.0,1.29,1.94
1.5344579219818115,-1.0,-0.9,1.51,2.02
1.5348570346832275,-0.89,-0.79,1.57,1.97
1.5446321964263916,-0.74,-0.68,1.51,1.81
1.5544459819793701,-0.59,-0.53,1.31,1.53
1.5647199153900146,-0.39,-0.56,1.03,1.23
1.5851020812988281,-0.3,-0.77,0.69,1.07
1.5854620933532715,-0.3,-1.02,0.27,1.09
1.594698190689087,-0.19,-1.21,-0.1,1.22
1.6044330596923828,-0.03,-1.38,-0.38,1.43
1.6146790981292725,0.13,-1.52,-0.52,1.61
1.6353881359100342,0.3,-1.68,-0.49,1.77
1.6357672214508057,0.31,-1.85,-0.32,1.9
1.6446959972381592,0.24,-2.05,-0.03,2.06
1.6545391082763672,0.25,-2.18,0.31,2.21
1.6646959781646729,0.34,-2.26,0.63,2.37
1.685420036315918,0.49,-2.26,0.92,2.48
1.6858141422271729,0.62,-2.21,1.21,2.59
1.694709062576294,0.69,-2.01,1.5,2.6
1.7046639919281006,0.67,-1.67,1.76,2.51
1.7147750854492188,0.62,-1.25,1.96,2.4
1.7362759113311768,0.55,-0.73,2.11,2.29
1.7367441654205322,0.48,-0.22,2.13,2.19
1.7446949481964111,0.38,0.18,1.99,2.03
1.7547130584716797,0.24,0.51,1.77,1.85
1.7647490501403809,-0.01,0.81,1.48,1.68
1.7853600978851318,-0.22,1.13,1.18,1.64
1.7858200073242188,-0.38,1.43,0.89,1.72
1.7947731018066406,-0.51,1.64,0.64,1.83
1.8047950267791748,-0.63,1.82,0.39,1.96
1.8147170543670654,-0.75,1.97,0.12,2.11
1.8358972072601318,-0.82,2.08,-0.09,2.23
1.8362891674041748,-0.89,2.2,-0.16,2.37
1.8447110652923584,-0.94,2.49,-0.11,2.66
1.854856014251709,-0.84,2.93,0.09,3.04
1.8647139072418213,-0.45,3.33,0.27,3.37
1.8854329586029053,0.07,3.66,0.36,3.67
1.8858191967010498,0.49,4.0,0.21,4.03
1.8946411609649658,0.68,4.12,-0.16,4.17
1.9049530029296875,0.69,3.89,-0.72,4.01
1.914823055267334,0.6,3.26,-1.38,3.59
1.936028003692627,0.4,2.42,-1.99,3.15
1.9364311695098877,0.15,1.65,-2.36,2.88
1.9447600841522217,-0.13,0.92,-2.44,2.61
1.9550740718841553,-0.3,0.25,-2.22,2.25
1.9647929668426514,-0.21,-0.27,-1.83,1.86
1.9868009090423584,0.09,-0.66,-1.39,1.54
1.9872610569000244,0.41,-0.99,-0.97,1.44
1.9947521686553955,0.69,-1.27,-0.58,1.55
2.005190134048462,0.95,-1.51,-0.28,1.8
2.01477313041687,1.18,-1.61,0.0,1.99
2.036665201187134,1.41,-1.61,0.25,2.15
2.037137031555176,1.39,-1.51,0.44,2.09
2.044809103012085,1.2,-1.3,0.6,1.86
2.0552399158477783,0.91,-1.09,0.67,1.57
2.064851999282837,0.63,-0.95,0.59,1.28
2.0871222019195557,0.43,-0.93,0.39,1.09
2.087595224380493,0.2,-0.95,0.18,0.98
2.0948522090911865,-0.03,-0.97,0.01,0.97
2.1052420139312744,-0.09,-1.0,-0.09,1.0
2.114842176437378,-0.09,-1.08,-0.1,1.08
2.1371910572052,-0.15,-1.26,0.01,1.26
2.137657880783081,-0.19,-1.51,0.21,1.53
2.144821882247925,-0.22,-1.81,0.47,1.88
2.1547582149505615,-0.32,-2.15,0.71,2.28
2.170491933822632,-0.34,-2.46,0.88,2.63
2.1747748851776123,-0.35,-2.67,0.98,2.86
2.1846721172332764,-0.36,-2.79,1.03,2.99
2.19480299949646,-0.32,-2.86,1.05,3.06
2.204756021499634,-0.23,-2.86,1.06,3.05
2.2202110290527344,-0.18,-2.74,1.11,2.96
2.2246010303497314,-0.18,-2.52,1.15,2.77
2.2346742153167725,-0.19,-2.22,1.15,2.5
2.244781017303467,-0.17,-1.8,1.15,2.14
2.2547860145568848,-0.12,-1.33,1.18,1.78
2.2703521251678467,-0.01,-0.88,1.18,1.47
2.27488112449646,0.12,-0.49,1.15,1.25
2.2847249507904053,0.29,-0.18,1.1,1.15
2.294842004776001,0.41,0.1,1.03,1.11
2.3048489093780518,0.35,0.43,0.9,1.05
2.3207170963287354,0.18,0.85,0.74,1.14
2.324662923812866,0.04,1.26,0.61,1.4
2.33486008644104,-0.13,1.57,0.39,1.62
2.3448541164398193,-0.21,1.68,0.21,1.7
2.3548390865325928,-0.2,1.8,0.11,1.81
2.37014102935791,-0.32,2.19,0.13,2.21
2.374807119369507,-0.47,2.83,0.32,2.88
2.384782075881958,-0.53,3.42,0.63,3.51
2.3949410915374756,-0.47,3.92,0.92,4.05
2.404855966567993,-0.28,4.44,1.0,4.55
2.420896053314209,-0.07,4.83,0.77,4.89
2.4248220920562744,0.13,4.84,0.19,4.84
2.434849977493286,0.07,4.34,-0.54,4.37
2.4448931217193604,-0.14,3.43,-1.32,3.67
2.4548919200897217,-0.26,2.45,-2.01,3.17
2.470881223678589,-0.29,1.59,-2.51,2.98
2.4747281074523926,-0.29,0.81,-2.75,2.88
2.484786033630371,-0.32,0.14,-2.63,2.65
2.4949140548706055,-0.43,-0.38,-2.11,2.18
2.5047950744628906,-0.6,-0.77,-1.32,1.64
2.5206921100616455,-0.72,-0.94,-0.61,1.33
2.524885892868042,-0.78,-1.0,-0.02,1.26
2.5349209308624268,-0.83,-1.02,0.47,1.39
2.544904947280884,-0.85,-0.95,0.86,1.53
2.554917097091675,-0.78,-0.76,1.15,1.58
2.570646047592163,-0.62,-0.6,1.3,1.56
2.574918031692505,-0.53,-0.51,1.26,1.45
2.5849621295928955,-0.48,-0.52,0.97,1.2
2.594912052154541,-0.45,-0.66,0.59,0.99
2.6049611568450928,-0.39,-1.0,0.23,1.09
2.621596097946167,-0.17,-1.44,-0.1,1.45
2.6250340938568115,0.06,-1.84,-0.37,1.87
2.6351020336151123,0.32,-2.2,-0.52,2.28
2.645047903060913,0.58,-2.51,-0.56,2.63
2.65497088432312,0.91,-2.74,-0.45,2.92
2.6716248989105225,1.08,-2.87,-0.28,3.07
2.6750152111053467,1.15,-2.92,-0.12,3.14
2.6849560737609863,1.2,-2.93,0.12,3.16
2.6949710845947266,1.24,-2.89,0.36,3.16
2.7050070762634277,1.32,-2.86,0.54,3.19
2.721365213394165,1.4,-2.83,0.69,3.23
2.7248241901397705,1.32,-2.72,0.78,3.12
2.734962224960327,1.22,-2.53,0.84,2.93
2.7450110912323,1.07,-2.25,0.88,2.64
2.754970073699951,0.94,-1.94,0.96,2.35
2.7716920375823975,0.72,-1.61,1.12,2.08
2.7749440670013428,0.46,-1.13,1.28,1.76
2.784980058670044,0.29,-0.6,1.42,1.56
2.7950680255889893,0.18,-0.06,1.49,1.5
2.805039167404175,0.07,0.48,1.44,1.51
2.821835994720459,-0.01,1.0,1.25,1.6
2.8249690532684326,-0.14,1.42,0.94,1.7
2.8350729942321777,-0.27,1.67,0.52,1.76
2.8450241088867188,-0.41,1.88,0.07,1.92
2.855072021484375,-0.57,2.09,-0.34,2.19
2.871803045272827,-0.71,2.37,-0.63,2.55
2.8750600814819336,-0.82,2.92,-0.73,3.11
2.8850719928741455,-0.78,3.72,-0.57,3.84
2.895132064819336,-0.35,4.46,-0.25,4.48
2.905040979385376,0.14,5.09,0.01,5.09
2.9215619564056396,0.47,5.52,-0.04,5.54
2.9248812198638916,0.52,5.51,-0.53,5.55
2.935110092163086,0.31,4.95,-1.34,5.13
2.9450509548187256,0.0,3.99,-2.24,4.57
2.9551031589508057,-0.19,3.01,-2.88,4.17
2.9717040061950684,-0.38,2.03,-3.11,3.73
2.9750092029571533,-0.39,1.04,-3.07,3.26
2.9850962162017822,-0.05,0.23,-2.68,2.69
2.9951300621032715,0.32,-0.29,-2.08,2.12
3.005089044570923,0.76,-0.61,-1.42,1.72
3.0213921070098877,1.18,-0.79,-0.75,1.6
3.0250020027160645,1.48,-0.9,-0.14,1.73
3.035072088241577,1.68,-1.03,0.34,1.99
3.0450680255889893,1.79,-1.14,0.69,2.23
3.0551321506500244,1.83,-1.16,1.06,2.41
3.0717451572418213,1.55,-1.09,1.23,2.25
3.0749430656433105,1.28,-1.07,1.11,2.0
3.0850889682769775,0.99,-1.13,0.7,1.65
3.095142126083374,0.57,-1.23,0.21,1.37
3.105145215988159,0.13,-1.36,-0.28,1.39
3.1217849254608154,-0.28,-1.52,-0.7,1.69
3.124906063079834,-0.63,-1.74,-0.94,2.07
3.1350691318511963,-0.94,-1.96,-0.94,2.36
3.1452150344848633,-1.14,-2.22,-0.77,2.61
3.1551148891448975,-1.29,-2.51,-0.46,2.85
3.171705961227417,-1.24,-2.82,-0.06,3.08
3.1750051975250244,-1.22,-2.99,0.31,3.24
3.1851179599761963,-1.26,-3.13,0.66,3.43
3.195120096206665,-1.23,-3.3,0.91,3.63
3.2051711082458496,-1.17,-3.47,1.11,3.82
3.2217230796813965,-1.07,-3.55,1.28,3.92
3.2249529361724854,-0.93,-3.49,1.43,3.88
3.235016107559204,-0.73,-3.27,1.54,3.68
3.2450459003448486,-0.44,-2.87,1.58,3.3
3.255048990249634,-0.11,-2.35,1.56,2.82
3.2718889713287354,0.18,-1.77,1.62,2.4
3.2748639583587646,0.4,-1.09,1.6,1.97
3.2850840091705322,0.68,-0.29,1.48,1.65
3.2951481342315674,0.92,0.49,1.25,1.62
3.305026054382324,1.08,1.15,0.91,1.82
3.322235107421875,1.1,1.72,0.51,2.1
3.3248610496520996,1.02,2.11,0.11,2.34
3.3351352214813232,0.86,2.31,-0.25,2.47
3.3449928760528564,0.61,2.45,-0.53,2.57
3.3551251888275146,0.4,2.62,-0.67,2.73
3.3727810382843018,0.24,2.96,-0.55,3.02
3.374903917312622,0.04,3.56,-0.13,3.56
3.3852100372314453,-0.07,4.13,0.45,4.15
3.3949739933013916,-0.03,4.69,1.0,4.79
3.4051320552825928,0.01,5.28,1.32,5.44
3.422614097595215,0.04,5.77,1.27,5.9
3.425004005432129,-0.06,5.73,0.86,5.79
3.4353301525115967,-0.34,5.0,0.17,5.01
3.445204019546509,-0.45,4.0,-0.73,4.09
3.455151081085205,-0.45,2.91,-1.61,3.35
3.472764015197754,-0.5,1.73,-2.31,2.92
3.475123167037964,-0.62,0.53,-2.76,2.87
3.485344171524048,-0.8,-0.5,-2.88,3.03
3.4952280521392822,-0.96,-1.12,-2.65,3.03
3.5051491260528564,-1.09,-1.37,-2.1,2.73
3.5224568843841553,-1.17,-1.39,-1.34,2.25
3.525062084197998,-1.18,-1.33,-0.64,1.88
3.53540301322937,-1.17,-1.26,-0.12,1.72
3.5452280044555664,-1.07,-1.12,0.3,1.57
3.5552608966827393,-0.94,-0.95,0.64,1.48
3.5731189250946045,-0.84,-0.76,0.91,1.45
3.5752170085906982,-0.75,-0.57,1.01,1.38
3.585294008255005,-0.71,-0.48,0.9,1.24
3.5953691005706787,-0.74,-0.58,0.59,1.11
3.605133056640625,-0.83,-0.83,0.25,1.2
3.6231191158294678,-0.85,-1.23,-0.1,1.49
3.625354051589966,-0.78,-1.67,-0.4,1.88
3.635361909866333,-0.64,-2.09,-0.61,2.26
3.6451210975646973,-0.41,-2.45,-0.69,2.57
3.655277967453003,-0.13,-2.73,-0.64,2.8
3.6731979846954346,0.17,-2.9,-0.5,2.94
3.6754610538482666,0.48,-2.97,-0.32,3.02
3.685331106185913,0.74,-3.01,-0.14,3.1
3.6953189373016357,0.85,-3.05,0.03,3.16
3.705238103866577,0.94,-3.0,0.22,3.15
3.723546028137207,1.11,-2.82,0.34,3.04
3.7256290912628174,1.31,-2.55,0.47,2.9
3.735408067703247,1.37,-2.26,0.69,2.73
3.7453291416168213,1.3,-2.02,1.02,2.6
3.7552568912506104,1.15,-1.73,1.4,2.5
3.7735280990600586,0.98,-1.37,1.74,2.42
3.775017023086548,0.82,-0.93,2.0,2.35
3.78540301322937,0.75,-0.47,2.11,2.28
3.7952280044555664,0.6,-0.01,2.04,2.12
3.8052380084991455,0.4,0.4,1.75,1.83
3.8231589794158936,0.18,0.74,1.3,1.5
3.8251211643218994,-0.09,1.01,0.8,1.29
3.835405111312866,-0.32,1.25,0.35,1.33
3.845194101333618,-0.52,1.43,-0.05,1.52
3.855351209640503,-0.69,1.57,-0.44,1.77
3.8737030029296875,-0.79,1.82,-0.76,2.12
3.8751840591430664,-0.75,2.43,-0.84,2.67
3.8853909969329834,-0.37,3.24,-0.68,3.33
3.895238161087036,0.29,3.95,-0.43,3.98
3.9052340984344482,0.93,4.59,-0.36,4.69
3.924617052078247,1.3,5.06,-0.65,5.26
3.925171136856079,1.38,5.15,-1.28,5.48
3.9354310035705566,0.92,4.77,-1.98,5.24
3.94516921043396,0.3,4.07,-2.67,4.87
3.955308198928833,-0.2,3.22,-3.24,4.57
3.973994016647339,-0.61,2.42,-3.55,4.33
3.97515606880188,-0.92,1.65,-3.48,3.95
3.9854960441589355,-1.0,0.84,-3.12,3.38
3.9952239990234375,-0.71,0.11,-2.42,2.52
4.005728006362915,-0.28,-0.44,-1.68,1.75
4.023699045181274,-0.29,-0.44,-1.74,1.81
4.02409815788269,0.29,-0.85,-1.02,1.35
4.0328240394592285,0.86,-1.17,-0.38,1.5
4.043045997619629,1.18,-1.42,0.19,1.85
4.052790880203247,1.33,-1.6,0.66,2.18
4.073885202407837,1.39,-1.62,1.04,2.37
4.074312925338745,1.33,-1.54,1.35,2.44
4.082758188247681,0.98,-1.39,1.38,2.19
4.09315299987793,0.79,-1.28,1.14,1.88
4.102869033813477,0.57,-1.21,0.67,1.49
4.123862981796265,0.24,-1.12,0.0,1.14
4.124216079711914,0.0,-1.12,-0.65,1.29
4.132771015167236,-0.21,-1.26,-1.1,1.68
4.143243074417114,-0.49,-1.47,-1.26,1.99
4.152828931808472,-0.83,-1.77,-1.11,2.24
4.175282001495361,-1.04,-2.15,-0.72,2.49
4.175731897354126,-1.12,-2.52,-0.1,2.75
4.182801008224487,-1.21,-2.75,0.47,3.04
4.193336009979248,-1.26,-2.78,0.93,3.19
4.2029290199279785,-1.15,-2.79,1.31,3.28
4.224251985549927,-1.07,-2.84,1.6,3.43
4.224729061126709,-1.02,-2.93,1.8,3.58
4.2328410148620605,-0.99,-3.0,1.87,3.67
4.243306875228882,-0.89,-3.0,1.88,3.65
4.252896070480347,-0.61,-2.96,1.87,3.55
4.273625135421753,-0.35,-2.82,1.81,3.36
4.274076223373413,-0.15,-2.47,1.71,3.0
4.28291916847229,-0.01,-1.89,1.53,2.43
4.292750120162964,0.14,-1.19,1.27,1.74
4.303132057189941,0.22,-0.53,0.87,1.04
4.324601888656616,0.22,0.06,0.53,0.57
4.324986219406128,0.24,0.57,0.32,0.69
4.332953214645386,0.17,0.97,0.16,0.99
4.342811107635498,0.12,1.32,-0.02,1.32
4.352854013442993,0.13,1.65,-0.13,1.66
4.374228000640869,0.08,2.01,-0.21,2.02
4.3746020793914795,0.05,2.33,-0.2,2.33
4.382834196090698,0.01,2.67,-0.06,2.67
4.3928070068359375,-0.12,3.11,0.19,3.11
4.402882099151611,-0.4,3.66,0.59,3.72
4.425404071807861,-0.58,4.1,1.12,4.28
4.4257872104644775,-0.56,4.59,1.59,4.88
4.4329869747161865,-0.37,5.22,1.71,5.5
4.4428510665893555,-0.15,5.69,1.33,5.84
4.45296311378479,-0.07,5.56,0.52,5.58
4.47501802444458,-0.27,4.71,-0.55,4.74
4.47540807723999,-0.66,3.46,-1.74,3.92
4.482951879501343,-0.93,2.08,-2.78,3.59
4.492894887924194,-1.07,0.69,-3.48,3.7
4.502970933914185,-1.01,-0.47,-3.7,3.86
4.524970054626465,-0.86,-1.11,-3.41,3.68
4.525367975234985,-0.93,-1.31,-2.62,3.07
4.532942056655884,-1.2,-1.11,-1.6,2.28
4.542906999588013,-1.24,-0.81,-0.73,1.65
4.553001165390015,-1.03,-0.66,-0.04,1.22
4.574875116348267,-0.81,-0.57,0.49,1.1
4.575282096862793,-0.59,-0.39,0.89,1.13
4.582951068878174,-0.44,-0.15,1.06,1.15
4.592941999435425,-0.41,0.05,1.06,1.13
4.602971076965332,-0.56,0.06,0.94,1.09
4.625150918960571,-0.73,-0.14,0.66,0.99
4.625529050827026,-0.9,-0.5,0.34,1.08
4.632909059524536,-0.97,-0.94,0.04,1.35
4.642944097518921,-0.86,-1.34,-0.2,1.6
4.65296196937561,-0.63,-1.72,-0.41,1.87
4.674807071685791,-0.31,-2.11,-0.58,2.21
4.6751930713653564,0.06,-2.48,-0.66,2.56
4.683035135269165,0.4,-2.81,-0.59,2.89
4.692944049835205,0.66,-3.02,-0.44,3.12
4.7030041217803955,0.87,-3.15,-0.27,3.27
4.724814176559448,1.1,-3.16,-0.11,3.34
4.725209951400757,1.31,-3.09,0.06,3.35
4.7330482006073,1.39,-3.02,0.18,3.32
4.7429749965667725,1.46,-3.01,0.33,3.36
4.753028154373169,1.38,-2.97,0.52,3.31
4.774982213973999,1.18,-2.87,0.75,3.19
4.775377035140991,0.96,-2.67,1.01,3.01
4.7830140590667725,0.75,-2.42,1.2,2.8
4.792989015579224,0.56,-2.1,1.31,2.53
4.803057909011841,0.37,-1.66,1.44,2.22
4.825338125228882,0.1,-1.06,1.52,1.85
4.825715065002441,-0.1,-0.36,1.49,1.53
4.833007097244263,-0.16,0.27,1.33,1.36
4.842941045761108,-0.2,0.82,1.04,1.33
4.853080987930298,-0.26,1.44,0.72,1.63
4.8747031688690186,-0.25,2.03,0.41,2.08
4.875077962875366,-0.31,2.53,0.18,2.55
4.8829450607299805,-0.46,3.0,0.0,3.03
4.892950057983398,-0.7,3.63,-0.13,3.69
4.903011083602905,-0.66,4.23,-0.2,4.28
4.9254209995269775,-0.32,4.77,-0.32,4.79
4.9257972240448,0.1,5.5,-0.52,5.52
4.93298602104187,0.7,6.19,-0.98,6.3
4.942998170852661,1.23,6.44,-1.66,6.76
4.953070878982544,1.39,5.91,-2.34,6.5
4.975865125656128,0.99,4.82,-2.95,5.73
4.976248025894165,0.53,3.57,-3.4,4.95
4.983103036880493,0.16,2.3,-3.54,4.22
4.99307107925415,-0.04,1.05,-3.3,3.46
5.00306510925293,0.06,-0.02,-2.64,2.64
5.02568507194519,0.41,-0.79,-1.79,1.99
5.026068925857544,0.85,-1.2,-0.93,1.73
5.032939195632935,1.26,-1.45,-0.08,1.92
5.043001890182495,1.6,-1.64,0.59,2.36
5.053092002868652,1.8,-1.82,1.08,2.77
5.075632095336914,1.74,-1.94,1.37,2.94
5.076013088226318,1.54,-2.0,1.45,2.91
5.083060026168823,1.36,-2.01,1.23,2.72
5.093077898025513,1.17,-1.94,0.74,2.38
5.103053092956543,0.96,-1.79,0.09,2.03
5.12549901008606,0.64,-1.7,-0.51,1.88
5.125880002975464,0.28,-1.64,-1.06,1.97
5.132907152175903,-0.1,-1.64,-1.39,2.15
5.142970085144043,-0.41,-1.77,-1.49,2.34
5.153014898300171,-0.83,-2.02,-1.42,2.6
5.1757590770721436,-1.19,-2.23,-1.08,2.74
5.176142930984497,-1.25,-2.47,-0.59,2.83
5.18295693397522,-1.23,-2.69,-0.07,2.95
5.193054914474487,-1.13,-2.81,0.39,3.05
5.203076124191284,-1.0,-2.87,0.8,3.14
5.225106954574585,-0.91,-2.88,1.14,3.22
5.225495100021362,-0.8,-2.81,1.44,3.25
5.233187913894653,-0.65,-2.72,1.65,3.24
5.2430031299591064,-0.54,-2.62,1.81,3.22
5.253177881240845,-0.59,-2.45,1.87,3.13
5.2751240730285645,-0.62,-2.21,1.85,2.94
5.2755210399627686,-0.56,-1.85,1.8,2.64
5.2829530239105225,-0.47,-1.34,1.72,2.23
5.293091058731079,-0.44,-0.75,1.6,1.82
5.303157091140747,-0.43,-0.14,1.33,1.4
5.325429201126099,-0.51,0.41,1.05,1.23
5.32580304145813,-0.61,0.91,0.8,1.35
5.333295106887817,-0.58,1.38,0.55,1.59
5.3430750370025635,-0.39,1.84,0.22,1.89
5.35335898399353,-0.27,2.25,-0.15,2.27
5.375349044799805,-0.17,2.58,-0.48,2.62
5.3757312297821045,-0.2,2.8,-0.7,2.89
5.382948160171509,-0.24,2.89,-0.84,3.01
5.393121957778931,-0.38,3.16,-0.87,3.29
5.403069019317627,-0.38,3.72,-0.7,3.8
5.425680875778198,-0.18,4.14,-0.3,4.15
5.426058053970337,-0.07,4.38,0.18,4.38
5.433197021484375,-0.14,4.54,0.32,4.55
5.443019151687622,-0.13,4.57,-0.1,4.57
5.453169107437134,-0.31,4.18,-0.86,4.27
5.475834131240845,-0.56,3.36,-1.62,3.77
5.476207971572876,-0.64,2.37,-2.25,3.33
5.483155012130737,-0.66,1.34,-2.64,3.03
5.493161916732788,-0.75,0.5,-2.76,2.9
5.503149032592773,-0.74,-0.22,-2.54,2.65
5.526153087615967,-0.7,-0.61,-1.93,2.14
5.5265281200408936,-0.86,-0.66,-1.14,1.57
5.533164024353027,-0.88,-0.6,-0.47,1.16
5.543077230453491,-0.73,-0.5,-0.02,0.88
5.553181886672974,-0.62,-0.44,0.3,0.81
5.576513051986694,-0.53,-0.34,0.5,0.8
5.576890230178833,-0.44,-0.16,0.63,0.78
5.583348035812378,-0.32,-0.02,0.6,0.68
5.593102216720581,-0.28,0.04,0.37,0.46
5.603216886520386,-0.35,-0.08,0.04,0.36
5.627094030380249,-0.42,-0.41,-0.23,0.63
5.6274800300598145,-0.47,-0.91,-0.41,1.1
5.633151054382324,-0.41,-1.45,-0.49,1.58
5.643290042877197,-0.3,-1.95,-0.48,2.03
5.653186082839966,-0.13,-2.4,-0.39,2.43
5.6774070262908936,0.08,-2.77,-0.22,2.77
5.677793025970459,0.29,-3.01,-0.04,3.02
5.6833720207214355,0.52,-3.15,0.12,3.19
5.693165063858032,0.69,-3.26,0.25,3.34
5.703336000442505,0.88,-3.32,0.38,3.45
5.727329969406128,1.03,-3.33,0.51,3.52
5.727719068527222,1.16,-3.29,0.62,3.54
5.733361005783081,1.26,-3.26,0.72,3.56
5.7431840896606445,1.27,-3.15,0.87,3.5
5.753316164016724,1.16,-2.89,1.08,3.29
5.778207063674927,1.09,-2.48,1.38,3.04
5.778599977493286,0.99,-1.94,1.65,2.73
5.783251047134399,0.84,-1.37,1.87,2.46
5.793243169784546,0.67,-0.79,2.05,2.29
5.8032519817352295,0.38,-0.2,2.08,2.12
5.828434228897095,0.12,0.39,1.92,1.96
5.82880711555481,-0.05,0.92,1.54,1.79
5.833363056182861,-0.27,1.33,1.04,1.7
5.8432230949401855,-0.57,1.64,0.5,1.8
5.853285074234009,-0.78,1.82,0.01,1.98
5.8780810832977295,-0.94,1.93,-0.39,2.18
5.878546953201294,-1.05,2.06,-0.68,2.41
5.883474111557007,-1.2,2.19,-0.81,2.62
5.893259048461914,-1.29,2.51,-0.72,2.91
5.903268098831177,-1.22,3.07,-0.5,3.34
5.929096937179565,-0.76,3.7,-0.32,3.79
5.929565191268921,-0.03,4.35,-0.23,4.35
5.933382034301758,0.66,4.89,-0.31,4.94
5.943294048309326,1.02,5.05,-0.55,5.18
5.953295946121216,1.05,4.54,-0.89,4.74
5.978646993637085,0.82,3.46,-1.27,3.77
5.979106187820435,0.56,2.31,-1.66,2.89
5.983420133590698,0.35,1.28,-1.98,2.38
5.993334054946899,0.3,0.31,-2.05,2.09
6.003343105316162,0.4,-0.5,-1.89,1.99
6.02891993522644,0.72,-1.03,-1.51,1.96
6.029360055923462,1.12,-1.27,-0.99,1.96
6.0334179401397705,1.43,-1.29,-0.5,1.98
6.0432798862457275,1.67,-1.27,-0.13,2.1
6.05330491065979,1.92,-1.29,0.22,2.32
6.0632710456848145,1.98,-1.25,0.42,2.37
6.078384160995483,1.93,-1.18,0.5,2.31
6.0834691524505615,1.75,-1.16,0.48,2.15
6.093316078186035,1.59,-1.15,0.27,1.98
6.103341102600098,1.35,-1.12,-0.08,1.75
6.113409042358398,1.0,-1.04,-0.56,1.54
6.129522085189819,0.59,-1.0,-1.05,1.56
6.133408069610596,0.24,-1.07,-1.5,1.85
6.143338918685913,-0.1,-1.2,-1.86,2.21
6.1533730030059814,-0.44,-1.34,-1.98,2.43
6.163469076156616,-0.73,-1.49,-1.87,2.49
6.179589033126831,-0.87,-1.72,-1.51,2.44
6.183535099029541,-0.95,-1.98,-0.91,2.37
6.193334102630615,-0.99,-2.22,-0.25,2.44
6.203402996063232,-0.93,-2.4,0.38,2.6
6.213479042053223,-0.8,-2.51,0.9,2.78
6.229186058044434,-0.65,-2.52,1.31,2.91
6.233508110046387,-0.53,-2.53,1.62,3.05
6.243448972702026,-0.5,-2.47,1.81,3.1
6.253463983535767,-0.46,-2.36,1.95,3.09
6.263475179672241,-0.37,-2.16,1.99,2.96
6.279732942581177,-0.27,-1.86,1.93,2.69
6.283468961715698,-0.27,-1.45,1.83,2.35
6.293433904647827,-0.35,-0.97,1.71,1.99
6.303438901901245,-0.33,-0.42,1.52,1.61
6.313502073287964,-0.19,0.18,1.25,1.27
6.3298609256744385,-0.05,0.72,0.95,1.19
6.333533048629761,0.0,1.18,0.64,1.34
6.34344220161438,0.02,1.55,0.38,1.59
6.353513956069946,0.05,1.87,0.14,1.87
6.363457918167114,0.05,2.24,-0.03,2.24
6.3795459270477295,0.1,2.63,-0.09,2.63
6.383510112762451,0.16,2.89,-0.08,2.89
6.393341064453125,0.09,3.07,0.06,3.07
6.403382062911987,-0.16,3.42,0.4,3.44
6.413467168807983,-0.25,3.73,0.85,3.83
6.429804086685181,-0.36,4.07,1.22,4.26
6.433480978012085,-0.52,4.59,1.21,4.77
6.443386077880859,-0.62,4.96,0.68,5.04
6.453449010848999,-0.76,4.92,-0.22,4.98
6.4633049964904785,-0.95,4.29,-1.33,4.59
6.478923082351685,-1.28,3.31,-2.42,4.29
6.483229875564575,-1.67,2.23,-3.26,4.28
6.493462085723877,-1.89,1.14,-3.65,4.26
6.503469228744507,-1.87,0.15,-3.52,3.98
6.513414144515991,-1.97,-0.54,-2.99,3.62
6.529193162918091,-2.11,-0.97,-2.31,3.27
6.53333306312561,-2.01,-1.23,-1.64,2.87
6.543474912643433,-1.72,-1.22,-1.05,2.35
6.553566217422485,-1.46,-1.11,-0.58,1.92
6.563429117202759,-1.11,-0.97,-0.25,1.49
6.5788350105285645,-0.77,-0.83,-0.02,1.13
6.583386182785034,-0.61,-0.72,0.07,0.94
6.593480110168457,-0.49,-0.71,0.1,0.86
6.603537082672119,-0.42,-0.88,0.03,0.97
6.613499879837036,-0.32,-1.17,-0.12,1.21
6.629404067993164,-0.19,-1.47,-0.28,1.5
6.633603096008301,-0.04,-1.78,-0.43,1.83
6.643489122390747,0.06,-2.1,-0.53,2.16
6.653536081314087,0.17,-2.45,-0.56,2.51
6.663480997085571,0.28,-2.8,-0.52,2.86
6.679056882858276,0.43,-3.04,-0.4,3.09
6.683552980422974,0.67,-3.16,-0.2,3.23
6.6935389041900635,0.9,-3.22,0.09,3.34
6.70354700088501,1.11,-3.25,0.4,3.45
6.713578939437866,1.22,-3.26,0.62,3.53
6.72898006439209,1.28,-3.23,0.77,3.55
6.7335450649261475,1.3,-3.13,0.88,3.5
6.743558168411255,1.31,-2.95,1.0,3.37
6.753676176071167,1.32,-2.73,1.11,3.22
6.7634971141815186,1.24,-2.44,1.19,2.98
6.779124975204468,0.93,-2.1,1.26,2.61
6.783545017242432,0.55,-1.75,1.25,2.21
6.793683052062988,0.2,-1.31,1.21,1.79
6.80359411239624,-0.09,-0.84,1.11,1.39
6.813570022583008,-0.37,-0.39,0.94,1.08
6.829057931900024,-0.62,0.11,0.69,0.93
6.8334949016571045,-0.71,0.64,0.39,1.03
6.843561887741089,-0.75,1.16,0.1,1.38
6.853694200515747,-0.69,1.71,-0.08,1.84
6.863502025604248,-0.6,2.17,-0.18,2.25
6.879502058029175,-0.55,2.46,-0.21,2.52
6.883394956588745,-0.56,2.61,-0.21,2.67
6.893557071685791,-0.61,2.95,-0.1,3.01
6.903625011444092,-0.58,3.46,0.26,3.51
6.913655042648315,-0.24,3.85,0.69,3.91
6.929776906967163,0.35,4.4,0.94,4.51
6.933656930923462,0.85,5.14,0.83,5.27
6.94360613822937,1.1,5.59,0.25,5.7
6.95366907119751,0.89,5.44,-0.59,5.54
6.963602066040039,0.47,4.7,-1.52,4.96
6.979591131210327,0.03,3.64,-2.35,4.33
6.983550071716309,-0.26,2.63,-2.84,3.87
6.993649005889893,-0.46,1.6,-3.03,3.45
7.003667116165161,-0.35,0.56,-2.84,2.91
7.01361608505249,-0.01,-0.3,-2.33,2.34
7.029792070388794,0.36,-0.9,-1.53,1.81
7.033540964126587,0.69,-1.19,-0.71,1.54
7.04364800453186,0.99,-1.33,0.08,1.65
7.053673028945923,1.18,-1.44,0.72,1.99
7.063713073730469,1.3,-1.52,1.18,2.32
7.080035924911499,1.26,-1.54,1.45,2.46
7.0835301876068115,1.08,-1.46,1.46,2.33
7.093674898147583,0.86,-1.31,1.12,1.92
7.103677034378052,0.73,-1.19,0.48,1.47
7.113656044006348,0.55,-1.2,-0.28,1.34
7.130502939224243,0.17,-1.37,-0.97,1.68
7.133568048477173,-0.29,-1.57,-1.49,2.18
7.143776178359985,-0.72,-1.85,-1.75,2.64
7.153753042221069,-1.11,-2.2,-1.72,3.0
7.163667917251587,-1.32,-2.53,-1.36,3.16
7.181124925613403,-1.31,-2.73,-0.8,3.13
7.183475017547607,-1.17,-2.79,-0.15,3.02
7.193669080734253,-0.97,-2.74,0.41,2.93
7.203847169876099,-0.72,-2.65,0.82,2.86
7.213732004165649,-0.51,-2.51,1.14,2.8
7.230365037918091,-0.46,-2.37,1.38,2.78
7.2335731983184814,-0.48,-2.3,1.58,2.83
7.2437660694122314,-0.58,-2.26,1.68,2.87
7.253743886947632,-0.74,-2.17,1.67,2.83
7.263696908950806,-0.87,-1.94,1.53,2.61
7.280925035476685,-0.95,-1.61,1.29,2.27
7.283518075942993,-0.98,-1.16,0.99,1.81
7.293723106384277,-0.96,-0.69,0.69,1.36
7.303812026977539,-0.93,-0.18,0.44,1.04
7.313724040985107,-0.81,0.39,0.25,0.93
7.33089804649353,-0.47,0.97,0.08,1.08
7.333604097366333,-0.15,1.53,-0.11,1.54
7.343851089477539,-0.06,2.05,-0.22,2.06
7.353804111480713,0.07,2.38,-0.16,2.38
7.3637402057647705,0.22,2.62,-0.02,2.62
7.380665063858032,0.39,2.81,0.13,2.83
7.38357400894165,0.38,2.99,0.27,3.02
7.393903970718384,0.15,3.24,0.46,3.27
7.403675079345703,-0.09,3.5,0.74,3.57
7.413703203201294,-0.27,3.66,1.11,3.83
7.430371046066284,-0.36,3.85,1.39,4.1
7.433669090270996,-0.27,4.18,1.27,4.37
7.44389009475708,-0.08,4.36,0.63,4.4
7.4538750648498535,-0.06,4.13,-0.22,4.13
7.463780164718628,-0.28,3.4,-0.96,3.54
7.480537176132202,-0.56,2.4,-1.54,2.9
7.483716011047363,-0.76,1.38,-1.85,2.42
7.493918180465698,-0.87,0.43,-1.92,2.15
7.503845930099487,-1.09,-0.07,-1.74,2.05
7.513785123825073,-1.29,-0.27,-1.2,1.78
7.531090021133423,-1.39,-0.5,-0.59,1.59
7.5338521003723145,-1.54,-0.69,-0.18,1.69
7.543781042098999,-1.58,-0.88,0.0,1.8
7.553945064544678,-1.48,-1.06,0.05,1.82
7.56383490562439,-1.41,-1.11,0.07,1.79
7.5811169147491455,-1.35,-1.04,0.11,1.7
7.583944082260132,-1.23,-1.01,0.15,1.59
7.594006061553955,-1.16,-1.04,0.12,1.56
7.603722095489502,-1.12,-1.12,0.06,1.58
7.613811016082764,-1.1,-1.24,-0.03,1.65
7.631302118301392,-1.01,-1.41,-0.16,1.74
7.634029150009155,-0.91,-1.59,-0.3,1.85
7.644056081771851,-0.72,-1.75,-0.44,1.94
7.653769016265869,-0.47,-1.89,-0.58,2.03
7.663799047470093,-0.15,-2.07,-0.71,2.19
7.6810829639434814,0.19,-2.3,-0.76,2.42
7.684178113937378,0.53,-2.59,-0.73,2.74
7.693973064422607,0.81,-2.8,-0.62,2.98
7.703804016113281,1.04,-2.93,-0.41,3.13
7.713823080062866,1.19,-2.95,-0.21,3.18
7.73101019859314,1.32,-2.88,0.04,3.16
7.734287977218628,1.5,-2.76,0.32,3.15
7.743939161300659,1.58,-2.57,0.6,3.07
7.75376296043396,1.53,-2.36,0.9,2.95
7.763830900192261,1.4,-2.13,1.18,2.8
7.781253099441528,1.19,-1.9,1.36,2.62
7.784278154373169,0.82,-1.66,1.49,2.37
7.793950080871582,0.29,-1.35,1.48,2.02
7.8037989139556885,-0.15,-0.94,1.31,1.61
7.813899040222168,-0.46,-0.45,1.07,1.24
7.831370115280151,-0.71,0.03,0.82,1.08
7.83451509475708,-0.95,0.44,0.54,1.17
7.843895196914673,-1.1,0.77,0.24,1.36
7.853888034820557,-1.01,1.13,-0.05,1.51
7.863785028457642,-0.91,1.49,-0.28,1.76
7.881181001663208,-0.83,1.82,-0.45,2.05
7.8837668895721436,-0.69,2.21,-0.53,2.37
7.8939690589904785,-0.56,2.86,-0.39,2.94
7.903783082962036,-0.14,3.51,-0.11,3.51
7.913904905319214,0.56,4.04,0.12,4.08
7.931549072265625,1.15,4.65,0.2,4.79
7.9338109493255615,1.47,5.22,-0.03,5.42
7.943907976150513,1.47,5.41,-0.73,5.65
7.95388388633728,1.11,5.02,-1.62,5.39
7.963926076889038,0.5,4.19,-2.44,4.87
7.981398105621338,-0.22,3.16,-3.06,4.4
7.983879089355469,-0.82,2.15,-3.21,3.94
7.993975877761841,-1.21,1.26,-2.87,3.35
8.00470519065857,-1.09,0.6,-2.16,2.49
8.013888120651245,-0.4,0.05,-1.28,1.34
8.031145095825195,0.19,-0.41,-0.45,0.63
8.033744096755981,0.54,-0.76,0.2,0.95
8.043884992599487,0.78,-0.96,0.66,1.4
8.053865194320679,0.98,-1.09,0.94,1.74
8.063822031021118,0.96,-1.16,1.08,1.85
8.081340074539185,0.81,-1.2,1.0,1.75
8.083819150924683,0.61,-1.22,0.65,1.51
8.094030141830444,0.39,-1.22,0.1,1.28
8.103965997695923,0.14,-1.15,-0.52,1.26
8.114006996154785,0.04,-1.09,-1.13,1.57
8.132216215133667,-0.13,-1.06,-1.49,1.83
8.133762121200562,-0.23,-1.07,-1.63,1.96
8.144022226333618,-0.25,-1.08,-1.54,1.89
8.153908967971802,-0.2,-1.17,-1.27,1.73
8.164056062698364,-0.21,-1.41,-0.85,1.65
8.182389974594116,-0.24,-1.7,-0.3,1.74
8.183787107467651,-0.25,-1.95,0.15,1.97
8.194079160690308,-0.36,-2.23,0.53,2.32
8.203808069229126,-0.57,-2.49,0.82,2.68
8.214018106460571,-0.77,-2.7,1.0,2.98
8.23353099822998,-0.9,-2.88,1.11,3.21
8.233989000320435,-1.0,-2.94,1.1,3.29
8.244073152542114,-1.04,-2.86,1.01,3.2
8.253877878189087,-0.97,-2.7,0.91,3.0
8.263911962509155,-0.83,-2.46,0.85,2.73
8.282746076583862,-0.56,-2.12,0.85,2.35
8.28406310081482,-0.19,-1.69,0.89,1.91
8.294084072113037,0.11,-1.24,0.96,1.57
8.304038047790527,0.25,-0.82,0.98,1.3
8.314152002334595,0.32,-0.53,0.92,1.1
8.333420038223267,0.41,-0.29,0.72,0.87
8.334012031555176,0.57,-0.02,0.44,0.72
8.3440420627594,0.67,0.27,0.11,0.73
8.353868007659912,0.63,0.57,-0.19,0.87
8.36404299736023,0.46,0.99,-0.31,1.13
8.382934093475342,0.28,1.47,-0.25,1.51
8.3837890625,0.17,1.85,-0.03,1.85
8.3940908908844,0.14,2.11,0.24,2.12
8.406790018081665,0.56,2.71,0.4,2.79
8.41680908203125,0.66,3.21,0.44,3.3
8.434108018875122,0.53,3.55,0.59,3.63
8.436553001403809,0.13,3.67,0.64,3.72
8.446683168411255,-0.19,3.9,0.47,3.93
8.456754922866821,-0.35,4.2,0.05,4.21
8.466745138168335,-0.29,4.23,-0.64,4.28
8.483451128005981,-0.2,3.92,-1.46,4.18
8.486655950546265,-0.1,3.15,-2.17,3.82
8.49672818183899,-0.1,2.06,-2.65,3.35
8.506730079650879,-0.16,0.97,-2.86,3.02
8.51675820350647,-0.26,0.04,-2.68,2.69
8.53383994102478,-0.56,-0.51,-2.16,2.28
8.536625146865845,-0.8,-0.8,-1.47,1.85
8.546773195266724,-0.73,-1.09,-0.73,1.5
8.556838035583496,-0.75,-1.3,-0.03,1.5
8.566781044006348,-0.78,-1.38,0.51,1.66
8.58345913887024,-0.71,-1.26,0.82,1.66
8.586631059646606,-0.6,-0.99,0.95,1.49
8.59682822227478,-0.47,-0.69,0.93,1.24
8.606781005859375,-0.37,-0.42,0.72,0.91
8.616757154464722,-0.29,-0.24,0.29,0.47
8.634196996688843,-0.22,-0.29,-0.26,0.44
8.636642217636108,-0.24,-0.55,-0.68,0.9
8.646780014038086,-0.33,-0.98,-0.84,1.33
8.656838178634644,-0.32,-1.42,-0.85,1.68
8.666794061660767,-0.13,-1.8,-0.7,1.93
8.683982133865356,0.11,-2.11,-0.48,2.16
8.686681032180786,0.35,-2.26,-0.21,2.29
8.696961164474487,0.59,-2.25,0.08,2.32
8.7068932056427,0.87,-2.17,0.39,2.37
8.716930150985718,0.98,-2.1,0.65,2.4
8.734658002853394,1.31,-1.94,0.83,2.48
8.736816167831421,1.6,-1.79,0.87,2.55
8.7467679977417,1.68,-1.7,0.96,2.57
8.756778001785278,1.5,-1.7,1.02,2.48
8.766821146011353,1.18,-1.76,1.07,2.37
8.784948110580444,0.75,-1.81,1.08,2.23
8.786722898483276,0.29,-1.79,1.02,2.08
8.797024011611938,-0.15,-1.68,0.92,1.92
8.80673098564148,-0.54,-1.5,0.85,1.8
8.816869020462036,-0.86,-1.28,0.76,1.71
8.834089994430542,-1.11,-1.04,0.68,1.66
8.836730003356934,-1.27,-0.75,0.61,1.59
8.847025156021118,-1.36,-0.41,0.59,1.53
8.856870889663696,-1.36,0.02,0.64,1.5
8.866760015487671,-1.24,0.48,0.62,1.46
8.884663105010986,-1.06,0.97,0.53,1.53
8.886813879013062,-0.9,1.38,0.42,1.7
8.897001028060913,-0.8,1.72,0.34,1.92
8.906945943832397,-0.83,2.05,0.28,2.22
8.916865110397339,-0.92,2.35,0.25,2.53
8.93508505821228,-0.93,2.86,0.32,3.02
8.936961889266968,-0.63,3.44,0.53,3.53
8.946990013122559,-0.11,3.96,0.74,4.03
8.957405090332031,0.23,4.46,0.86,4.54
8.96688199043274,0.34,4.71,0.65,4.76
8.98432993888855,0.16,4.5,0.0,4.5
8.987046957015991,-0.28,3.81,-0.84,3.91
8.997071027755737,-0.58,2.76,-1.71,3.29
9.00678300857544,-0.73,1.67,-2.5,3.09
9.016918897628784,-0.82,0.74,-2.93,3.13
9.034853219985962,-0.64,-0.04,-2.79,2.86
9.037222146987915,-0.27,-0.56,-2.16,2.24
9.047009229660034,0.19,-0.86,-1.31,1.57
9.056912183761597,0.65,-0.99,-0.47,1.27
9.066879987716675,0.95,-1.05,0.16,1.42
9.085159063339233,1.16,-1.0,0.62,1.65
9.087280035018921,1.47,-0.9,0.85,1.92
9.097059965133667,1.58,-0.73,0.92,1.96
9.106855154037476,1.52,-0.52,0.86,1.82
9.116913080215454,1.34,-0.33,0.58,1.49
9.134856939315796,1.07,-0.1,0.03,1.07
9.137417078018188,0.86,0.07,-0.63,1.06
9.14708399772644,0.55,0.07,-1.29,1.4
9.15688705444336,0.27,-0.04,-1.8,1.82
9.166930913925171,0.02,-0.24,-1.99,2.0
9.185432195663452,-0.16,-0.53,-1.85,1.93
9.187477111816406,-0.35,-0.95,-1.4,1.72
9.197054147720337,-0.58,-1.41,-0.78,1.71
9.20689606666565,-0.71,-1.83,-0.14,1.96
9.216958045959473,-0.73,-2.26,0.45,2.41
9.235100984573364,-0.63,-2.63,0.98,2.87
9.236751079559326,-0.46,-2.8,1.32,3.12
9.247019052505493,-0.27,-2.85,1.46,3.21
9.257053136825562,-0.14,-2.86,1.47,3.21
9.266895055770874,-0.19,-2.85,1.38,3.17
9.285295009613037,-0.23,-2.75,1.2,3.0
9.286870002746582,-0.21,-2.57,1.0,2.76
9.297086954116821,-0.24,-2.35,0.84,2.5
9.30693507194519,-0.19,-2.09,0.77,2.23
9.316994905471802,-0.15,-1.73,0.73,1.88
9.335310220718384,-0.04,-1.31,0.72,1.49
9.336856126785278,0.08,-0.88,0.71,1.13
9.347064018249512,0.11,-0.45,0.67,0.81
9.356959104537964,0.15,-0.04,0.65,0.66
9.36693787574768,0.25,0.4,0.62,0.77
9.385608911514282,0.4,0.93,0.52,1.13
9.386910200119019,0.54,1.47,0.37,1.6
9.39710021018982,0.72,1.94,0.27,2.08
9.406872034072876,0.75,2.36,0.25,2.48
9.417036056518555,0.71,2.6,0.27,2.7
9.43559718132019,0.54,2.49,0.24,2.55
9.436821222305298,0.31,2.35,0.09,2.37
9.447050094604492,0.13,2.82,-0.01,2.82
9.457096099853516,-0.06,3.76,0.16,3.76
9.467051029205322,-0.13,4.17,0.4,4.19
9.485474109649658,0.01,4.17,0.51,4.2
9.486813068389893,0.08,4.39,0.25,4.39
9.49714207649231,0.06,4.43,-0.4,4.44
9.507111072540283,0.01,3.86,-1.21,4.04
9.517091989517212,-0.05,2.83,-2.06,3.5
9.53556513786316,0.02,1.7,-2.64,3.14
9.53695011138916,0.13,0.62,-2.76,2.83
9.547168016433716,0.1,-0.28,-2.46,2.47
9.556989908218384,-0.13,-0.83,-1.7,1.89
9.567054033279419,-0.49,-0.98,-0.73,1.31
9.585696935653687,-0.79,-0.96,0.09,1.24
9.58684515953064,-0.94,-0.95,0.69,1.5
9.5972158908844,-0.98,-0.92,0.98,1.66
9.60694408416748,-0.95,-0.75,0.96,1.54
9.617140054702759,-0.87,-0.45,0.67,1.18
9.635669946670532,-0.83,-0.14,0.24,0.87
9.637033224105835,-0.87,0.03,-0.14,0.88
9.647219896316528,-1.01,0.06,-0.55,1.15
9.65716290473938,-1.02,-0.18,-0.95,1.4
9.667074918746948,-0.77,-0.63,-1.16,1.52
9.6853768825531,-0.43,-1.11,-1.05,1.58
9.686904191970825,0.06,-1.6,-0.74,1.76
9.697098016738892,0.52,-1.96,-0.42,2.07
9.707205057144165,0.81,-2.2,-0.12,2.34
9.717130899429321,0.86,-2.3,0.09,2.45
9.73559021949768,0.8,-2.41,0.32,2.55
9.73697304725647,0.72,-2.54,0.5,2.68
9.747134923934937,0.57,-2.72,0.72,2.87
9.757053136825562,0.56,-2.88,0.94,3.08
9.76713490486145,0.65,-2.91,1.02,3.15
9.786501169204712,0.67,-2.79,1.0,3.03
9.786992073059082,0.66,-2.62,0.99,2.87
9.797377109527588,0.51,-2.43,0.97,2.66
9.807064056396484,0.34,-2.18,1.03,2.43
9.817134141921997,0.25,-1.94,1.13,2.25
9.83591103553772,0.16,-1.65,1.22,2.05
9.836982011795044,0.11,-1.38,1.21,1.83
9.847171068191528,0.02,-1.19,1.07,1.6
9.857095956802368,-0.19,-1.02,0.79,1.3
9.86706805229187,-0.44,-0.8,0.43,1.0
9.886096000671387,-0.52,-0.41,0.08,0.66
9.887001037597656,-0.41,0.24,-0.29,0.55
9.897178888320923,-0.32,0.94,-0.6,1.16
9.90717601776123,-0.4,1.56,-0.63,1.72
9.917171001434326,-0.6,2.0,-0.33,2.11
9.936422109603882,-0.68,2.23,0.05,2.33
9.936990976333618,-0.58,2.45,0.3,2.53
9.947220087051392,-0.32,2.83,0.31,2.86
9.957110166549683,-0.02,3.39,0.23,3.39
9.967148065567017,0.34,3.91,0.26,3.93
9.986384153366089,0.74,4.28,0.3,4.35
9.987001180648804,0.8,4.63,0.32,4.7
9.997217893600464,0.54,4.76,0.13,4.79
10.007057905197144,0.25,4.45,-0.32,4.46
10.017203092575073,-0.03,3.68,-0.94,3.79
10.0365149974823,-0.26,2.62,-1.6,3.08
10.036956071853638,-0.37,1.5,-2.11,2.61
10.047202110290527,-0.29,0.4,-2.22,2.27
10.057174921035767,-0.02,-0.53,-2.0,2.06
10.067206144332886,0.4,-1.11,-1.49,1.9
10.086890935897827,0.72,-1.37,-0.84,1.76
10.087285995483398,0.83,-1.28,-0.28,1.55
10.097255945205688,0.87,-1.02,0.19,1.35
10.107099056243896,0.86,-0.76,0.52,1.26
10.117272138595581,0.68,-0.58,0.59,1.07
10.136529207229614,0.47,-0.42,0.4,0.74
10.137023210525513,0.31,-0.26,0.0,0.4
10.147234201431274,0.02,-0.09,-0.46,0.46
10.157172918319702,-0.27,0.09,-0.84,0.88
10.167200088500977,-0.51,0.15,-1.12,1.23
10.186727046966553,-0.67,0.11,-1.35,1.51
10.187132120132446,-0.69,-0.01,-1.49,1.64
10.19728398323059,-0.66,-0.25,-1.48,1.63
10.20713496208191,-0.61,-0.62,-1.26,1.53
10.217236995697021,-0.54,-1.14,-0.87,1.53
10.236908197402954,-0.53,-1.68,-0.4,1.8
10.237294912338257,-0.43,-2.16,0.09,2.2
10.247303009033203,-0.43,-2.58,0.55,2.67
10.257158994674683,-0.43,-2.96,0.95,3.13
10.267349004745483,-0.37,-3.24,1.23,3.48
10.28729510307312,-0.41,-3.42,1.42,3.72
10.287703037261963,-0.39,-3.46,1.47,3.77
10.297367095947266,-0.28,-3.39,1.43,3.68
10.307204008102417,-0.14,-3.15,1.35,3.42
10.317362070083618,-0.03,-2.8,1.29,3.08
10.337485074996948,0.07,-2.39,1.26,2.7
10.337853193283081,0.25,-1.95,1.24,2.32
10.34736704826355,0.39,-1.5,1.11,1.9
10.357275009155273,0.48,-1.02,0.92,1.45
10.367369890213013,0.56,-0.49,0.72,1.03
10.387500047683716,0.6,0.08,0.54,0.81
10.387869119644165,0.72,0.6,0.33,0.99
10.397384881973267,0.78,1.08,0.12,1.33
10.407218217849731,0.76,1.53,-0.15,1.71
10.417359113693237,0.67,1.93,-0.47,2.09
10.437656164169312,0.55,2.28,-0.77,2.46
10.4380362033844,0.49,2.45,-1.04,2.7
10.447423219680786,0.42,2.41,-1.14,2.69
10.457279920578003,0.35,2.5,-1.03,2.72
10.467373132705688,0.21,3.05,-0.62,3.11
10.48739504814148,-0.04,3.73,0.05,3.73
10.487795114517212,-0.34,4.14,0.71,4.21
10.49743103981018,-0.42,4.52,1.12,4.67
10.507179021835327,-0.21,4.88,1.07,5.0
10.517384052276611,-0.08,4.86,0.59,4.89
10.537612199783325,-0.05,4.14,-0.18,4.14
10.537995100021362,-0.16,2.97,-1.11,3.17
10.547420024871826,-0.26,1.57,-1.97,2.53
10.557279109954834,-0.22,0.15,-2.48,2.49
10.567444086074829,-0.4,-1.01,-2.56,2.78
10.586951971054077,-0.71,-1.68,-2.07,2.75
10.587337017059326,-0.91,-1.93,-1.08,2.39
10.597499132156372,-1.05,-1.91,-0.15,2.18
10.607083082199097,-1.2,-1.79,0.52,2.21
10.617447137832642,-1.1,-1.54,1.02,2.14
10.63727593421936,-0.8,-1.15,1.4,1.98
10.637673139572144,-0.45,-0.64,1.58,1.76
10.64742398262024,-0.29,-0.2,1.48,1.52
10.657224893569946,-0.3,-0.05,1.01,1.05
10.66745901107788,-0.3,-0.13,0.26,0.41
10.687171220779419,-0.48,-0.2,-0.42,0.66
10.687566995620728,-0.6,-0.31,-0.97,1.18
10.697434186935425,-0.46,-0.58,-1.49,1.66
10.707205057144165,-0.29,-1.03,-1.78,2.07
10.717528104782104,-0.05,-1.54,-1.81,2.37
10.737368106842041,0.25,-2.06,-1.52,2.57
10.737766027450562,0.57,-2.47,-0.99,2.72
10.747414112091064,0.86,-2.64,-0.41,2.8
10.757236003875732,1.1,-2.64,0.2,2.86
10.767593145370483,1.32,-2.62,0.66,3.0
10.788372039794922,1.3,-2.61,0.98,3.07
10.788763999938965,1.25,-2.65,1.25,3.18
10.797380208969116,1.13,-2.65,1.45,3.22
10.807409048080444,0.86,-2.57,1.63,3.16
10.817560911178589,0.64,-2.35,1.76,3.0
10.83859896659851,0.42,-1.98,1.78,2.69
10.838993072509766,0.17,-1.52,1.68,2.27
10.847407102584839,-0.09,-1.05,1.52,1.84
10.858525037765503,-0.36,-0.56,1.3,1.46
10.867340087890625,-0.63,-0.06,1.0,1.18
10.888692140579224,-0.78,0.39,0.63,1.07
10.889076948165894,-0.93,0.74,0.22,1.2
10.897545099258423,-1.06,1.03,-0.14,1.48
10.907827138900757,-1.09,1.24,-0.43,1.7
10.917691946029663,-1.17,1.35,-0.58,1.87
10.938556909561157,-1.21,1.46,-0.55,1.97
10.93894910812378,-1.15,1.66,-0.46,2.07
10.947319030761719,-1.02,1.97,-0.28,2.23
10.957871198654175,-0.81,2.2,-0.1,2.34
10.96759295463562,-0.67,2.59,0.06,2.67
10.988791227340698,-0.6,3.23,0.23,3.29
10.989178895950317,-0.22,3.66,0.35,3.68
10.99750018119812,0.22,3.87,0.33,3.89
11.008007049560547,0.3,4.14,0.1,4.15
11.017621994018555,0.33,4.27,-0.37,4.29
11.03927493095398,0.18,3.89,-1.0,4.02
11.039666891098022,-0.01,3.03,-1.68,3.46
11.047492027282715,-0.19,2.02,-2.26,3.03
11.058130979537964,-0.29,1.14,-2.51,2.77
11.067617177963257,-0.12,0.54,-2.23,2.29
11.089082956314087,0.26,0.14,-1.5,1.52
11.089464902877808,0.64,-0.21,-0.67,0.95
11.097561120986938,0.85,-0.47,-0.06,0.97
11.107535123825073,0.92,-0.63,0.32,1.16
11.123289108276367,1.01,-0.68,0.48,1.3
11.127442121505737,1.11,-0.66,0.41,1.35
11.137500047683716,1.07,-0.52,0.15,1.19
11.147495031356812,1.02,-0.32,-0.25,1.09
11.157589197158813,0.89,-0.19,-0.7,1.14
11.173094034194946,0.65,-0.17,-1.12,1.3
11.177446126937866,0.4,-0.2,-1.41,1.47
11.187477111816406,0.17,-0.29,-1.64,1.67
11.197620153427124,0.02,-0.46,-1.72,1.78
11.20753788948059,-0.07,-0.66,-1.64,1.76
11.223917007446289,-0.12,-0.91,-1.36,1.64
11.227647066116333,-0.2,-1.27,-0.91,1.57
11.237579107284546,-0.3,-1.74,-0.35,1.8
11.247596979141235,-0.45,-2.21,0.26,2.27
11.257560968399048,-0.51,-2.57,0.85,2.75
11.273935079574585,-0.43,-2.91,1.35,3.23
11.277645111083984,-0.45,-3.18,1.68,3.62
11.287589073181152,-0.44,-3.3,1.86,3.81
11.29763913154602,-0.43,-3.33,1.93,3.87
11.307562112808228,-0.43,-3.26,1.85,3.77
11.322956085205078,-0.37,-3.12,1.64,3.54
11.327616930007935,-0.26,-2.81,1.39,3.14
11.337573051452637,-0.19,-2.38,1.16,2.65
11.347593069076538,-0.17,-1.95,0.98,2.18
11.357667207717896,-0.04,-1.51,0.88,1.74
11.373256921768188,0.16,-1.04,0.75,1.29
11.37767505645752,0.27,-0.61,0.58,0.88
11.387527227401733,0.38,-0.26,0.35,0.57
11.39768099784851,0.59,0.04,0.03,0.59
11.407634019851685,0.69,0.25,-0.24,0.77
11.422420024871826,0.75,0.43,-0.29,0.91
11.42751407623291,0.8,0.66,-0.12,1.04
11.437566995620728,0.87,0.99,0.11,1.32
11.447683095932007,0.99,1.45,0.35,1.79
11.457648992538452,1.04,1.83,0.45,2.15
11.472624063491821,0.95,2.02,0.43,2.27
11.477711915969849,0.72,2.17,0.24,2.29
11.487571001052856,0.37,2.68,0.15,2.7
11.497655153274536,-0.03,3.46,0.43,3.48
11.507658004760742,-0.35,4.08,0.8,4.17
11.523975133895874,-0.49,4.69,1.0,4.82
11.527672052383423,-0.52,5.31,0.72,5.38
11.537596940994263,-0.63,5.39,0.0,5.42
11.547724962234497,-0.57,4.81,-0.78,4.9
11.557733058929443,-0.38,3.86,-1.47,4.14
11.574485063552856,-0.17,2.74,-1.98,3.38
11.577778100967407,0.09,1.53,-2.2,2.68
11.587632894515991,0.1,0.28,-2.1,2.12
11.597758054733276,-0.1,-0.76,-1.66,1.82
11.607722997665405,-0.49,-1.34,-0.95,1.71
11.624788999557495,-0.81,-1.43,-0.19,1.65
11.627761125564575,-0.86,-1.35,0.37,1.64
11.63773512840271,-0.84,-1.36,0.76,1.76
11.64774203300476,-0.85,-1.35,0.97,1.86
11.657723188400269,-0.87,-1.22,1.03,1.81
11.674558877944946,-0.99,-1.04,0.92,1.7
11.677682161331177,-1.1,-0.89,0.6,1.53
11.687691926956177,-1.25,-0.78,0.12,1.47
11.697768926620483,-1.43,-0.78,-0.32,1.66
11.707698106765747,-1.52,-0.91,-0.75,1.92
11.724241018295288,-1.43,-1.1,-1.11,2.11
11.727761030197144,-1.21,-1.32,-1.35,2.24
11.737726926803589,-0.84,-1.59,-1.45,2.31
11.747831106185913,-0.38,-1.85,-1.34,2.31
11.757843017578125,0.08,-2.12,-1.07,2.37
11.774714231491089,0.52,-2.3,-0.71,2.46
11.777825117111206,0.91,-2.4,-0.26,2.57
11.787688970565796,1.34,-2.4,0.19,2.75
11.797865152359009,1.74,-2.37,0.64,3.0
11.807767152786255,1.99,-2.39,0.98,3.26
11.824702978134155,2.15,-2.38,1.29,3.45
11.827662229537964,2.1,-2.4,1.6,3.56
11.837836027145386,1.89,-2.38,1.88,3.57
11.847852945327759,1.5,-2.22,2.05,3.37
11.857852220535278,1.1,-1.94,2.09,3.05
11.874776124954224,0.78,-1.56,2.12,2.74
11.87771201133728,0.35,-1.05,2.08,2.35
11.88784909248352,-0.08,-0.43,2.01,2.05
11.89789605140686,-0.34,0.03,1.87,1.9
11.907821893692017,-0.47,0.26,1.59,1.67
11.924782037734985,-0.69,0.39,1.31,1.53
11.927746057510376,-0.91,0.49,0.98,1.42
11.937885046005249,-1.04,0.61,0.65,1.36
11.9478600025177,-1.25,0.77,0.29,1.49
11.957926988601685,-1.55,0.97,-0.13,1.83
11.974733114242554,-1.67,1.15,-0.72,2.15
11.977710962295532,-1.28,1.54,-1.39,2.43
11.98781704902649,-0.9,2.08,-1.65,2.8
11.997906923294067,-0.94,2.64,-1.5,3.17
12.008136987686157,-0.85,3.35,-1.1,3.62
12.023842096328735,-0.89,3.34,-1.21,3.66
12.02491021156311,-0.46,3.91,-0.81,4.01
12.035104036331177,-0.01,4.45,-0.78,4.51
12.045058965682983,0.28,4.75,-1.07,4.87
12.055140018463135,0.39,4.45,-1.53,4.72
12.073857069015503,0.39,3.69,-2.14,4.28
12.074995994567871,0.33,2.79,-2.72,3.91
12.085272073745728,0.28,2.0,-3.03,3.64
12.09512710571289,0.32,1.34,-2.78,3.1
12.105305910110474,0.54,0.85,-1.97,2.21
12.124957084655762,0.81,0.5,-0.99,1.37
12.125341176986694,1.03,0.21,-0.19,1.06
12.135265111923218,1.06,0.02,0.26,1.09
12.145118951797485,1.15,-0.1,0.42,1.22
12.155134916305542,1.36,-0.1,0.53,1.46
12.174842119216919,1.23,-0.06,0.35,1.28
12.175295114517212,1.18,-0.14,0.01,1.18
12.185278177261353,0.81,-0.29,-0.44,0.96
12.195064067840576,0.48,-0.32,-0.84,1.01
12.205297231674194,0.28,-0.4,-1.11,1.21
12.22523808479309,0.14,-0.52,-1.24,1.35
12.225666999816895,0.05,-0.7,-1.25,1.43
12.235222101211548,0.04,-0.95,-1.12,1.46
12.24512004852295,-0.03,-1.29,-0.88,1.56
12.255295991897583,-0.13,-1.73,-0.5,1.8
12.275552988052368,-0.29,-2.2,-0.09,2.22
12.275986909866333,-0.5,-2.62,0.36,2.69
12.285389184951782,-0.64,-3.01,0.77,3.17
12.295114994049072,-0.79,-3.32,1.14,3.59
12.305370092391968,-0.96,-3.47,1.42,3.87
12.32576608657837,-0.77,-3.57,1.65,4.0
12.326145887374878,-0.9,-3.46,1.78,3.99
12.335525035858154,-1.05,-3.25,1.8,3.86
12.34512209892273,-1.03,-2.97,1.79,3.61
12.35529899597168,-0.94,-2.67,1.72,3.31
12.375643968582153,-0.66,-2.36,1.7,2.98
12.376009225845337,-0.32,-1.99,1.67,2.61
12.385370969772339,0.0,-1.53,1.62,2.22
12.395256042480469,0.27,-1.06,1.4,1.77
12.409324884414673,0.81,-0.36,0.44,0.98
12.427847146987915,0.88,-0.12,-0.08,0.89
12.429002046585083,0.93,0.18,-0.53,1.08
12.43925404548645,0.94,0.55,-0.81,1.35
12.449198961257935,0.91,0.94,-0.88,1.57
12.459270000457764,0.88,1.32,-0.75,1.75
12.476197957992554,0.87,1.68,-0.47,1.94
12.479085206985474,0.82,1.99,-0.18,2.15
12.489315032958984,0.71,2.19,-0.01,2.3
12.499354124069214,0.39,2.56,0.07,2.59
12.509151220321655,0.03,3.26,0.19,3.26
12.525736093521118,-0.3,4.03,0.5,4.07
12.529120206832886,-0.64,4.41,0.84,4.53
12.539252996444702,-0.91,4.62,0.83,4.78
12.549280881881714,-1.01,4.79,0.22,4.9
12.55924391746521,-1.01,4.57,-0.72,4.73
12.57562518119812,-1.05,3.81,-1.66,4.28
12.579117059707642,-1.08,2.76,-2.38,3.8
12.589257001876831,-0.88,1.64,-2.74,3.31
12.5992910861969,-0.72,0.68,-2.55,2.73
12.609184980392456,-0.75,0.13,-1.8,1.95
12.625385046005249,-0.94,-0.15,-0.76,1.21
12.629119157791138,-1.11,-0.34,0.09,1.16
12.639276027679443,-1.15,-0.51,0.65,1.41
12.649281024932861,-1.18,-0.63,0.85,1.58
12.65929102897644,-1.04,-0.6,0.79,1.43
12.675769090652466,-0.86,-0.48,0.55,1.12
12.679127931594849,-0.76,-0.37,0.19,0.86
12.689280033111572,-0.56,-0.33,-0.15,0.66
12.699352025985718,-0.52,-0.37,-0.43,0.76
12.709254026412964,-0.67,-0.48,-0.76,1.12
12.725497961044312,-0.56,-0.81,-0.97,1.38
12.72915506362915,-0.33,-1.2,-1.06,1.63
12.739259004592896,-0.11,-1.6,-1.04,1.91
12.74932312965393,0.25,-2.07,-0.85,2.25
12.759298086166382,0.61,-2.54,-0.54,2.66
12.775663137435913,0.89,-2.91,-0.11,3.04
12.779216051101685,1.04,-3.18,0.43,3.37
12.789300203323364,1.13,-3.32,0.97,3.63
12.799415111541748,1.19,-3.31,1.41,3.78
12.809283018112183,1.23,-3.2,1.65,3.8
12.82564091682434,1.21,-3.07,1.71,3.71
12.829174041748047,1.06,-3.0,1.65,3.58
12.839347124099731,0.88,-2.95,1.52,3.43
12.849360227584839,0.75,-2.82,1.35,3.21
12.859353065490723,0.65,-2.52,1.21,2.87
12.876480102539062,0.5,-2.13,1.06,2.43
12.87919306755066,0.27,-1.8,0.87,2.01
12.88952088356018,-0.02,-1.56,0.69,1.7
12.899376153945923,-0.37,-1.27,0.49,1.41
12.909349203109741,-0.71,-0.85,0.29,1.14
12.926330089569092,-1.14,-0.35,0.14,1.2
12.929218053817749,-1.56,0.03,0.11,1.56
12.939488172531128,-1.95,0.31,0.12,1.97
12.94942593574524,-2.0,0.67,0.1,2.11
12.95929217338562,-1.89,1.11,0.1,2.19
12.976692914962769,-1.62,1.66,0.05,2.32
12.97937798500061,-1.41,2.19,0.02,2.6
12.9893639087677,-1.3,2.73,0.02,3.02
12.999252080917358,-1.22,3.47,-0.06,3.67
13.009324073791504,-1.19,4.16,0.03,4.32
13.027111053466797,-0.91,4.69,0.33,4.78
13.02944016456604,-0.43,5.42,0.53,5.46
13.03942608833313,-0.25,6.17,0.34,6.18
13.049309968948364,-0.17,6.49,-0.33,6.5
13.059314966201782,0.0,5.88,-1.33,6.02
13.076955080032349,0.03,4.64,-2.38,5.21
13.07955288887024,0.15,3.13,-3.15,4.44
13.089487075805664,0.51,1.86,-3.34,3.85
13.09946894645691,0.77,0.82,-2.88,3.09
13.109400987625122,0.89,-0.07,-1.94,2.13
13.126964092254639,1.03,-0.73,-1.09,1.66
13.129534006118774,1.18,-1.1,-0.46,1.67
13.13965916633606,1.35,-1.27,0.1,1.85
13.149368047714233,1.43,-1.24,0.52,1.96
13.159597158432007,1.43,-1.14,0.7,1.95
13.177303075790405,1.37,-1.02,0.6,1.81
13.179687023162842,1.22,-0.83,0.24,1.49
13.18952202796936,0.97,-0.62,-0.32,1.19
13.199650049209595,0.6,-0.55,-0.84,1.16
13.209335088729858,0.28,-0.55,-1.2,1.34
13.22719693183899,0.02,-0.62,-1.46,1.58
13.229810953140259,-0.2,-0.79,-1.62,1.81
13.239748001098633,-0.26,-1.0,-1.67,1.96
13.249361038208008,-0.25,-1.28,-1.51,1.99
13.259569883346558,-0.31,-1.6,-1.1,1.96
13.277526140213013,-0.42,-2.04,-0.49,2.13
13.279964208602905,-0.57,-2.51,0.2,2.58
13.289576053619385,-0.55,-2.89,0.87,3.06
13.299516916275024,-0.43,-3.1,1.38,3.42
13.309380054473877,-0.43,-3.21,1.79,3.7
13.32774305343628,-0.47,-3.31,2.09,3.94
13.33004903793335,-0.43,-3.31,2.22,4.0
13.339821100234985,-0.39,-3.17,2.27,3.91
13.34945797920227,-0.37,-2.83,2.19,3.59
13.359586000442505,-0.4,-2.35,2.01,3.11
13.37801194190979,-0.42,-1.83,1.82,2.61
13.380189180374146,-0.39,-1.42,1.58,2.15
13.38959002494812,-0.3,-1.07,1.31,1.71
13.39960503578186,-0.11,-0.73,0.95,1.2
13.40947699546814,0.08,-0.45,0.49,0.67
13.427909135818481,0.23,-0.16,0.04,0.28
13.429244995117188,0.34,0.27,-0.35,0.55
13.439635038375854,0.56,0.83,-0.44,1.09
13.449514150619507,0.85,1.55,-0.21,1.78
13.45964002609253,1.25,2.26,0.24,2.59
13.477656126022339,1.4,2.61,0.46,2.99
13.479396104812622,1.18,2.58,0.34,2.85
13.4895920753479,0.81,2.29,-0.15,2.43
13.499658107757568,0.46,2.3,-0.79,2.47
13.50943922996521,0.19,2.99,-1.07,3.18
13.52817702293396,-0.1,3.64,-0.78,3.72
13.5294029712677,-0.29,3.66,-0.16,3.67
13.53959608078003,-0.16,3.85,0.26,3.86
13.549612998962402,-0.12,4.18,0.2,4.18
13.559571027755737,-0.4,3.91,-0.23,3.93
13.578294038772583,-0.8,3.06,-0.88,3.28
13.579437971115112,-1.05,2.14,-1.52,2.82
13.589576005935669,-1.14,1.11,-2.04,2.58
13.59952712059021,-1.01,0.2,-2.2,2.42
13.609610080718994,-0.94,-0.29,-1.88,2.12
13.628679990768433,-0.83,-0.49,-1.09,1.45
13.62934422492981,-0.85,-0.69,-0.23,1.11
13.639678001403809,-0.9,-0.84,0.33,1.27
13.649420976638794,-0.93,-0.87,0.63,1.42
13.659641981124878,-0.92,-0.78,0.7,1.39
13.678855180740356,-0.85,-0.7,0.54,1.22
13.679542064666748,-0.82,-0.59,0.21,1.03
13.68964695930481,-0.74,-0.5,-0.23,0.92
13.699485063552856,-0.66,-0.55,-0.63,1.06
13.709557056427002,-0.59,-0.6,-0.89,1.22
13.728255033493042,-0.5,-0.76,-1.03,1.37
13.729396104812622,-0.35,-1.14,-1.02,1.56
13.739661931991577,-0.2,-1.67,-0.92,1.91
13.74954104423523,0.03,-2.16,-0.75,2.28
13.759630918502808,0.29,-2.55,-0.46,2.6
13.779122114181519,0.61,-2.83,-0.05,2.89
13.779512166976929,0.92,-2.95,0.37,3.11
13.789651155471802,1.16,-2.98,0.8,3.29
13.799551010131836,1.29,-2.94,1.12,3.4
13.809583902359009,1.33,-2.82,1.36,3.4
13.828846216201782,1.36,-2.68,1.5,3.35
13.829442024230957,1.46,-2.55,1.63,3.36
13.839580059051514,1.38,-2.42,1.63,3.22
13.849475145339966,1.09,-2.23,1.5,2.9
13.859596967697144,0.74,-1.94,1.4,2.5
13.878961086273193,0.39,-1.6,1.35,2.12
13.879556894302368,0.12,-1.19,1.27,1.74
13.889578104019165,-0.06,-0.74,1.13,1.35
13.89948296546936,-0.24,-0.27,0.96,1.02
13.90964388847351,-0.5,0.17,0.77,0.93
13.928803205490112,-0.78,0.55,0.63,1.14
13.92945909500122,-0.94,0.91,0.51,1.4
13.939534902572632,-1.05,1.25,0.37,1.67
13.949497938156128,-1.2,1.53,0.19,1.95
13.959610223770142,-1.34,1.7,-0.03,2.16
13.978629112243652,-1.35,1.89,-0.31,2.34
13.979461908340454,-1.25,2.11,-0.65,2.53
13.989650011062622,-1.16,2.36,-0.95,2.79
13.999490022659302,-1.03,2.87,-1.04,3.22
14.009657144546509,-0.85,3.54,-0.84,3.73
14.028620958328247,-0.35,3.97,-0.48,4.01
14.02947211265564,-0.03,4.25,-0.17,4.25
14.039648056030273,0.09,4.52,-0.08,4.52
14.04962706565857,0.25,4.33,-0.37,4.35
14.059649229049683,0.22,3.56,-0.94,3.68
14.07884407043457,0.18,2.53,-1.6,2.99
14.07944107055664,0.25,1.63,-2.08,2.65
14.089715003967285,0.35,1.0,-2.07,2.32
14.099607229232788,0.57,0.48,-1.63,1.79
14.109730005264282,0.87,0.03,-0.95,1.28
14.129274129867554,1.09,-0.22,-0.48,1.21
14.129671096801758,1.25,-0.31,-0.3,1.32
14.139743089675903,1.43,-0.44,-0.31,1.52
14.149506092071533,1.69,-0.5,-0.44,1.81
14.159690141677856,1.79,-0.51,-0.61,1.95
14.179100036621094,1.82,-0.44,-0.86,2.06
14.179500102996826,1.79,-0.28,-1.04,2.08
14.189746141433716,1.53,-0.14,-1.15,1.91
14.199498891830444,1.24,-0.03,-1.22,1.73
14.20972204208374,1.02,-0.08,-1.35,1.69
14.228677034378052,0.8,-0.24,-1.47,1.69
14.229550123214722,0.55,-0.52,-1.48,1.66
14.239720106124878,0.27,-0.84,-1.31,1.57
14.24955701828003,-0.06,-1.2,-0.97,1.54
14.259772062301636,-0.33,-1.64,-0.54,1.75
14.279612064361572,-0.67,-2.13,0.03,2.23
14.28001093864441,-0.89,-2.57,0.6,2.78
14.289776086807251,-0.89,-2.87,1.07,3.18
14.299596071243286,-0.87,-3.1,1.36,3.49
14.309767007827759,-0.91,-3.28,1.49,3.71
14.329761028289795,-0.95,-3.39,1.5,3.82
14.3301100730896,-0.97,-3.39,1.45,3.81
14.339823961257935,-0.98,-3.29,1.41,3.71
14.349637031555176,-1.0,-3.12,1.37,3.55
14.359795093536377,-0.89,-2.87,1.34,3.29
14.37953495979309,-0.77,-2.47,1.37,2.92
14.379923105239868,-0.62,-2.02,1.39,2.52
14.389814138412476,-0.42,-1.53,1.32,2.06
14.399616003036499,-0.05,-1.01,1.12,1.5
14.409826040267944,0.27,-0.59,0.74,0.98
14.42955994606018,0.48,-0.35,0.3,0.66
14.429950952529907,0.56,-0.13,-0.08,0.58
14.439911127090454,0.67,0.21,-0.31,0.76
14.449658155441284,0.75,0.7,-0.41,1.1
14.459759950637817,0.86,1.23,-0.41,1.55
14.479806184768677,1.0,1.69,-0.33,1.99
14.48020601272583,1.03,2.15,-0.19,2.39
14.48987102508545,0.92,2.49,-0.03,2.65
14.499604940414429,0.66,2.84,0.19,2.92
14.509819030761719,0.35,3.54,0.55,3.59
14.529781103134155,0.04,4.16,1.03,4.28
14.530189037322998,-0.18,4.6,1.31,4.78
14.539860963821411,-0.4,5.12,1.16,5.26
14.549669981002808,-0.6,5.36,0.49,5.41
14.559791088104248,-0.78,4.98,-0.46,5.06
14.580233097076416,-0.97,4.02,-1.62,4.44
14.580610036849976,-1.12,2.88,-2.52,3.98
14.589920043945312,-1.08,1.72,-3.09,3.69
14.59957504272461,-0.87,0.75,-3.02,3.23
14.609888076782227,-0.89,0.09,-2.34,2.5
14.630107164382935,-1.14,-0.33,-1.31,1.76
14.63050389289856,-1.31,-0.59,-0.46,1.5
14.63994288444519,-1.33,-0.84,0.02,1.57
14.649652004241943,-1.37,-1.03,0.26,1.73
14.659894227981567,-1.34,-1.08,0.29,1.74
14.680193185806274,-1.26,-1.01,0.12,1.61
14.680581092834473,-1.11,-0.83,-0.16,1.39
14.689908027648926,-0.84,-0.66,-0.46,1.16
14.699644088745117,-0.69,-0.64,-0.76,1.2
14.709985971450806,-0.62,-0.78,-1.06,1.45
14.730571985244751,-0.47,-1.02,-1.27,1.69
14.730952024459839,-0.24,-1.39,-1.34,1.94
14.73990797996521,-0.05,-1.81,-1.3,2.22
14.749706029891968,0.21,-2.2,-1.08,2.45
14.76000714302063,0.59,-2.5,-0.68,2.65
14.780470132827759,0.84,-2.71,-0.15,2.84
14.780858039855957,1.11,-2.84,0.42,3.07
14.789932012557983,1.31,-2.91,0.94,3.32
14.79977011680603,1.44,-2.91,1.34,3.51
14.810072183609009,1.5,-2.89,1.61,3.63
14.830464124679565,1.49,-2.83,1.77,3.65
14.830844163894653,1.39,-2.73,1.89,3.59
14.839942216873169,1.19,-2.61,1.94,3.46
14.849988222122192,0.93,-2.44,1.98,3.27
14.860061883926392,0.65,-2.18,2.01,3.03
14.880950212478638,0.39,-1.76,2.01,2.69
14.881346940994263,0.21,-1.26,1.97,2.34
14.889973878860474,0.0,-0.87,1.86,2.05
14.900023221969604,-0.24,-0.46,1.67,1.74
14.910022020339966,-0.49,-0.03,1.33,1.41
14.930870056152344,-0.74,0.39,0.83,1.17
14.931255102157593,-0.94,0.74,0.26,1.22
14.939939022064209,-1.07,1.05,-0.22,1.51
14.95011019706726,-1.13,1.28,-0.54,1.79
14.96001410484314,-1.18,1.43,-0.74,1.99
14.981184005737305,-1.17,1.57,-0.81,2.11
14.981581926345825,-1.11,1.72,-0.84,2.21
14.98997187614441,-0.95,1.9,-0.88,2.29
15.000179052352905,-0.81,2.15,-0.87,2.45
15.010061979293823,-0.81,2.83,-0.69,3.02
15.031109094619751,-0.81,3.64,-0.37,3.74
15.031498193740845,-0.45,4.0,0.03,4.02
15.039944887161255,-0.05,4.51,0.31,4.52
15.050352096557617,0.24,5.26,0.19,5.26
15.060062170028687,0.43,5.47,-0.34,5.49
15.081493139266968,0.58,4.78,-1.21,4.96
15.081870079040527,0.62,3.57,-2.15,4.21
15.090046167373657,0.56,2.17,-2.87,3.64
15.100444078445435,0.66,1.01,-3.03,3.26
15.110068082809448,0.72,0.09,-2.49,2.59
15.131417036056519,0.91,-0.59,-1.58,1.91
15.131807088851929,1.08,-1.08,-0.74,1.69
15.139977216720581,1.11,-1.36,-0.12,1.75
15.150513887405396,1.17,-1.46,0.34,1.9
15.160047054290771,1.14,-1.4,0.55,1.88
15.18177604675293,1.12,-1.22,0.57,1.75
15.182167053222656,1.2,-0.96,0.3,1.56
15.190006017684937,1.23,-0.69,-0.17,1.42
15.199925184249878,0.94,-0.45,-0.76,1.28
15.210177183151245,0.68,-0.2,-1.33,1.5
15.231878995895386,0.39,-0.08,-1.79,1.83
15.23225712776184,0.01,-0.1,-2.06,2.06
15.240029096603394,-0.15,-0.25,-2.12,2.13
15.250025033950806,-0.28,-0.55,-1.9,1.99
15.260138034820557,-0.46,-1.03,-1.35,1.75
15.281426191329956,-0.75,-1.72,-0.58,1.96
15.281808137893677,-0.96,-2.34,0.25,2.54
15.290141105651855,-0.89,-2.82,0.97,3.11
15.300009965896606,-0.73,-3.24,1.51,3.64
15.310172080993652,-0.61,-3.46,1.84,3.96
15.332268953323364,-0.51,-3.58,1.97,4.11
15.332649946212769,-0.53,-3.61,1.92,4.12
15.34004807472229,-0.6,-3.48,1.76,3.94
15.350113153457642,-0.61,-3.24,1.58,3.65
15.360156059265137,-0.51,-2.85,1.4,3.21
15.382339000701904,-0.31,-2.34,1.27,2.68
15.38271689414978,-0.19,-1.87,1.19,2.22
15.390129089355469,-0.07,-1.43,1.05,1.77
15.400093078613281,0.11,-0.98,0.88,1.32
15.410173177719116,0.36,-0.58,0.73,0.99
15.432377099990845,0.51,-0.16,0.53,0.75
15.432759046554565,0.66,0.28,0.29,0.77
15.440152883529663,0.8,0.72,0.05,1.07
15.45008111000061,0.87,1.06,-0.1,1.37
15.460150957107544,0.83,1.25,-0.14,1.5
15.482202053070068,0.71,1.34,-0.12,1.52
15.482609987258911,0.59,1.49,-0.07,1.6
15.490196943283081,0.52,1.72,-0.03,1.79
15.500055074691772,0.57,2.05,-0.05,2.12
15.510254144668579,0.52,2.66,-0.03,2.71
15.532896995544434,0.4,3.66,0.11,3.68
15.533282995223999,0.13,4.21,0.45,4.23
15.540155172348022,-0.12,4.33,0.94,4.43
15.550157070159912,-0.15,4.67,0.93,4.76
15.560188055038452,-0.21,5.08,0.25,5.09
15.58233094215393,-0.24,4.93,-0.81,5.0
15.582704067230225,-0.39,4.13,-1.91,4.56
15.590209007263184,-0.62,2.99,-2.8,4.14
15.60019302368164,-0.63,1.74,-3.2,3.69
15.610364198684692,-0.56,0.73,-2.87,3.01
15.632736921310425,-0.68,0.09,-1.86,1.98
15.633105039596558,-0.88,-0.27,-0.77,1.2
15.640184164047241,-0.97,-0.6,0.06,1.14
15.650179147720337,-1.1,-0.9,0.53,1.51
15.66021990776062,-1.15,-1.06,0.64,1.68
15.682284116744995,-1.11,-0.95,0.52,1.55
15.682647943496704,-1.13,-0.75,0.11,1.36
15.690172910690308,-1.07,-0.61,-0.41,1.29
15.700078010559082,-1.0,-0.58,-0.81,1.41
15.710239171981812,-1.02,-0.58,-1.09,1.6
15.731917142868042,-0.97,-0.74,-1.15,1.67
15.73229718208313,-0.86,-1.02,-1.08,1.71
15.740187883377075,-0.7,-1.37,-0.92,1.79
15.750132083892822,-0.48,-1.77,-0.73,1.97
15.760225057601929,-0.18,-2.18,-0.54,2.25
15.782716989517212,0.19,-2.55,-0.3,2.57
15.783087015151978,0.49,-2.84,0.02,2.88
15.790210008621216,0.86,-2.98,0.42,3.12
15.800212144851685,1.17,-3.04,0.9,3.37
15.810365915298462,1.32,-2.99,1.23,3.49
15.832143068313599,1.42,-2.91,1.38,3.51
15.83251404762268,1.5,-2.88,1.43,3.54
15.840140104293823,1.6,-2.79,1.43,3.51
15.850257158279419,1.69,-2.63,1.4,3.42
15.860291004180908,1.75,-2.42,1.39,3.29
15.883208990097046,1.67,-2.13,1.39,3.04
15.883587121963501,1.53,-1.78,1.4,2.73
15.890187978744507,1.31,-1.41,1.36,2.35
15.900108098983765,0.9,-1.05,1.22,1.84
15.910203218460083,0.47,-0.71,1.03,1.33
15.93350100517273,0.07,-0.4,0.76,0.86
15.93387508392334,-0.32,-0.09,0.46,0.56
15.940274953842163,-0.75,0.21,0.23,0.81
15.950206995010376,-1.13,0.49,0.03,1.23
15.96029019355774,-1.32,0.85,-0.03,1.57
15.982639074325562,-1.41,1.23,0.05,1.87
15.983006000518799,-1.48,1.49,0.3,2.12
15.99047303199768,-1.33,1.77,0.45,2.25
16.000177145004272,-1.1,2.03,0.41,2.34
16.006058931350708,-1.12,2.03,0.39,2.35
16.016346216201782,-1.06,2.28,0.13,2.51
16.032520055770874,-1.01,2.86,-0.17,3.03
16.036168098449707,-0.75,3.64,-0.28,3.72
16.046354055404663,-0.18,4.18,-0.24,4.19
16.05633807182312,0.25,4.63,-0.34,4.64
16.06638789176941,0.27,5.07,-0.65,5.11
16.083055019378662,0.22,5.23,-1.18,5.36
16.086220026016235,0.15,4.77,-1.75,5.08
16.096450090408325,0.1,3.77,-2.25,4.39
16.106534004211426,0.06,2.63,-2.57,3.67
16.116400957107544,0.11,1.56,-2.46,2.91
16.133862018585205,0.2,0.63,-1.91,2.02
16.136250019073486,0.38,-0.08,-1.16,1.22
16.14654517173767,0.6,-0.6,-0.57,1.02
16.156522035598755,0.69,-1.06,-0.25,1.28
16.16640591621399,0.68,-1.47,-0.11,1.62
16.183776140213013,0.78,-1.69,-0.06,1.86
16.186496019363403,0.87,-1.75,-0.12,1.95
16.196531057357788,0.88,-1.63,-0.26,1.87
16.206455945968628,0.89,-1.26,-0.48,1.61
16.21643900871277,0.82,-0.89,-0.78,1.43
16.23407006263733,0.6,-0.7,-1.1,1.43
16.23644709587097,0.42,-0.5,-1.39,1.53
16.246538877487183,0.24,-0.33,-1.59,1.64
16.25655508041382,0.12,-0.25,-1.69,1.71
16.266342878341675,0.07,-0.21,-1.61,1.62
16.28417420387268,0.09,-0.33,-1.36,1.4
16.286659002304077,0.0,-0.6,-0.94,1.11
16.29666018486023,-0.17,-1.03,-0.39,1.11
16.30636191368103,-0.5,-1.64,0.24,1.73
16.316503047943115,-0.76,-2.24,0.8,2.49
16.33409094810486,-0.77,-2.67,1.21,3.03
16.336876153945923,-0.75,-2.96,1.5,3.4
16.346533060073853,-0.73,-3.14,1.69,3.63
16.356288194656372,-0.73,-3.26,1.75,3.77
16.36642289161682,-0.74,-3.29,1.74,3.79
16.384000062942505,-0.75,-3.22,1.69,3.71
16.386933088302612,-0.68,-2.99,1.61,3.46
16.39645791053772,-0.51,-2.56,1.47,2.99
16.40936589241028,-0.21,-1.63,1.2,2.03
16.41916298866272,-0.13,-1.32,1.08,1.71
16.435034036636353,-0.07,-0.99,0.9,1.33
16.43925404548645,0.07,-0.62,0.71,0.94
16.449141025543213,0.2,-0.2,0.51,0.58
16.459197998046875,0.28,0.28,0.24,0.46
16.46918797492981,0.39,0.73,-0.04,0.82
16.485759019851685,0.45,1.21,-0.28,1.32
16.48930311203003,0.54,1.73,-0.41,1.85
16.499147176742554,0.69,2.16,-0.38,2.29
16.509242057800293,0.84,2.41,-0.25,2.56
16.519147157669067,0.85,2.46,-0.14,2.6
16.53514790534973,0.63,2.59,-0.06,2.66
16.53925919532776,0.45,3.33,0.17,3.36
16.54915690422058,0.31,4.13,0.69,4.19
16.55921721458435,0.2,4.41,1.04,4.53
16.569250106811523,-0.07,4.61,0.9,4.69
16.58442997932434,-0.23,4.89,0.33,4.9
16.589215993881226,-0.14,4.92,-0.49,4.94
16.599178075790405,-0.11,4.36,-1.29,4.54
16.609177112579346,-0.22,3.31,-1.93,3.83
16.619226217269897,-0.26,2.06,-2.34,3.12
16.635143995285034,-0.24,0.98,-2.25,2.46
16.639186143875122,-0.5,0.25,-1.66,1.75
16.6491539478302,-0.85,-0.21,-0.87,1.23
16.659281015396118,-1.13,-0.57,-0.32,1.3
16.66925311088562,-1.29,-0.99,-0.12,1.63
16.684480905532837,-1.46,-1.32,-0.09,1.97
16.689183950424194,-1.52,-1.39,-0.22,2.07
16.699201107025146,-1.51,-1.25,-0.45,2.01
16.709273099899292,-1.4,-1.1,-0.67,1.9
16.71929907798767,-1.23,-1.02,-0.84,1.8
16.735209226608276,-1.11,-0.97,-0.87,1.71
16.739310026168823,-1.04,-0.96,-0.81,1.63
16.749269008636475,-0.93,-1.1,-0.79,1.64
16.75933003425598,-0.87,-1.33,-0.79,1.77
16.76933002471924,-0.66,-1.64,-0.75,1.92
16.786444902420044,-0.34,-1.99,-0.66,2.12
16.789287090301514,0.07,-2.33,-0.5,2.38
16.79940700531006,0.46,-2.61,-0.27,2.66
16.8093740940094,0.83,-2.79,0.11,2.91
16.819288969039917,1.16,-2.88,0.59,3.16
16.836011171340942,1.38,-2.82,1.07,3.31
16.839264154434204,1.41,-2.65,1.42,3.32
16.849334001541138,1.43,-2.4,1.63,3.23
16.85936999320984,1.4,-2.21,1.59,3.06
16.86922287940979,1.36,-2.07,1.35,2.82
16.886240005493164,1.25,-1.91,1.07,2.52
16.889154195785522,1.12,-1.67,0.95,2.22
16.899235010147095,0.88,-1.39,1.0,1.92
16.909318208694458,0.63,-1.07,1.06,1.63
16.91942000389099,0.4,-0.79,1.07,1.38
16.936031103134155,0.1,-0.54,0.99,1.13
16.93921399116516,-0.14,-0.27,0.79,0.84
16.949275016784668,-0.31,0.01,0.52,0.6
16.95936608314514,-0.62,0.21,0.28,0.71
16.969348192214966,-0.93,0.34,0.05,0.99
16.986313104629517,-1.16,0.48,-0.11,1.26
16.98922109603882,-1.31,0.65,-0.11,1.46
16.999279022216797,-1.32,0.94,0.03,1.62
17.00942301750183,-1.17,1.31,0.17,1.76
17.019280195236206,-0.93,1.61,0.26,1.87
17.03657102584839,-0.67,1.84,0.24,1.97
17.039418935775757,-0.5,2.21,0.18,2.27
17.04932713508606,-0.44,3.02,0.27,3.06
17.059600114822388,-0.18,3.77,0.49,3.8
17.069402933120728,0.24,4.16,0.6,4.2
17.086019039154053,0.28,4.6,0.46,4.63
17.089214086532593,0.28,5.05,0.03,5.05
17.099517107009888,0.18,5.08,-0.74,5.13
17.109433889389038,0.0,4.35,-1.61,4.63
17.11958622932434,-0.09,3.13,-2.28,3.87
17.136708974838257,-0.11,1.95,-2.58,3.23
17.139482021331787,-0.03,0.91,-2.34,2.51
17.149334192276,0.03,-0.04,-1.6,1.6
17.15949010848999,0.01,-0.81,-0.73,1.09
17.16937518119812,0.1,-1.24,-0.12,1.24
17.186690092086792,0.24,-1.46,0.23,1.49
17.189254999160767,0.22,-1.59,0.25,1.62
17.199496030807495,0.34,-1.51,0.12,1.55
17.209314107894897,0.44,-1.32,-0.04,1.39
17.219605207443237,0.54,-1.04,-0.37,1.22
17.236923933029175,0.62,-0.61,-0.82,1.19
17.23947310447693,0.38,-0.44,-1.3,1.42
17.249398946762085,0.07,-0.35,-1.78,1.81
17.259685039520264,-0.1,-0.29,-2.08,2.1
17.270519971847534,-0.28,-0.35,-2.16,2.2
17.28625988960266,-0.38,-0.49,-2.06,2.15
17.289279222488403,-0.35,-0.67,-1.78,1.93
17.29955220222473,-0.28,-0.89,-1.34,1.63
17.30939507484436,-0.23,-1.24,-0.77,1.47
17.319566011428833,-0.37,-1.7,-0.09,1.74
17.336878061294556,-0.61,-2.28,0.56,2.42
17.33945608139038,-0.6,-2.72,1.07,2.98
17.34942603111267,-0.56,-2.95,1.51,3.36
17.359649896621704,-0.51,-3.14,1.82,3.66
17.369444131851196,-0.45,-3.26,2.04,3.87
17.387076139450073,-0.42,-3.26,2.14,3.92
17.389326095581055,-0.38,-3.14,2.09,3.79
17.39965796470642,-0.25,-2.83,1.97,3.45
17.409534215927124,-0.12,-2.4,1.87,3.04
17.419592142105103,-0.08,-1.96,1.76,2.63
17.43721604347229,-0.06,-1.63,1.65,2.32
17.439404010772705,-0.03,-1.34,1.53,2.03
17.449575185775757,0.05,-0.95,1.37,1.66
17.459637880325317,0.22,-0.51,1.14,1.26
17.46944499015808,0.4,-0.08,0.88,0.96
17.48740315437317,0.56,0.3,0.57,0.85
17.489567041397095,0.71,0.64,0.19,0.97
17.49965214729309,0.89,0.92,-0.2,1.29
17.509544134140015,0.91,1.21,-0.55,1.61
17.519551992416382,0.85,1.56,-0.77,1.93
17.537180185317993,0.69,1.96,-0.77,2.21
17.53947401046753,0.47,2.2,-0.67,2.34
17.549558877944946,0.18,2.32,-0.54,2.38
17.55963921546936,-0.13,2.62,-0.39,2.65
17.569478034973145,-0.4,3.3,-0.04,3.32
17.587218046188354,-0.54,4.06,0.54,4.13
17.589669942855835,-0.55,4.59,1.09,4.74
17.59962511062622,-0.54,5.1,1.21,5.26
17.60967707633972,-0.51,5.38,0.78,5.46
17.619598150253296,-0.54,5.02,-0.16,5.05
17.636635065078735,-0.56,4.08,-1.31,4.32
17.63981318473816,-0.57,2.8,-2.28,3.65
17.649627923965454,-0.54,1.43,-2.91,3.28
17.659703969955444,-0.31,0.24,-2.92,2.94
17.669527053833008,-0.34,-0.57,-2.4,2.49
17.68779706954956,-0.54,-0.89,-1.42,1.76
17.689900159835815,-0.72,-1.09,-0.35,1.35
17.699529886245728,-0.85,-1.3,0.45,1.61
17.70966410636902,-0.97,-1.39,0.9,1.91
17.719561100006104,-0.98,-1.27,0.95,1.86
17.73782706260681,-0.96,-1.06,0.73,1.6
17.73934817314148,-0.92,-0.79,0.39,1.27
17.749677896499634,-0.85,-0.55,0.06,1.01
17.75962519645691,-0.73,-0.49,-0.23,0.9
17.769570112228394,-0.67,-0.56,-0.47,0.99
17.787532091140747,-0.59,-0.67,-0.66,1.11
17.78934121131897,-0.45,-0.8,-0.9,1.28
17.799551010131836,-0.32,-1.05,-1.08,1.53
17.809587001800537,-0.29,-1.39,-1.12,1.8
17.819541215896606,-0.09,-1.8,-1.0,2.06
17.83786702156067,0.22,-2.17,-0.62,2.26
17.839354038238525,0.45,-2.48,-0.16,2.52
17.849623918533325,0.73,-2.62,0.39,2.74
17.859605073928833,0.91,-2.65,0.99,2.97
17.86950421333313,1.0,-2.68,1.5,3.22
17.888671159744263,1.07,-2.73,1.85,3.46
17.8893780708313,1.07,-2.7,2.02,3.53
17.89954113960266,0.99,-2.5,1.99,3.34
17.909532070159912,1.0,-2.27,1.79,3.05
17.91954493522644,0.89,-2.0,1.53,2.67
17.938915014266968,0.63,-1.8,1.24,2.27
17.939543962478638,0.35,-1.64,1.03,1.96
17.949650049209595,0.19,-1.4,0.94,1.69
17.959409952163696,0.06,-1.05,0.93,1.4
17.969638109207153,-0.22,-0.67,0.87,1.11
17.988516092300415,-0.7,-0.17,0.69,0.99
17.989609956741333,-1.13,0.33,0.5,1.27
17.999626874923706,-1.52,0.62,0.34,1.67
18.00941014289856,-1.82,0.66,0.34,1.96
18.019689083099365,-1.93,0.7,0.57,2.13
18.038499116897583,-1.87,0.99,0.77,2.25
18.039586067199707,-1.64,1.39,0.76,2.28
18.049674034118652,-1.25,1.73,0.55,2.2
18.059454202651978,-0.8,2.04,0.15,2.19
18.06966209411621,-0.52,2.55,-0.24,2.61
18.089014053344727,-0.45,3.46,-0.39,3.51
18.089583158493042,-0.23,4.35,-0.35,4.37
18.09964919090271,0.2,4.82,-0.19,4.82
18.109604120254517,0.51,5.26,-0.41,5.3
18.11966109275818,0.56,5.52,-1.08,5.65
18.138597011566162,0.44,5.04,-1.93,5.41
18.13960599899292,0.29,3.88,-2.86,4.82
18.1497061252594,0.09,2.65,-3.37,4.28
18.159512996673584,-0.05,1.58,-3.1,3.47
18.169790983200073,-0.19,0.66,-1.95,2.06
18.188422918319702,-0.13,-0.14,-0.43,0.47
18.18951392173767,0.14,-0.98,0.72,1.22
18.19966721534729,0.51,-1.68,1.29,2.17
18.20977520942688,1.07,-1.94,1.43,2.63
18.219669103622437,1.49,-1.83,1.0,2.56
18.238560914993286,1.57,-1.47,0.3,2.17
18.239500999450684,1.56,-1.18,-0.58,2.04
18.249763011932373,1.44,-0.85,-1.31,2.12
18.2595431804657,1.14,-0.52,-1.69,2.1
18.269724130630493,0.94,-0.15,-1.81,2.04
18.288769006729126,0.68,0.11,-1.67,1.8
18.28953194618225,0.42,0.21,-1.39,1.46
18.299767017364502,0.28,0.09,-1.1,1.13
18.309847116470337,0.06,-0.22,-0.77,0.8
18.31974506378174,-0.19,-0.71,-0.42,0.84
18.339027166366577,-0.39,-1.27,-0.07,1.33
18.33955693244934,-0.49,-1.77,0.23,1.85
18.349831104278564,-0.47,-2.17,0.42,2.25
18.359791040420532,-0.35,-2.51,0.48,2.57
18.36977219581604,-0.36,-2.74,0.59,2.82
18.38891100883484,-0.5,-2.88,0.68,3.0
18.389518976211548,-0.52,-2.88,0.75,3.02
18.39975094795227,-0.44,-2.84,0.78,2.97
18.40971302986145,-0.37,-2.75,0.81,2.89
18.419780015945435,-0.21,-2.58,0.87,2.73
18.439152002334595,0.06,-2.27,0.91,2.44
18.439581155776978,0.37,-1.93,0.94,2.17
18.449706077575684,0.53,-1.64,0.94,1.96
18.45960807800293,0.5,-1.44,0.76,1.7
18.469752073287964,0.48,-1.29,0.5,1.46
18.48909306526184,0.52,-1.14,0.19,1.26
18.489593029022217,0.55,-0.92,-0.1,1.07
18.499794006347656,0.51,-0.59,-0.21,0.8
18.50965905189514,0.48,-0.27,-0.15,0.57
18.519859075546265,0.37,0.04,0.07,0.37
18.53939414024353,0.22,0.41,0.34,0.57
18.539777040481567,0.11,0.92,0.66,1.13
18.549772024154663,0.12,1.52,0.96,1.8
18.559655904769897,0.16,2.07,1.06,2.33
18.569802045822144,0.06,2.53,0.9,2.68
18.58878207206726,-0.11,3.15,0.53,3.19
18.589622020721436,-0.43,4.16,0.37,4.19
18.599732160568237,-0.56,5.13,0.61,5.19
18.609774112701416,-0.52,5.76,0.74,5.83
18.61978793144226,-0.31,5.93,0.34,5.94
18.639458894729614,-0.09,5.47,-0.54,5.49
18.63984513282776,0.05,4.37,-1.54,4.63
18.649946928024292,0.08,3.01,-2.29,3.78
18.659751176834106,0.24,1.73,-2.59,3.12
18.66981291770935,0.31,0.62,-2.43,2.52
18.689187049865723,0.08,-0.17,-1.91,1.91
18.689800024032593,-0.2,-0.62,-1.19,1.35
18.69986605644226,-0.43,-0.99,-0.48,1.18
18.709654092788696,-0.71,-1.23,0.07,1.42
18.719853162765503,-0.87,-1.32,0.36,1.62
18.739288091659546,-0.87,-1.36,0.36,1.65
18.73967719078064,-0.95,-1.33,0.08,1.63
18.749820947647095,-1.06,-1.17,-0.25,1.59
18.759702920913696,-1.08,-0.95,-0.38,1.48
18.769821882247925,-1.16,-0.77,-0.38,1.44
18.790451049804688,-0.98,-0.65,-0.29,1.21
18.790823221206665,-0.77,-0.66,-0.25,1.04
18.799861192703247,-0.54,-0.81,-0.27,1.01
18.809848070144653,-0.29,-1.05,-0.23,1.11
18.819833040237427,-0.03,-1.33,-0.22,1.34
18.839617013931274,0.25,-1.59,-0.18,1.61
18.8399920463562,0.45,-1.83,-0.03,1.88
18.849869966506958,0.61,-2.04,0.17,2.13
18.859699964523315,0.76,-2.21,0.38,2.36
18.86987805366516,0.89,-2.3,0.58,2.53
18.890170097351074,1.09,-2.34,0.84,2.71
18.890541076660156,1.16,-2.45,1.09,2.92
18.899802923202515,0.95,-2.56,1.29,3.01
18.909770011901855,0.74,-2.58,1.4,3.02
18.919771909713745,0.6,-2.44,1.45,2.9
18.940349102020264,0.39,-2.09,1.42,2.55
18.940714120864868,0.05,-1.6,1.4,2.12
18.9497811794281,-0.26,-1.1,1.38,1.78
18.959853887557983,-0.44,-0.71,1.35,1.58
18.969874143600464,-0.59,-0.44,1.18,1.39
18.989063024520874,-0.69,-0.22,0.78,1.06
18.989744901657104,-0.88,-0.13,0.25,0.92
18.999864101409912,-1.13,-0.13,-0.32,1.18
19.00978708267212,-1.38,-0.02,-0.73,1.56
19.01990818977356,-1.51,0.32,-0.96,1.81
19.03894305229187,-1.55,0.73,-0.71,1.85
19.039796113967896,-1.57,1.07,-0.21,1.91
19.049815893173218,-1.37,1.34,0.21,1.92
19.059813022613525,-0.99,1.69,0.17,1.96
19.069916009902954,-0.77,2.22,0.16,2.35
19.09005618095398,-0.76,2.99,0.34,3.1
19.09043002128601,-0.68,3.96,0.67,4.07
19.099880933761597,-0.34,4.9,1.25,5.06
19.109920024871826,0.01,5.62,1.73,5.88
19.120044946670532,-0.06,6.07,1.53,6.26
19.139957189559937,-0.06,5.89,0.49,5.91
19.140326023101807,-0.03,4.81,-1.06,4.92
19.149980068206787,0.07,3.25,-2.54,4.12
19.159812211990356,0.27,1.67,-3.41,3.8
19.170111894607544,0.32,0.27,-3.55,3.57
19.190349102020264,0.37,-0.75,-2.94,3.05
19.190723180770874,0.64,-1.49,-1.91,2.5
19.19998812675476,0.66,-2.08,-1.08,2.43
19.209911108016968,0.88,-2.37,-0.48,2.57
19.220131158828735,1.23,-2.43,-0.05,2.72
19.240511178970337,1.35,-2.32,0.13,2.68
19.240875005722046,1.36,-2.07,0.17,2.48
19.250067949295044,1.32,-1.79,0.13,2.22
19.260038137435913,1.31,-1.34,0.01,1.87
19.270107984542847,1.27,-0.76,-0.21,1.49
19.290770053863525,1.1,-0.26,-0.51,1.24
19.291125059127808,0.87,0.08,-0.77,1.16
19.299914121627808,0.68,0.23,-0.98,1.21
19.31000018119812,0.56,0.15,-1.11,1.25
19.320215940475464,0.39,-0.07,-1.05,1.12
19.340764045715332,0.15,-0.41,-0.86,0.96
19.34114098548889,-0.11,-0.86,-0.49,0.99
19.35004210472107,-0.33,-1.35,-0.05,1.39
19.360252141952515,-0.49,-1.84,0.45,1.95
19.370050191879272,-0.49,-2.2,0.82,2.39
19.39078116416931,-0.47,-2.43,1.01,2.67
19.39116597175598,-0.48,-2.58,1.11,2.84
19.400001049041748,-0.45,-2.73,1.15,2.99
19.410338163375854,-0.43,-2.84,1.12,3.08
19.420142889022827,-0.33,-2.81,1.03,3.01
19.4409658908844,-0.18,-2.68,0.84,2.81
19.441345930099487,-0.11,-2.52,0.66,2.6
19.450059175491333,-0.05,-2.33,0.52,2.38
19.460381031036377,0.13,-2.09,0.49,2.15
19.470221042633057,0.32,-1.75,0.57,1.86
19.490883111953735,0.4,-1.29,0.66,1.5
19.491265058517456,0.49,-0.75,0.67,1.11
19.500030040740967,0.53,-0.07,0.74,0.91
19.51050591468811,0.48,0.6,0.71,1.04
19.520230054855347,0.38,1.1,0.6,1.3
19.542404890060425,0.3,1.32,0.44,1.42
19.542764902114868,0.25,1.39,0.17,1.42
19.5500910282135,0.33,1.49,-0.22,1.54
19.56056809425354,0.57,1.77,-0.44,1.91
19.570300102233887,0.68,2.39,-0.32,2.5
19.592445135116577,0.52,3.26,0.16,3.3
19.592825174331665,0.38,3.98,0.81,4.07
19.600062131881714,0.17,4.7,1.31,4.88
19.61062788963318,0.13,5.15,1.45,5.35
19.62016010284424,0.08,5.34,0.91,5.41
19.641520023345947,-0.09,5.09,-0.19,5.09
19.641896963119507,-0.31,4.21,-1.48,4.47
19.6501681804657,-0.39,2.88,-2.91,4.11
19.66003704071045,-0.45,1.54,-3.96,4.27
19.67556405067444,-0.57,0.53,-4.17,4.24
19.68008589744568,-0.5,-0.13,-3.48,3.51
19.69008994102478,-0.41,-0.58,-2.18,2.29
19.700202226638794,-0.58,-0.81,-0.89,1.33
19.710138082504272,-0.55,-0.87,0.13,1.03
19.724667072296143,-0.4,-0.86,0.8,1.24
19.730114221572876,-0.34,-0.79,1.12,1.41
19.740122079849243,-0.3,-0.77,1.16,1.42
19.75011706352234,-0.25,-0.69,0.91,1.16
19.760119199752808,-0.12,-0.52,0.54,0.75
19.775017976760864,-0.1,-0.45,0.07,0.46
19.780023097991943,-0.34,-0.53,-0.37,0.73
19.790056943893433,-0.43,-0.85,-0.76,1.21
19.80014204978943,-0.46,-1.41,-1.02,1.8
19.810296058654785,-0.44,-1.99,-1.0,2.27
19.825570106506348,-0.24,-2.49,-0.73,2.6
19.83004593849182,0.05,-2.82,-0.38,2.84
19.84014916419983,0.4,-3.04,-0.04,3.06
19.85014009475708,0.69,-3.18,0.28,3.26
19.86018395423889,0.89,-3.27,0.56,3.43
19.875437021255493,0.98,-3.3,0.83,3.54
19.88002896308899,1.1,-3.15,1.02,3.48
19.89007592201233,1.12,-2.92,1.26,3.37
19.900270223617554,0.97,-2.7,1.44,3.21
19.910211086273193,0.73,-2.46,1.57,3.0
19.925931215286255,0.57,-2.15,1.66,2.77
19.93011498451233,0.4,-1.67,1.66,2.38
19.94029402732849,0.18,-1.07,1.61,1.94
19.95021891593933,-0.12,-0.5,1.47,1.55
19.960041999816895,-0.44,-0.04,1.27,1.34
19.97572112083435,-0.72,0.27,0.87,1.16
19.98005700111389,-1.14,0.47,0.38,1.29
19.99003505706787,-1.41,0.72,-0.05,1.58
20.000881910324097,-1.59,0.95,-0.29,1.87
20.007413148880005,-1.59,0.96,-0.27,1.87
20.025153875350952,-1.72,1.2,-0.38,2.13
20.02756094932556,-1.5,1.5,-0.39,2.15
20.037638902664185,-1.25,1.89,-0.16,2.27
20.047619104385376,-0.9,2.22,0.11,2.39
20.05767798423767,-0.67,2.42,0.23,2.52
20.075988054275513,-0.53,2.72,0.29,2.78
20.077603101730347,-0.41,3.28,0.37,3.32
20.087682008743286,-0.29,4.02,0.48,4.05
20.097838163375854,0.15,4.62,0.62,4.66
20.107765913009644,0.26,5.03,0.54,5.06
20.127887964248657,0.16,5.15,0.07,5.15
20.12886118888855,0.01,4.78,-0.73,4.83
20.137587070465088,-0.06,3.84,-1.66,4.18
20.14780592918396,0.1,2.55,-2.55,3.6
20.15764307975769,0.26,1.29,-3.08,3.34
20.175678968429565,0.36,0.18,-3.04,3.06
20.17753005027771,0.46,-0.64,-2.47,2.59
20.18774914741516,0.59,-1.18,-1.59,2.06
20.19754409790039,0.76,-1.49,-0.74,1.82
20.20780611038208,1.01,-1.61,-0.08,1.9
20.225836038589478,1.08,-1.58,0.34,1.94
20.227522134780884,1.17,-1.45,0.53,1.93
20.237587213516235,1.36,-1.23,0.66,1.94
20.24795889854431,1.48,-0.93,0.76,1.9
20.258260011672974,1.64,-0.63,0.75,1.91
20.276034116744995,1.64,-0.31,0.65,1.79
20.277712106704712,1.5,-0.05,0.38,1.54
20.28780722618103,1.32,0.11,-0.12,1.33
20.297616004943848,1.13,0.11,-0.7,1.33
20.30773615837097,0.98,-0.12,-1.26,1.6
20.32669997215271,0.78,-0.55,-1.72,1.96
20.32776403427124,0.53,-1.05,-1.88,2.21
20.337640047073364,0.21,-1.6,-1.6,2.27
20.34768795967102,-0.22,-2.17,-1.01,2.4
20.357821226119995,-0.5,-2.69,-0.26,2.74
20.376598119735718,-0.62,-3.14,0.42,3.22
20.37762999534607,-0.57,-3.39,0.87,3.54
20.387673139572144,-0.35,-3.43,1.28,3.67
20.39814019203186,-0.17,-3.33,1.62,3.7
20.40776801109314,-0.2,-3.1,1.84,3.61
20.426671028137207,-0.33,-2.78,1.85,3.35
20.427536010742188,-0.34,-2.44,1.63,2.95
20.437745094299316,-0.19,-2.12,1.36,2.52
20.447645902633667,0.01,-1.73,1.17,2.08
20.458558082580566,0.14,-1.34,1.06,1.71
20.47666907310486,0.13,-1.06,0.96,1.43
20.477641105651855,0.12,-0.85,0.72,1.12
20.487735986709595,0.12,-0.66,0.19,0.69
20.49769902229309,0.15,-0.45,-0.51,0.69
20.507811069488525,0.27,-0.16,-1.08,1.12
20.527380228042603,0.37,0.12,-1.32,1.37
20.527753114700317,0.51,0.5,-1.2,1.39
20.537832975387573,0.75,1.0,-0.77,1.46
20.54769492149353,0.8,1.51,-0.2,1.72
20.55780005455017,0.54,1.95,0.2,2.03
20.57652497291565,0.31,2.21,0.4,2.26
20.577608108520508,0.21,2.7,0.38,2.73
20.587789058685303,0.05,3.69,0.57,3.73
20.597721099853516,-0.1,4.62,1.25,4.78
20.607775926589966,-0.23,5.31,2.0,5.67
20.626904010772705,-0.35,5.88,2.18,6.28
20.627723932266235,-0.45,6.1,1.48,6.29
20.63785195350647,-0.38,5.77,0.16,5.78
20.647736072540283,-0.3,4.81,-1.31,4.99
20.65783405303955,-0.26,3.35,-2.46,4.16
20.67759394645691,0.05,1.81,-3.04,3.53
20.677973985671997,0.07,0.42,-2.98,3.01
20.687840223312378,-0.23,-0.72,-2.43,2.54
20.697829961776733,-0.5,-1.28,-1.6,2.1
20.707927942276,-0.62,-1.46,-0.59,1.69
20.72771716117859,-0.68,-1.65,0.28,1.8
20.72811198234558,-0.67,-1.85,0.76,2.1
20.737917184829712,-0.71,-1.88,0.89,2.19
20.747770071029663,-0.88,-1.76,0.71,2.09
20.75786304473877,-1.04,-1.63,0.46,1.98
20.77860403060913,-1.14,-1.56,0.34,1.96
20.778942108154297,-1.2,-1.33,0.34,1.82
20.787904977798462,-1.14,-1.06,0.4,1.6
20.797855138778687,-1.11,-0.86,0.34,1.44
20.80779004096985,-1.06,-0.82,0.17,1.35
20.828752040863037,-0.97,-0.91,-0.15,1.33
20.82914710044861,-0.81,-1.15,-0.57,1.51
20.83786416053772,-0.58,-1.47,-0.91,1.82
20.847771883010864,-0.21,-1.76,-1.08,2.07
20.857889890670776,0.17,-1.94,-0.97,2.17
20.878542184829712,0.59,-2.02,-0.6,2.18
20.878923177719116,1.07,-2.04,-0.01,2.3
20.887842893600464,1.31,-2.02,0.54,2.46
20.897732973098755,1.51,-1.97,1.06,2.69
20.907903909683228,1.69,-2.01,1.51,3.02
20.927980184555054,1.61,-2.05,1.74,3.13
20.928355932235718,1.45,-2.06,1.76,3.07
20.93790888786316,1.32,-1.98,1.64,2.89
20.947738885879517,1.26,-1.76,1.52,2.64
20.957897901535034,1.22,-1.44,1.46,2.38
20.977152109146118,1.06,-1.25,1.5,2.22
20.977800130844116,0.75,-1.17,1.58,2.1
20.987845182418823,0.33,-1.07,1.56,1.92
20.997786045074463,-0.05,-1.0,1.27,1.61
21.00793194770813,-0.6,-0.85,0.72,1.26
21.027295112609863,-1.26,-0.62,0.19,1.41
21.027745008468628,-1.68,-0.35,-0.18,1.72
21.037957906723022,-1.81,-0.05,-0.49,1.87
21.047876119613647,-1.79,0.39,-0.75,1.97
21.05789589881897,-1.5,1.08,-0.78,2.0
21.077364206314087,-1.21,1.72,-0.71,2.21
21.07779288291931,-1.18,2.08,-0.59,2.46
21.08796715736389,-1.25,2.41,-0.38,2.74
21.0979220867157,-1.26,3.2,0.01,3.43
21.107908010482788,-0.96,4.09,0.55,4.23
21.127691984176636,-0.56,4.65,0.99,4.78
21.12807607650757,-0.3,5.18,0.76,5.24
21.137820959091187,-0.07,5.69,-0.38,5.7
21.14786696434021,0.02,5.61,-1.95,5.93
21.15783190727234,-0.01,4.88,-3.33,5.9
21.17803406715393,-0.3,3.52,-4.28,5.54
21.178404092788696,-0.35,1.97,-4.72,5.12
21.18780493736267,-0.02,0.83,-4.24,4.32
21.197896003723145,0.56,0.1,-3.06,3.11
21.20798897743225,1.14,-0.34,-1.66,2.04
21.229393005371094,1.51,-0.67,-0.5,1.72
21.229760885238647,1.67,-0.85,0.33,1.9
21.237863063812256,1.65,-0.8,0.86,2.02
21.24790906906128,1.46,-0.64,1.08,1.92
21.258084058761597,1.26,-0.58,1.09,1.76
21.28011393547058,1.13,-0.52,0.88,1.52
21.281107187271118,0.96,-0.35,0.46,1.12
21.287978887557983,0.92,-0.1,-0.12,0.93
21.297796964645386,0.89,0.04,-0.79,1.19
21.308117151260376,0.75,0.0,-1.38,1.57
21.329270124435425,0.67,-0.14,-1.8,1.92
21.329671144485474,0.61,-0.41,-1.94,2.07
21.338072061538696,0.36,-0.94,-1.72,1.99
21.347907066345215,0.03,-1.6,-1.17,1.98
21.35827088356018,-0.1,-2.18,-0.52,2.24
21.37844204902649,-0.23,-2.69,0.13,2.7
21.378817081451416,-0.25,-3.03,0.69,3.11
21.388050079345703,-0.25,-3.34,1.18,3.55
21.39795708656311,-0.39,-3.53,1.48,3.84
21.40810203552246,-0.43,-3.61,1.62,3.98
21.428571939468384,-0.4,-3.59,1.68,3.98
21.428951025009155,-0.33,-3.49,1.59,3.84
21.43805193901062,-0.34,-3.29,1.41,3.59
21.44808316230774,-0.3,-3.07,1.27,3.33
21.458150148391724,-0.18,-2.78,1.25,3.05
21.478808164596558,-0.04,-2.28,1.25,2.6
21.479196071624756,0.13,-1.63,1.18,2.01
21.488045930862427,0.23,-1.0,0.98,1.41
21.498316049575806,0.22,-0.54,0.74,0.94
21.508103132247925,0.07,-0.14,0.62,0.63
21.529052019119263,0.03,0.22,0.63,0.66
21.529382944107056,0.09,0.51,0.63,0.81
21.538108110427856,0.19,0.81,0.55,0.99
21.5484139919281,0.27,1.25,0.39,1.33
21.55813717842102,0.32,1.71,-0.02,1.73
21.579356908798218,0.36,2.02,-0.48,2.1
21.579721212387085,0.12,2.28,-0.74,2.4
21.588084936141968,-0.32,2.63,-0.7,2.74
21.59847092628479,-0.66,3.26,-0.21,3.33
21.608139038085938,-0.78,3.75,0.59,3.87
21.62948203086853,-0.74,4.1,1.3,4.36
21.629810094833374,-0.74,4.53,1.42,4.8
21.638034105300903,-0.8,4.65,0.95,4.81
21.648648977279663,-1.05,4.28,0.01,4.4
21.65817904472351,-1.21,3.34,-1.03,3.69
21.679728031158447,-1.24,2.17,-1.88,3.12
21.680098056793213,-1.25,1.03,-2.37,2.87
21.68808913230896,-1.08,0.22,-2.28,2.53
21.69869112968445,-1.06,-0.29,-1.69,2.01
21.708137035369873,-1.12,-0.59,-0.85,1.52
21.72955012321472,-1.1,-0.78,-0.08,1.35
21.729886054992676,-1.1,-0.99,0.53,1.57
21.738177061080933,-1.16,-1.03,0.93,1.8
21.74812388420105,-1.17,-0.93,1.08,1.84
21.75820517539978,-1.18,-0.96,0.91,1.77
21.779629945755005,-1.22,-0.96,0.56,1.65
21.780004024505615,-1.21,-0.84,0.17,1.48
21.78813600540161,-1.32,-0.77,-0.15,1.53
21.798235177993774,-1.41,-0.76,-0.47,1.66
21.808197021484375,-1.36,-0.8,-0.87,1.8
21.82950520515442,-1.25,-0.84,-1.29,1.98
21.829906225204468,-0.98,-1.03,-1.54,2.09
21.83814001083374,-0.59,-1.35,-1.52,2.11
21.848157167434692,-0.18,-1.69,-1.28,2.12
21.858277082443237,0.2,-1.93,-0.9,2.13
21.880008935928345,0.56,-2.07,-0.41,2.18
21.880397081375122,0.88,-2.14,0.12,2.31
21.88813090324402,1.02,-2.15,0.64,2.46
21.898101091384888,1.14,-2.15,1.06,2.65
21.90814518928528,1.21,-2.15,1.39,2.83
21.930408000946045,1.22,-2.16,1.67,2.99
21.93075203895569,1.27,-2.16,1.82,3.09
21.938106060028076,1.21,-2.15,1.8,3.05
21.948094129562378,1.01,-2.06,1.59,2.79
21.95824694633484,0.73,-1.94,1.34,2.46
21.9808189868927,0.45,-1.76,1.18,2.16
21.981189966201782,0.22,-1.53,1.13,1.91
21.988136053085327,0.0,-1.34,1.05,1.7
21.998295068740845,-0.2,-1.13,0.91,1.46
22.00870394706726,-0.47,-0.9,0.67,1.21
22.03090000152588,-0.69,-0.68,0.42,1.05
22.031301021575928,-0.84,-0.4,0.27,0.96
22.038219213485718,-0.81,0.01,0.26,0.85
22.048043966293335,-0.7,0.49,0.28,0.89
22.058212995529175,-0.71,1.04,0.28,1.29
22.077632188796997,-0.7,1.61,0.3,1.78
22.078017950057983,-0.65,2.14,0.4,2.27
22.088279008865356,-0.52,2.58,0.49,2.67
22.098192930221558,-0.36,2.99,0.51,3.05
22.10821795463562,-0.25,3.61,0.53,3.65
22.13088822364807,-0.02,4.26,0.56,4.29
22.13125705718994,0.25,4.85,0.59,4.89
22.138249158859253,0.44,5.39,0.5,5.43
22.148219108581543,0.49,5.64,0.07,5.66
22.15833306312561,0.38,5.47,-0.66,5.52
22.180700063705444,0.12,4.77,-1.49,4.99
22.181073904037476,-0.09,3.61,-2.29,4.27
22.18840503692627,-0.17,2.26,-2.92,3.69
22.198321104049683,-0.07,0.87,-3.24,3.35
22.20832109451294,0.05,-0.29,-3.05,3.06
22.23180603981018,0.22,-1.18,-2.3,2.59
22.232182025909424,0.41,-1.75,-1.3,2.21
22.238320112228394,0.63,-2.08,-0.37,2.2
22.24827003479004,0.8,-2.14,0.33,2.3
22.258342027664185,1.02,-2.04,0.7,2.38
22.282500982284546,1.14,-1.79,0.72,2.24
22.283562898635864,1.27,-1.48,0.52,2.01
22.2883141040802,1.43,-1.19,0.18,1.86
22.298211097717285,1.4,-0.9,-0.17,1.67
22.308351039886475,1.21,-0.49,-0.57,1.42
22.33175015449524,1.0,0.02,-0.93,1.36
22.33211922645569,0.75,0.31,-1.4,1.61
22.338247060775757,0.58,0.46,-2.0,2.13
22.348205089569092,0.53,0.49,-2.46,2.56
22.358410120010376,0.41,0.27,-2.54,2.58
22.381059885025024,0.06,-0.15,-2.21,2.21
22.38143301010132,-0.46,-0.73,-1.53,1.75
22.38831114768982,-0.94,-1.38,-0.61,1.77
22.398284196853638,-1.18,-1.92,0.29,2.27
22.40838122367859,-1.21,-2.33,0.99,2.8
22.431045055389404,-1.05,-2.69,1.47,3.24
22.431423902511597,-0.92,-2.98,1.71,3.55
22.438302040100098,-0.89,-3.21,1.81,3.79
22.448228120803833,-0.83,-3.28,1.8,3.83
22.458443880081177,-0.78,-3.19,1.78,3.73
22.48098921775818,-0.71,-2.95,1.76,3.5
22.481353044509888,-0.54,-2.53,1.78,3.14
22.488293886184692,-0.33,-1.99,1.88,2.75
22.498398065567017,-0.17,-1.45,1.95,2.43
22.508445024490356,0.03,-0.93,1.93,2.14
22.5311381816864,0.24,-0.54,1.66,1.76
22.531522035598755,0.35,-0.25,1.17,1.24
22.538316011428833,0.4,0.02,0.59,0.71
22.548280954360962,0.36,0.23,0.07,0.43
22.558480978012085,0.29,0.4,-0.24,0.54
22.58146595954895,0.2,0.65,-0.25,0.72
22.581834077835083,0.25,0.97,-0.03,1.0
22.588304042816162,0.35,1.29,0.22,1.35
22.598385095596313,0.65,1.83,0.43,1.98
22.608402013778687,0.81,2.46,0.45,2.62
22.6321861743927,0.6,3.2,0.38,3.27
22.632556200027466,0.23,4.0,0.47,4.03
22.638360023498535,-0.27,4.52,0.68,4.57
22.648438215255737,-0.71,4.95,0.75,5.05
22.658439874649048,-0.92,5.43,0.25,5.51
22.68225407600403,-1.05,5.65,-0.64,5.78
22.682626962661743,-1.02,5.31,-1.67,5.65
22.68834400177002,-0.91,4.37,-2.69,5.21
22.698396921157837,-0.75,2.95,-3.45,4.6
22.708506107330322,-0.62,1.48,-3.77,4.09
22.732287168502808,-0.65,0.26,-3.43,3.5
22.732661962509155,-0.75,-0.69,-2.47,2.67
22.738392114639282,-0.92,-1.38,-1.34,2.13
22.748457193374634,-1.1,-1.81,-0.38,2.15
22.758535146713257,-1.26,-2.11,0.34,2.48
22.78279709815979,-1.35,-2.28,0.75,2.75
22.78317093849182,-1.32,-2.24,0.88,2.74
22.788458108901978,-1.28,-2.08,0.77,2.56
22.798464059829712,-1.14,-1.8,0.47,2.18
22.808482885360718,-1.03,-1.47,0.1,1.79
22.83264422416687,-1.04,-1.12,-0.29,1.55
22.833033084869385,-1.1,-0.73,-0.55,1.43
22.838471174240112,-1.14,-0.48,-0.77,1.45
22.848412036895752,-1.07,-0.47,-0.92,1.48
22.858565092086792,-0.92,-0.6,-1.02,1.49
22.883058071136475,-0.69,-0.8,-1.04,1.48
22.8834331035614,-0.41,-1.09,-1.03,1.55
22.888416051864624,-0.15,-1.3,-0.89,1.58
22.898442029953003,0.16,-1.42,-0.6,1.54
22.908529043197632,0.5,-1.52,-0.12,1.6
22.932037115097046,0.81,-1.63,0.49,1.88
22.932411909103394,0.97,-1.79,0.95,2.24
22.93848490715027,1.2,-1.96,1.23,2.6
22.948456048965454,1.3,-2.17,1.32,2.85
22.958515882492065,1.42,-2.39,1.32,3.07
22.982420206069946,1.42,-2.54,1.27,3.17
22.982796907424927,1.34,-2.61,1.34,3.22
22.988476037979126,1.26,-2.53,1.45,3.17
22.998520135879517,1.11,-2.27,1.55,2.96
23.00857901573181,0.83,-1.97,1.57,2.65
23.03282618522644,0.47,-1.59,1.51,2.24
23.033194065093994,0.15,-1.21,1.33,1.8
23.038562059402466,-0.16,-0.81,1.07,1.35
23.048561096191406,-0.37,-0.44,0.82,1.0
23.058629035949707,-0.61,-0.15,0.46,0.77
23.08333110809326,-0.71,0.24,0.19,0.77
23.08370804786682,-0.81,0.83,0.13,1.16
23.08861804008484,-0.97,1.34,0.11,1.65
23.098625898361206,-1.13,1.64,0.12,1.99
23.10866618156433,-1.31,1.77,0.15,2.2
23.13334012031555,-1.51,1.83,0.18,2.37
23.133716106414795,-1.48,2.15,0.15,2.61
23.13861107826233,-1.25,2.96,0.14,3.21
23.148503065109253,-0.92,3.69,0.08,3.8
23.158704042434692,-0.37,4.17,0.0,4.18
23.18293809890747,0.15,4.71,-0.31,4.72
23.18330693244934,0.28,5.05,-0.8,5.12
23.18854022026062,0.28,4.87,-1.28,5.04
23.19853901863098,0.27,4.35,-1.73,4.68
23.208618879318237,0.19,3.54,-2.07,4.1
23.233875036239624,0.17,2.61,-2.21,3.42
23.23425793647766,0.16,1.67,-2.11,2.69
23.238676071166992,0.08,0.84,-1.7,1.89
23.248555898666382,0.07,0.15,-1.15,1.16
23.258681058883667,0.23,-0.51,-0.71,0.9
23.28471302986145,0.47,-0.97,-0.23,1.1
23.285728216171265,0.65,-1.3,0.11,1.45
23.288701057434082,0.81,-1.57,0.38,1.8
23.29855704307556,1.06,-1.69,0.49,2.05
23.30865502357483,1.25,-1.69,0.42,2.14
23.33393692970276,1.2,-1.57,0.13,1.98
23.334317922592163,1.11,-1.32,-0.24,1.74
23.33865714073181,1.07,-1.0,-0.61,1.58
23.348541975021362,1.0,-0.83,-0.97,1.62
23.358691930770874,0.91,-0.8,-1.23,1.72
23.384234189987183,0.73,-0.87,-1.46,1.84
23.38460612297058,0.55,-1.05,-1.6,1.99
23.388668060302734,0.36,-1.22,-1.57,2.02
23.39854598045349,0.11,-1.51,-1.31,2.0
23.408607006072998,-0.15,-1.91,-0.92,2.12
23.434551000595093,-0.38,-2.27,-0.42,2.33
23.43497109413147,-0.4,-2.5,0.11,2.53
23.438554048538208,-0.42,-2.63,0.58,2.72
23.44849705696106,-0.51,-2.64,1.02,2.87
23.45859694480896,-0.58,-2.56,1.4,2.97
23.468546152114868,-0.67,-2.46,1.71,3.06
23.484610080718994,-0.71,-2.41,1.92,3.16
23.488569974899292,-0.83,-2.29,1.96,3.12
23.49850606918335,-1.0,-2.01,1.84,2.9
23.508647203445435,-1.09,-1.62,1.7,2.58
23.518603086471558,-1.06,-1.1,1.62,2.22
23.533966064453125,-1.02,-0.55,1.56,1.94
23.538762092590332,-0.81,-0.11,1.32,1.55
23.548575162887573,-0.45,0.1,0.98,1.08
23.55867600440979,-0.16,0.31,0.57,0.66
23.56863808631897,0.07,0.43,0.16,0.46
23.584206104278564,0.28,0.45,-0.18,0.55
23.58864712715149,0.49,0.45,-0.45,0.8
23.598687887191772,0.69,0.46,-0.6,1.02
23.60869812965393,0.78,0.61,-0.72,1.22
23.618746995925903,0.87,1.01,-0.75,1.52
23.634194135665894,0.87,1.42,-0.54,1.75
23.638660192489624,0.62,1.62,-0.18,1.74
23.64871907234192,0.31,1.76,0.16,1.79
23.658762216567993,-0.07,2.22,0.53,2.28
23.66865611076355,-0.22,3.05,1.01,3.22
23.68421506881714,-0.25,3.83,1.48,4.11
23.68866991996765,-0.14,4.47,1.69,4.78
23.69872808456421,-0.03,5.11,1.11,5.22
23.708781003952026,0.11,5.43,-0.12,5.43
23.718713998794556,0.11,5.11,-1.39,5.29
23.734913110733032,0.03,4.21,-2.4,4.84
23.73883605003357,0.07,3.01,-2.76,4.08
23.748610019683838,-0.11,1.66,-2.48,2.98
23.758810997009277,-0.48,0.42,-1.67,1.78
23.76869511604309,-0.76,-0.45,-0.75,1.15
23.78452706336975,-1.05,-1.16,-0.04,1.56
23.78878092765808,-1.27,-1.83,0.42,2.26
23.79879403114319,-1.37,-2.22,0.55,2.66
23.808783054351807,-1.4,-2.24,0.48,2.68
23.818774938583374,-1.27,-2.05,0.26,2.42
23.83480191230774,-1.18,-1.75,0.07,2.11
23.83891201019287,-1.08,-1.36,0.05,1.73
23.84877300262451,-0.99,-0.98,0.19,1.4
23.85882806777954,-0.74,-0.68,0.29,1.04
23.86876106262207,-0.31,-0.52,0.16,0.62
23.884613037109375,0.09,-0.59,-0.24,0.64
23.888724088668823,0.28,-0.87,-0.72,1.16
23.898810148239136,0.43,-1.33,-1.13,1.79
23.90881609916687,0.59,-1.78,-1.38,2.32
23.918798208236694,0.86,-2.09,-1.43,2.67
23.934514045715332,1.16,-2.25,-1.12,2.76
23.938770055770874,1.44,-2.33,-0.52,2.78
23.94877004623413,1.57,-2.32,0.16,2.8
23.958872079849243,1.58,-2.39,0.71,2.95
23.96884799003601,1.59,-2.53,1.09,3.18
23.9844970703125,1.58,-2.69,1.37,3.4
23.988693952560425,1.47,-2.81,1.62,3.56
23.998780012130737,1.18,-2.87,1.75,3.56
24.00887417793274,0.79,-2.71,1.76,3.32
24.018872022628784,0.57,-2.38,1.78,3.02
24.035864114761353,0.19,-1.96,1.79,2.66
24.038904905319214,-0.06,-1.37,1.65,2.14
24.048714876174927,-0.14,-0.79,1.38,1.59
24.058885097503662,-0.35,-0.46,1.02,1.17
24.068819999694824,-0.56,-0.3,0.65,0.9
24.0850031375885,-0.76,-0.22,0.29,0.84
24.08891797065735,-0.99,-0.18,0.02,1.0
24.0989830493927,-1.18,-0.11,-0.16,1.19
24.10891890525818,-1.17,0.22,-0.24,1.21
24.118937015533447,-1.11,0.76,-0.25,1.36
24.13571000099182,-1.03,1.27,-0.21,1.64
24.138911962509155,-0.93,1.74,-0.26,1.99
24.148874044418335,-0.84,2.33,-0.42,2.51
24.158936023712158,-0.67,3.14,-0.46,3.24
24.16887402534485,-0.52,3.96,-0.29,4.0
24.18693208694458,-0.2,4.56,-0.03,4.56
24.188719987869263,0.04,5.16,0.05,5.16
24.198841094970703,-0.24,5.65,-0.27,5.66
24.20883297920227,-0.57,5.65,-1.02,5.76
24.21894407272339,-0.82,5.06,-1.98,5.49
24.236335039138794,-0.89,4.02,-2.83,4.99
24.238797903060913,-0.8,2.7,-3.29,4.33
24.248828172683716,-0.37,1.5,-3.19,3.54
24.258939027786255,0.05,0.52,-2.49,2.54
24.268951177597046,0.22,-0.43,-1.47,1.54
24.285625219345093,0.22,-1.11,-0.51,1.24
24.2887020111084,0.18,-1.53,0.15,1.54
24.298893213272095,0.3,-1.59,0.62,1.73
24.30887198448181,0.43,-1.44,0.99,1.79
24.319034099578857,0.47,-1.23,1.18,1.76
24.335563898086548,0.51,-0.95,1.11,1.54
24.33885908126831,0.67,-0.64,0.81,1.23
24.348806142807007,0.79,-0.37,0.36,0.94
24.35894513130188,0.63,-0.21,-0.15,0.68
24.368957042694092,0.49,-0.11,-0.62,0.79
24.385704040527344,0.41,-0.1,-1.03,1.11
24.38877010345459,0.37,-0.21,-1.37,1.43
24.398926973342896,0.33,-0.45,-1.61,1.7
24.40894913673401,0.22,-0.81,-1.66,1.86
24.41896104812622,-0.04,-1.19,-1.41,1.84
24.43828010559082,-0.42,-1.65,-0.95,1.94
24.43935990333557,-0.55,-2.01,-0.31,2.1
24.448913097381592,-0.52,-2.23,0.36,2.31
24.459152936935425,-0.38,-2.43,0.94,2.63
24.468937158584595,-0.25,-2.57,1.35,2.91
24.48219895362854,-0.24,-2.59,1.62,3.06
24.488762140274048,-0.26,-2.53,1.76,3.09
24.498860120773315,-0.33,-2.45,1.82,3.06
24.50886607170105,-0.33,-2.29,1.75,2.9
24.51884913444519,-0.22,-2.1,1.65,2.67
24.531097173690796,-0.22,-1.99,1.55,2.53
24.53872513771057,-0.22,-1.87,1.4,2.34
24.54878807067871,-0.18,-1.72,1.32,2.17
24.55932116508484,-0.12,-1.58,1.3,2.04
24.569189071655273,0.02,-1.44,1.22,1.88
24.58081889152527,0.23,-1.22,1.01,1.6
24.58873701095581,0.47,-1.0,0.67,1.29
24.598862886428833,0.67,-0.74,0.26,1.03
24.60885000228882,0.75,-0.41,-0.08,0.85
24.61912202835083,0.7,0.1,-0.29,0.76
24.635577917099,0.52,0.75,-0.31,0.96
24.638846158981323,0.26,1.37,-0.08,1.39
24.648879051208496,-0.07,1.9,0.21,1.91
24.65900206565857,-0.27,2.38,0.44,2.43
24.669440031051636,-0.44,2.86,0.46,2.92
24.689149141311646,-0.54,3.6,0.35,3.65
24.690145015716553,-0.52,4.5,0.45,4.55
24.69934916496277,-0.44,5.06,0.67,5.12
24.709184885025024,-0.18,5.48,0.7,5.52
24.719184160232544,0.14,5.83,0.24,5.83
24.740039110183716,0.26,5.65,-0.73,5.7
24.741016149520874,0.31,4.89,-1.85,5.23
24.749125003814697,0.29,3.7,-2.94,4.73
24.758991956710815,0.11,2.27,-3.6,4.25
24.769155025482178,-0.04,0.91,-3.59,3.7
24.78942322731018,-0.13,-0.18,-2.88,2.88
24.79057002067566,-0.16,-0.88,-1.76,1.97
24.79921317100525,-0.26,-1.35,-0.71,1.54
24.8089759349823,-0.44,-1.67,0.16,1.73
24.8190701007843,-0.62,-1.87,0.68,2.08
24.838831186294556,-0.8,-1.93,0.88,2.26
24.8399178981781,-0.87,-1.91,0.92,2.29
24.849241018295288,-0.95,-1.76,0.88,2.18
24.859045028686523,-1.0,-1.56,0.76,2.0
24.868998050689697,-1.04,-1.33,0.61,1.79
24.887967109680176,-0.99,-1.04,0.4,1.49
24.88931107521057,-0.91,-0.81,0.07,1.22
24.899236917495728,-0.82,-0.72,-0.31,1.13
24.90917205810547,-0.71,-0.83,-0.61,1.25
24.919088125228882,-0.62,-1.03,-0.76,1.42
24.938099145889282,-0.56,-1.25,-0.75,1.56
24.939213037490845,-0.39,-1.47,-0.65,1.65
24.949179887771606,-0.12,-1.64,-0.42,1.69
24.95912003517151,0.14,-1.75,-0.13,1.76
24.969070196151733,0.35,-1.83,0.19,1.87
24.986718893051147,0.63,-1.93,0.53,2.09
24.98932719230652,0.82,-2.05,0.8,2.34
24.99903893470764,0.93,-2.13,0.99,2.52
25.009223222732544,1.03,-2.16,1.14,2.65
25.01911997795105,1.08,-2.2,1.25,2.75
25.03649592399597,1.02,-2.23,1.33,2.78
25.039363145828247,0.95,-2.12,1.42,2.72
25.049192190170288,0.87,-1.81,1.53,2.52
25.059023141860962,0.71,-1.39,1.59,2.22
25.069252014160156,0.55,-0.99,1.5,1.87
25.086616039276123,0.29,-0.68,1.25,1.45
25.08949899673462,-0.09,-0.31,0.82,0.88
25.099257230758667,-0.43,0.11,0.24,0.5
25.10905408859253,-0.75,0.46,-0.26,0.91
25.119229078292847,-1.07,0.73,-0.62,1.43
25.13238215446472,-1.38,1.04,-0.87,1.93
25.13946795463562,-1.52,1.38,-0.93,2.25
25.14890694618225,-1.5,1.71,-0.83,2.42
25.15924096107483,-1.35,2.07,-0.65,2.55
25.16912293434143,-1.11,2.46,-0.36,2.72
25.184267044067383,-0.89,3.0,0.05,3.12
25.1890230178833,-0.8,3.61,0.65,3.75
25.19926404953003,-0.45,4.07,1.39,4.32
25.208932161331177,-0.04,4.5,1.81,4.85
25.219433069229126,0.23,5.01,1.53,5.24
25.23888111114502,0.36,5.08,0.4,5.1
25.240004062652588,0.34,4.56,-1.09,4.7
25.249151945114136,0.36,3.59,-2.51,4.39
25.259394884109497,0.43,2.44,-3.62,4.38
25.26919388771057,0.46,1.34,-4.12,4.35
25.2911159992218,0.57,0.35,-3.83,3.88
25.292062044143677,0.76,-0.5,-2.7,2.84
25.29931092262268,0.97,-1.15,-1.29,1.98
25.30939221382141,1.2,-1.55,-0.11,1.96
25.319217920303345,1.33,-1.74,0.77,2.32
25.33479905128479,1.31,-1.8,1.33,2.59
25.34246802330017,1.32,-1.74,1.61,2.71
25.349037885665894,1.23,-1.56,1.56,2.52
25.359122037887573,1.04,-1.29,1.33,2.12
25.369199991226196,0.91,-0.99,0.87,1.6
25.385106086730957,0.71,-0.73,0.25,1.04
25.38904905319214,0.57,-0.5,-0.41,0.86
25.399238109588623,0.49,-0.32,-1.12,1.26
25.40932607650757,0.45,-0.39,-1.74,1.83
25.419450044631958,0.42,-0.64,-2.11,2.24
25.440476179122925,0.41,-0.98,-2.13,2.38
25.441659212112427,0.34,-1.35,-1.76,2.24
25.44931721687317,0.14,-1.73,-1.13,2.07
25.46022605895996,-0.12,-2.12,-0.35,2.15
25.469452142715454,-0.29,-2.45,0.36,2.49
25.490936994552612,-0.47,-2.73,0.95,2.92
25.49196219444275,-0.55,-2.88,1.39,3.24
25.499320030212402,-0.53,-2.89,1.7,3.39
25.5103600025177,-0.53,-2.85,1.85,3.43
25.51941990852356,-0.49,-2.8,1.83,3.38
25.54061198234558,-0.49,-2.68,1.68,3.2
25.541648149490356,-0.43,-2.5,1.47,2.93
25.549268007278442,-0.26,-2.18,1.3,2.55
25.56126618385315,-0.16,-1.77,1.13,2.1
25.569327116012573,0.01,-1.36,0.93,1.64
25.589376211166382,0.11,-0.92,0.72,1.17
25.589747190475464,0.25,-0.52,0.44,0.72
25.599475145339966,0.43,-0.2,0.06,0.47
25.60924506187439,0.62,0.09,-0.43,0.75
25.61939001083374,0.75,0.32,-0.97,1.26
25.639079093933105,0.85,0.54,-1.38,1.7
25.639458894729614,0.95,0.89,-1.47,1.96
25.649375200271606,0.96,1.34,-1.14,2.0
25.659240007400513,1.01,1.68,-0.52,2.02
25.669352054595947,0.97,1.94,0.29,2.18
25.688305139541626,0.8,2.23,1.02,2.57
25.689150094985962,0.49,3.0,1.49,3.38
25.699337005615234,0.18,4.14,1.79,4.51
25.70916509628296,0.07,4.91,1.99,5.29
25.719435930252075,0.18,5.52,1.95,5.85
25.7395122051239,0.09,6.04,1.18,6.15
25.739883184432983,-0.15,5.93,-0.19,5.93
25.74931001663208,-0.42,5.01,-1.72,5.31
25.75931191444397,-0.66,3.71,-3.07,4.86
25.769366025924683,-0.58,2.31,-3.92,4.58
25.78839087486267,-0.44,0.93,-4.0,4.13
25.789175033569336,-0.46,-0.24,-3.39,3.42
25.799293994903564,-0.56,-1.05,-2.19,2.49
25.809314966201782,-0.69,-1.59,-0.92,1.96
25.81932306289673,-0.84,-1.96,0.23,2.14
25.838401079177856,-1.03,-2.15,1.19,2.66
25.839144945144653,-0.98,-2.22,1.78,3.0
25.849425077438354,-0.83,-2.03,1.9,2.9
25.859182119369507,-0.68,-1.75,1.71,2.53
25.869280099868774,-0.68,-1.43,1.27,2.02
25.889486074447632,-0.7,-1.08,0.6,1.42
25.889856100082397,-0.58,-0.76,-0.19,0.97
25.89945101737976,-0.39,-0.57,-0.86,1.1
25.90923500061035,-0.19,-0.56,-1.56,1.66
25.919440031051636,-0.01,-0.77,-2.07,2.2
25.93854022026062,0.17,-1.18,-2.16,2.46
25.939178228378296,0.32,-1.64,-1.8,2.45
25.94934391975403,0.57,-2.03,-1.14,2.39
25.95915198326111,0.79,-2.27,-0.34,2.42
25.969484090805054,0.9,-2.41,0.42,2.6
25.98902916908264,0.91,-2.55,1.01,2.88
25.989410161972046,0.77,-2.6,1.42,3.06
25.99936604499817,0.61,-2.59,1.72,3.16
26.009295225143433,0.55,-2.53,1.85,3.18
26.01940417289734,0.54,-2.4,1.85,3.07
26.040040016174316,0.5,-2.23,1.8,2.9
26.040422201156616,0.41,-1.96,1.68,2.61
26.049551010131836,0.36,-1.56,1.55,2.22
26.059184074401855,0.25,-1.17,1.42,1.85
26.069565057754517,0.03,-0.91,1.18,1.49
26.09003710746765,-0.21,-0.68,0.79,1.06
26.09040093421936,-0.45,-0.48,0.25,0.7
26.099534034729004,-0.69,-0.35,-0.26,0.81
26.10925602912903,-0.88,-0.32,-0.67,1.15
26.11948299407959,-1.06,-0.29,-0.95,1.45
26.139930963516235,-1.13,-0.13,-1.02,1.52
26.140321016311646,-1.08,0.17,-0.72,1.3
26.14955496788025,-1.03,0.69,-0.16,1.25
26.15920090675354,-0.82,1.32,0.4,1.6
26.169563055038452,-0.53,1.84,0.8,2.07
26.188905954360962,-0.4,2.27,1.04,2.52
26.189285039901733,-0.39,2.88,1.17,3.13
26.199485063552856,-0.32,3.61,1.29,3.84
26.209334135055542,0.0,4.11,1.46,4.36
26.21953797340393,0.38,4.65,1.38,4.86
26.23981499671936,0.51,5.32,0.71,5.39
26.24019503593445,0.27,5.57,-0.45,5.59
26.24953007698059,0.07,5.14,-1.87,5.47
26.25930094718933,-0.19,4.18,-3.23,5.28
26.269530057907104,-0.46,2.77,-4.09,4.96
26.29002809524536,-0.39,1.37,-4.0,4.24
26.290419101715088,-0.17,0.13,-2.97,2.97
26.299581050872803,0.17,-0.86,-1.73,1.93
26.309394121170044,0.51,-1.34,-0.6,1.55
26.319578886032104,0.94,-1.56,0.48,1.88
26.341696977615356,1.18,-1.45,1.2,2.22
26.3427951335907,1.21,-1.07,1.44,2.16
26.34967803955078,1.15,-0.71,1.31,1.88
26.359275102615356,1.04,-0.44,0.89,1.43
26.369590997695923,0.9,-0.19,0.2,0.94
26.390753030776978,0.78,-0.12,-0.59,0.98
26.39112401008606,0.51,-0.21,-1.28,1.39
26.399614095687866,0.36,-0.33,-1.8,1.86
26.409295082092285,0.22,-0.52,-2.08,2.15
26.419519186019897,0.11,-0.74,-2.12,2.24
26.440712213516235,0.01,-0.95,-1.93,2.15
26.441037893295288,-0.14,-1.22,-1.56,1.98
26.44955611228943,-0.4,-1.49,-0.98,1.82
26.459295988082886,-0.64,-1.67,-0.25,1.8
26.469542026519775,-0.65,-1.88,0.4,2.02
26.48950505256653,-0.63,-2.05,0.96,2.34
26.489837884902954,-0.57,-2.31,1.33,2.72
26.499454021453857,-0.47,-2.51,1.58,3.0
26.509373903274536,-0.43,-2.6,1.66,3.11
26.519641160964966,-0.43,-2.57,1.62,3.06
26.54016399383545,-0.53,-2.46,1.42,2.88
26.540548086166382,-0.57,-2.22,1.15,2.56
26.549674034118652,-0.52,-1.99,0.93,2.25
26.55932307243347,-0.39,-1.85,0.78,2.04
26.56969404220581,-0.23,-1.77,0.7,1.91
26.589597940444946,-0.02,-1.55,0.66,1.68
26.589926958084106,0.24,-1.28,0.43,1.37
26.599569082260132,0.38,-0.99,0.08,1.06
26.609416007995605,0.45,-0.69,-0.33,0.88
26.61962103843689,0.54,-0.42,-0.66,0.95
26.63957405090332,0.57,-0.22,-0.9,1.08
26.63995099067688,0.63,0.07,-0.86,1.06
26.649657011032104,0.9,0.53,-0.53,1.17
26.65956401824951,1.13,1.14,-0.11,1.6
26.669749975204468,1.16,1.79,0.29,2.15
26.68966007232666,0.97,2.33,0.51,2.57
26.689983129501343,0.58,2.55,0.53,2.66
26.699461221694946,0.25,2.81,0.44,2.85
26.709622144699097,0.09,3.38,0.66,3.44
26.719629049301147,0.02,3.96,1.17,4.12
26.739760160446167,-0.03,4.37,1.64,4.66
26.740089178085327,-0.03,4.85,1.52,5.08
26.749608039855957,-0.08,5.17,0.77,5.22
26.759738206863403,-0.21,4.75,-0.31,4.76
26.769772052764893,-0.37,3.85,-1.49,4.14
26.790859937667847,-0.21,3.05,-2.38,3.87
26.791227102279663,-0.15,1.96,-2.81,3.42
26.799724102020264,-0.39,0.66,-2.68,2.78
26.80985713005066,-0.73,-0.32,-2.02,2.17
26.819728136062622,-0.85,-0.88,-1.01,1.58
26.84060001373291,-0.94,-1.21,0.01,1.53
26.84097695350647,-0.98,-1.45,0.69,1.88
26.849724054336548,-0.97,-1.54,1.02,2.08
26.859965085983276,-0.84,-1.39,1.1,1.96
26.869649171829224,-0.55,-1.02,0.95,1.49
26.89121699333191,-0.35,-0.61,0.61,0.93
26.891561031341553,-0.35,-0.4,0.21,0.57
26.89970302581787,-0.55,-0.51,-0.06,0.75
26.910238027572632,-0.77,-0.72,-0.36,1.11
26.919689893722534,-0.85,-0.98,-0.7,1.47
26.941142082214355,-0.86,-1.29,-1.0,1.84
26.94153094291687,-0.75,-1.6,-1.29,2.18
26.94973587989807,-0.6,-1.91,-1.52,2.51
26.960297107696533,-0.34,-2.22,-1.53,2.71
26.969799041748047,-0.07,-2.38,-1.36,2.74
26.99089789390564,0.14,-2.44,-1.03,2.65
26.991270065307617,0.22,-2.56,-0.59,2.63
26.999624013900757,0.25,-2.66,-0.09,2.67
27.00961709022522,0.19,-2.76,0.35,2.78
27.02463698387146,0.11,-2.91,0.71,2.99
27.029612064361572,-0.03,-2.94,0.98,3.09
27.03960919380188,-0.05,-2.75,1.21,3.0
27.049684047698975,-0.13,-2.39,1.34,2.74
27.059680223464966,-0.13,-1.94,1.39,2.39
27.0746591091156,-0.15,-1.33,1.39,1.92
27.079632997512817,-0.09,-0.66,1.28,1.44
27.08972406387329,-0.19,-0.1,1.03,1.05
27.09968590736389,-0.41,0.27,0.65,0.81
27.10979390144348,-0.64,0.47,0.3,0.84
27.125087022781372,-0.92,0.54,0.01,1.06
27.12959599494934,-1.1,0.6,-0.27,1.28
27.139686107635498,-1.16,0.64,-0.43,1.39
27.149912118911743,-1.23,0.65,-0.32,1.42
27.15973210334778,-1.2,0.7,-0.01,1.38
27.175424098968506,-1.0,1.08,0.38,1.52
27.17967915534973,-0.65,1.67,0.84,1.97
27.189770936965942,-0.31,2.33,1.35,2.71
27.199724912643433,-0.2,2.66,1.74,3.18
27.209785223007202,-0.23,2.81,1.87,3.38
27.22524404525757,-0.25,3.17,1.88,3.69
27.229612112045288,-0.06,3.42,1.78,3.85
27.23969006538391,0.11,3.5,1.25,3.71
27.249666929244995,0.04,3.74,0.15,3.74
27.259730100631714,-0.22,4.04,-1.04,4.17
27.27577805519104,-0.48,4.07,-2.15,4.62
27.279757022857666,-0.65,3.52,-3.07,4.71
27.289745092391968,-0.63,2.59,-3.62,4.49
27.299887895584106,-0.5,1.53,-3.53,3.87
27.30985188484192,-0.22,0.59,-2.73,2.8
27.326040983200073,0.14,-0.19,-1.54,1.55
27.329609155654907,0.42,-0.83,-0.33,0.98
27.339694023132324,0.62,-1.34,0.65,1.61
27.34988808631897,0.66,-1.56,1.29,2.12
27.359817028045654,0.7,-1.46,1.6,2.27
27.376065015792847,0.69,-1.32,1.49,2.1
27.379595041275024,0.58,-1.24,0.94,1.66
27.389722108840942,0.47,-1.1,0.22,1.21
27.39975905418396,0.38,-0.81,-0.5,1.02
27.409838914871216,0.11,-0.5,-1.1,1.21
27.42638897895813,0.04,-0.25,-1.53,1.55
27.42967391014099,0.18,-0.04,-1.74,1.74
27.439683198928833,0.32,0.06,-1.72,1.75
27.449926137924194,0.44,-0.02,-1.6,1.65
27.459832906723022,0.49,-0.3,-1.44,1.55
27.476139068603516,0.38,-0.77,-1.27,1.53
27.479613065719604,0.24,-1.33,-0.95,1.65
27.48982810974121,0.11,-1.78,-0.49,1.84
27.499686002731323,0.0,-2.01,0.02,2.01
27.509784936904907,-0.09,-2.22,0.5,2.27
27.5261390209198,-0.09,-2.43,0.96,2.61
27.529688119888306,-0.04,-2.6,1.34,2.92
27.539747953414917,-0.01,-2.68,1.55,3.09
27.54977297782898,-0.12,-2.64,1.54,3.05
27.55986189842224,-0.25,-2.52,1.32,2.85
27.57671093940735,-0.39,-2.38,1.06,2.63
27.57970118522644,-0.47,-2.2,0.85,2.4
27.58975100517273,-0.43,-1.99,0.71,2.15
27.599804162979126,-0.35,-1.75,0.6,1.88
27.609906911849976,-0.17,-1.55,0.57,1.66
27.626566171646118,0.05,-1.36,0.55,1.46
27.629873991012573,0.32,-1.09,0.52,1.24
27.63985514640808,0.62,-0.85,0.46,1.14
27.650013208389282,0.83,-0.57,0.3,1.05
27.659919023513794,0.93,-0.17,0.05,0.94
27.677374124526978,0.99,0.29,-0.13,1.03
27.679729223251343,0.96,0.73,-0.17,1.21
27.689911127090454,0.8,1.14,-0.08,1.39
27.69991421699524,0.55,1.42,0.05,1.52
27.709891080856323,0.43,1.59,0.13,1.65
27.726185083389282,0.32,1.65,0.08,1.68
27.729823112487793,0.3,1.78,-0.07,1.8
27.739903211593628,0.19,2.29,-0.12,2.3
27.749972105026245,-0.03,3.24,0.19,3.24
27.759950876235962,-0.11,3.98,0.84,4.06
27.776081085205078,-0.08,4.3,1.26,4.48
27.779722929000854,0.05,4.51,0.88,4.59
27.7898850440979,0.05,4.6,-0.24,4.6
27.79999804496765,-0.1,4.16,-1.46,4.4
27.80993103981018,-0.17,3.32,-2.36,4.07
27.826261043548584,-0.31,2.25,-3.02,3.77
27.829840898513794,-0.47,1.13,-3.18,3.4
27.83993411064148,-0.6,0.14,-2.64,2.71
27.84998607635498,-0.76,-0.53,-1.5,1.76
27.859942197799683,-0.86,-0.96,-0.2,1.3
27.87638807296753,-0.91,-1.22,0.78,1.71
27.879759073257446,-0.95,-1.37,1.35,2.14
27.889949083328247,-0.89,-1.33,1.53,2.21
27.899941205978394,-0.8,-1.09,1.33,1.89
27.910020112991333,-0.68,-0.85,0.87,1.39
27.92740511894226,-0.58,-0.59,0.19,0.84
27.92981505393982,-0.51,-0.3,-0.59,0.83
27.939958095550537,-0.51,-0.15,-1.37,1.46
27.95016598701477,-0.59,-0.19,-2.05,2.14
27.959989070892334,-0.58,-0.38,-2.51,2.6
27.976167917251587,-0.39,-0.67,-2.59,2.7
27.979789972305298,-0.05,-1.01,-2.19,2.41
27.989952087402344,0.34,-1.44,-1.43,2.05
27.999974012374878,0.76,-1.83,-0.58,2.06
28.010032892227173,1.1,-2.11,0.2,2.38
28.027095079421997,1.24,-2.3,0.89,2.76
28.0298011302948,1.3,-2.37,1.38,3.03
28.039932012557983,1.26,-2.31,1.67,3.11
28.05013608932495,1.12,-2.19,1.73,3.0
28.05999493598938,1.03,-2.07,1.59,2.8
28.07844305038452,0.99,-1.86,1.35,2.5
28.079864025115967,0.93,-1.6,1.06,2.13
28.090041875839233,0.88,-1.34,0.8,1.79
28.09984302520752,0.79,-1.15,0.59,1.51
28.110074996948242,0.55,-0.99,0.38,1.19
28.127708196640015,0.33,-0.86,0.14,0.93
28.129762887954712,0.05,-0.77,-0.07,0.77
28.14008116722107,-0.2,-0.72,-0.22,0.77
28.149887084960938,-0.45,-0.6,-0.27,0.79
28.16001605987549,-0.63,-0.41,-0.24,0.78
28.176894903182983,-0.72,-0.17,-0.14,0.75
28.179927110671997,-0.69,0.06,-0.01,0.69
28.19016408920288,-0.7,0.2,0.12,0.73
28.19987201690674,-0.69,0.38,0.23,0.82
28.210077047348022,-0.6,0.7,0.28,0.96
28.22747015953064,-0.49,1.09,0.33,1.23
28.23004698753357,-0.38,1.42,0.4,1.52
28.240061044692993,-0.42,1.83,0.4,1.91
28.249916076660156,-0.52,2.4,0.43,2.49
28.260088205337524,-0.51,2.85,0.52,2.94
28.277903079986572,-0.43,3.2,0.38,3.25
28.280179023742676,-0.25,3.67,-0.19,3.68
28.29025101661682,-0.37,4.07,-1.02,4.21
28.299968957901,-0.46,4.09,-1.84,4.5
28.310139894485474,-0.6,3.61,-2.58,4.47
28.329405069351196,-0.65,2.76,-3.05,4.16
28.330403089523315,-0.47,1.68,-3.07,3.53
28.340188026428223,-0.12,0.63,-2.61,2.68
28.350038051605225,0.4,-0.13,-1.68,1.73
28.360108137130737,0.82,-0.62,-0.65,1.21
28.37931513786316,1.07,-0.99,0.13,1.46
28.380385160446167,1.15,-1.17,0.6,1.74
28.390228033065796,1.1,-1.16,0.67,1.73
28.399965047836304,0.96,-1.02,0.53,1.49
28.410136938095093,0.8,-0.91,0.25,1.23
28.42907404899597,0.7,-0.77,-0.17,1.05
28.430443048477173,0.59,-0.56,-0.7,1.07
28.44019103050232,0.45,-0.31,-1.3,1.41
28.45010209083557,0.35,-0.03,-1.93,1.96
28.4600830078125,0.32,0.23,-2.49,2.52
28.477655172348022,0.26,0.38,-2.83,2.86
28.480003118515015,0.14,0.4,-3.01,3.03
28.49020218849182,-0.1,0.26,-2.9,2.91
28.49988293647766,-0.28,0.01,-2.47,2.48
28.5101420879364,-0.41,-0.36,-1.81,1.89
28.528327226638794,-0.52,-0.85,-0.98,1.39
28.530039072036743,-0.44,-1.26,-0.14,1.34
28.53997302055359,-0.25,-1.52,0.6,1.65
28.54994797706604,-0.07,-1.74,1.16,2.09
28.56009793281555,0.02,-1.83,1.53,2.38
28.57832407951355,0.14,-1.8,1.66,2.45
28.579950094223022,0.18,-1.74,1.45,2.27
28.590192079544067,0.23,-1.57,0.97,1.85
28.600207090377808,0.3,-1.35,0.41,1.44
28.61024022102356,0.31,-1.18,-0.13,1.22
28.62873601913452,0.35,-1.03,-0.56,1.22
28.6301109790802,0.39,-0.83,-0.82,1.23
28.64067816734314,0.38,-0.72,-0.89,1.2
28.650190114974976,0.36,-0.76,-0.81,1.16
28.66032910346985,0.41,-0.83,-0.65,1.13
28.678498029708862,0.52,-0.88,-0.44,1.11
28.679879903793335,0.62,-0.94,-0.26,1.15
28.690141916275024,0.69,-0.97,-0.14,1.19
28.69990110397339,0.71,-0.85,-0.07,1.1
28.710205078125,0.71,-0.63,0.06,0.95
28.7286479473114,0.69,-0.35,0.22,0.8
28.729923963546753,0.57,0.01,0.32,0.65
28.740154027938843,0.44,0.39,0.32,0.66
28.750147104263306,0.29,0.74,0.19,0.81
28.760164976119995,0.16,1.06,-0.08,1.07
28.77905011177063,0.06,1.39,-0.33,1.42
28.780017137527466,-0.03,1.88,-0.36,1.91
28.790292024612427,-0.08,2.29,-0.11,2.29
28.800079107284546,-0.02,2.39,0.09,2.39
28.810174226760864,-0.01,2.52,0.01,2.52
28.829236030578613,-0.06,2.88,-0.28,2.89
28.83000111579895,-0.05,3.12,-0.59,3.17
28.840166091918945,-0.06,3.11,-0.89,3.23
28.850213050842285,-0.09,2.73,-1.25,3.0
28.860306978225708,-0.17,2.23,-1.74,2.83
28.87960696220398,-0.28,1.72,-2.26,2.85
28.87997007369995,-0.47,0.97,-2.64,2.85
28.89023518562317,-0.71,0.1,-2.72,2.81
28.900217056274414,-0.78,-0.66,-2.49,2.69
28.910167932510376,-0.76,-1.21,-1.93,2.4
28.93000817298889,-0.73,-1.62,-1.13,2.1
28.93039107322693,-0.66,-1.8,-0.39,1.95
28.94431710243225,-0.67,-1.77,0.62,1.99
28.95427918434143,-0.59,-1.51,0.78,1.79
28.964190006256104,-0.5,-1.19,0.74,1.48
28.982614040374756,-0.43,-0.9,0.49,1.11
28.984090089797974,-0.48,-0.67,0.02,0.82
28.994213104248047,-0.4,-0.33,-0.49,0.71
29.004149198532104,-0.26,0.09,-0.91,0.95
29.014201879501343,-0.16,0.37,-1.26,1.32
29.03183102607727,-0.21,0.35,-1.62,1.67
29.034137964248657,-0.3,0.19,-1.94,1.97
29.044177055358887,-0.36,-0.01,-2.12,2.15
29.054235219955444,-0.38,-0.15,-1.99,2.03
29.064261198043823,-0.47,-0.3,-1.62,1.71
29.07993507385254,-0.55,-0.4,-1.17,1.35
29.084295988082886,-0.56,-0.49,-0.74,1.04
29.094173192977905,-0.48,-0.55,-0.37,0.81
29.10430598258972,-0.43,-0.58,0.02,0.72
29.114229917526245,-0.41,-0.58,0.33,0.78
29.1302490234375,-0.41,-0.58,0.57,0.91
29.134289979934692,-0.29,-0.59,0.7,0.96
29.144227027893066,-0.21,-0.57,0.69,0.91
29.154309034347534,-0.19,-0.55,0.58,0.82
29.16434407234192,-0.03,-0.43,0.35,0.55
29.180618047714233,0.06,-0.31,0.21,0.37
29.184375047683716,0.06,-0.22,0.04,0.23
29.194314002990723,0.08,-0.13,-0.11,0.18
29.2043559551239,-0.05,-0.08,-0.23,0.24
29.214298963546753,-0.19,-0.12,-0.34,0.4
29.230988025665283,-0.27,-0.19,-0.44,0.55
29.234370946884155,-0.36,-0.23,-0.49,0.65
29.244210958480835,-0.43,-0.27,-0.47,0.69
29.254281044006348,-0.59,-0.35,-0.45,0.82
29.264353036880493,-0.78,-0.45,-0.47,1.01
29.28115701675415,-0.95,-0.51,-0.47,1.17
29.2842960357666,-1.0,-0.49,-0.39,1.17
29.294311046600342,-0.97,-0.38,-0.36,1.1
29.304326057434082,-0.92,-0.26,-0.36,1.02
29.31430220603943,-0.76,-0.1,-0.39,0.86
29.33197808265686,-0.67,0.19,-0.32,0.76
29.334290027618408,-0.56,0.54,-0.07,0.78
29.344277143478394,-0.38,0.8,0.21,0.91
29.35423493385315,-0.26,0.89,0.34,0.98
29.3643319606781,-0.11,0.93,0.25,0.96
29.38124108314514,-0.08,1.02,-0.03,1.02
29.38419795036316,-0.02,1.12,-0.46,1.21
29.394174098968506,-0.02,1.23,-0.95,1.55
29.404227018356323,0.11,1.21,-1.41,1.86
29.414252996444702,0.1,1.08,-1.78,2.08
29.430068016052246,-0.07,1.11,-2.1,2.37
29.43415403366089,-0.06,1.12,-2.18,2.45
29.44416308403015,-0.07,1.02,-2.09,2.32
29.454160928726196,-0.12,0.76,-1.82,1.97
29.464279890060425,-0.23,0.38,-1.4,1.46
29.48022723197937,-0.32,-0.01,-1.0,1.05
29.48410701751709,-0.4,-0.38,-0.72,0.9
29.49424910545349,-0.43,-0.64,-0.5,0.91
29.50431990623474,-0.14,-0.82,-0.14,0.84
29.514321088790894,-0.16,-1.01,0.06,1.02
29.530315160751343,-0.31,-1.11,-0.2,1.16
29.53420400619507,-0.09,-0.77,-0.17,0.79
29.544368982315063,-0.15,-0.81,-0.37,0.9
29.55439305305481,0.06,-0.75,-0.7,1.02
29.564423084259033,0.05,-0.41,-0.87,0.96
29.580940008163452,0.22,-0.06,-0.77,0.8
29.584240198135376,0.41,0.16,-0.56,0.71
29.5943820476532,0.46,0.26,-0.3,0.6
29.60436201095581,0.36,0.33,-0.12,0.5
29.614368200302124,0.28,0.4,-0.08,0.49
29.63075304031372,0.15,0.5,-0.12,0.53
29.634223222732544,0.02,0.62,-0.34,0.7
29.64436411857605,-0.16,0.7,-0.73,1.02
29.65441608428955,-0.34,0.72,-1.21,1.44
29.664359092712402,-0.43,0.72,-1.58,1.78
29.68059515953064,-0.55,0.71,-1.82,2.02
29.6841561794281,-0.6,0.68,-1.83,2.04
29.694366216659546,-0.47,0.59,-1.61,1.77
29.704493045806885,-0.35,0.44,-1.39,1.49
29.71435809135437,-0.31,0.29,-1.21,1.28
29.730992078781128,-0.27,0.17,-0.98,1.03
29.734233140945435,-0.19,0.01,-0.77,0.79
29.744309186935425,-0.07,-0.18,-0.63,0.65
29.75447702407837,0.05,-0.34,-0.57,0.66
29.764477968215942,0.15,-0.39,-0.56,0.69
29.780991077423096,0.28,-0.34,-0.61,0.75
29.784251928329468,0.34,-0.24,-0.67,0.78
29.794393062591553,0.37,-0.2,-0.72,0.83
29.804556131362915,0.45,-0.19,-0.67,0.82
29.814399003982544,0.53,-0.06,-0.52,0.74
29.831444025039673,0.6,0.01,-0.34,0.68
29.83416509628296,0.65,-0.03,-0.26,0.7
29.84444308280945,0.64,0.0,-0.28,0.69
29.8545081615448,0.62,0.18,-0.38,0.74
29.86431097984314,0.62,0.33,-0.47,0.84
29.882373094558716,0.59,0.37,-0.56,0.89
29.884357213974,0.5,0.37,-0.65,0.89
29.894445180892944,0.37,0.35,-0.74,0.89
29.904316186904907,0.3,0.35,-0.72,0.85
29.91438889503479,0.21,0.27,-0.62,0.7
29.9327290058136,0.12,0.09,-0.48,0.5
29.934338092803955,0.01,-0.07,-0.38,0.38
29.9445059299469,-0.1,-0.16,-0.29,0.34
29.95426917076111,-0.18,-0.24,-0.18,0.34
29.96447491645813,-0.27,-0.36,-0.06,0.45
29.98217010498047,-0.37,-0.47,0.05,0.6
29.98431706428528,-0.43,-0.6,0.08,0.74
29.994374990463257,-0.42,-0.73,0.01,0.84
30.004481077194214,-0.37,-0.76,-0.11,0.85
30.014408111572266,-0.29,-0.75,-0.24,0.83
30.032154083251953,-0.14,-0.66,-0.34,0.75
30.03451108932495,-0.06,-0.53,-0.44,0.69
30.044524908065796,-0.01,-0.41,-0.44,0.6
30.054339170455933,0.01,-0.35,-0.36,0.5
30.06450390815735,0.0,-0.3,-0.3,0.42
30.081629991531372,-0.03,-0.21,-0.28,0.35
30.0844829082489,-0.07,-0.13,-0.29,0.32
30.094547033309937,-0.13,-0.04,-0.32,0.34
30.104432106018066,-0.21,-0.01,-0.39,0.44
30.11453890800476,-0.24,-0.03,-0.48,0.53
30.13338804244995,-0.22,-0.02,-0.54,0.58
30.134698152542114,-0.17,0.01,-0.53,0.55
30.144537210464478,-0.12,0.02,-0.49,0.5
30.154392957687378,-0.09,0.0,-0.39,0.4
30.164549112319946,-0.12,-0.08,-0.24,0.27
30.183696031570435,-0.16,-0.15,-0.06,0.22
