time,ax,ay,az,atotal
0.04832291603088379,0.08,0.12,-0.05,0.15
0.04981398582458496,0.0,0.02,-0.49,0.49
0.05037808418273926,-0.07,-0.06,-0.15,0.17
0.05085897445678711,-0.1,-0.06,0.09,0.14
0.053843021392822266,-0.06,-0.05,0.12,0.14
0.05568099021911621,-0.01,-0.02,0.02,0.03
0.07167887687683105,0.01,-0.02,-0.02,0.03
0.07561302185058594,0.04,-0.03,0.08,0.09
0.08555793762207031,0.02,0.01,0.14,0.14
0.09543585777282715,-0.02,0.03,0.05,0.06
0.10585284233093262,-0.06,0.04,-0.08,0.1
0.11607098579406738,-0.06,0.06,-0.09,0.12
0.12566399574279785,-0.04,0.05,-0.05,0.08
0.13536286354064941,-0.04,0.04,-0.01,0.05
0.14545893669128418,0.0,0.04,0.01,0.04
0.1556999683380127,0.03,0.03,0.03,0.05
0.16605591773986816,0.02,0.03,0.02,0.04
0.17561984062194824,0.03,0.0,-0.12,0.12
0.18546414375305176,0.0,0.05,-0.02,0.05
0.1955258846282959,-0.03,0.04,0.14,0.14
0.2057640552520752,-0.07,0.0,0.07,0.09
0.21610188484191895,-0.06,0.01,-0.03,0.06
0.22565102577209473,-0.04,-0.01,-0.02,0.04
0.23550105094909668,0.01,-0.02,0.03,0.03
0.2454969882965088,0.05,0.01,0.08,0.09
0.25718092918395996,0.07,0.0,0.11,0.13
0.2661600112915039,0.07,-0.01,0.05,0.08
0.27561306953430176,0.03,-0.03,0.01,0.04
0.285675048828125,0.02,-0.01,0.03,0.03
0.295637845993042,0.02,0.01,0.01,0.02
0.30598902702331543,0.02,0.03,0.01,0.03
0.3162720203399658,0.0,0.05,0.03,0.05
0.3258521556854248,0.01,0.08,0.02,0.08
0.3357119560241699,0.01,0.05,0.0,0.05
0.34647297859191895,-0.02,0.03,-0.01,0.03
0.3576481342315674,-0.01,0.04,-0.01,0.04
0.3664228916168213,0.0,0.04,0.0,0.04
0.37640881538391113,0.0,0.05,0.01,0.05
0.3862769603729248,0.01,0.03,0.0,0.03
0.39569997787475586,0.01,0.0,0.03,0.03
0.40828895568847656,0.02,-0.04,0.05,0.06
0.41643786430358887,0.0,-0.06,0.0,0.06
0.4265110492706299,-0.01,-0.04,-0.04,0.05
0.4363710880279541,0.01,-0.02,-0.02,0.03
0.4458639621734619,0.03,-0.02,0.03,0.04
0.45831894874572754,0.02,-0.01,0.06,0.06
0.466533899307251,0.0,0.02,0.05,0.05
0.47650694847106934,0.03,0.04,0.02,0.05
0.48626208305358887,0.01,0.04,0.0,0.04
0.4958789348602295,0.02,0.04,0.01,0.04
0.508922815322876,0.05,0.05,-0.01,0.07
0.5164258480072021,0.04,0.05,-0.04,0.07
0.5268890857696533,0.0,0.03,-0.01,0.03
0.5364258289337158,0.0,-0.01,0.02,0.02
0.5461950302124023,0.01,-0.02,0.0,0.02
0.5585148334503174,-0.02,-0.02,0.0,0.02
0.567094087600708,-0.01,-0.01,-0.01,0.01
0.5764639377593994,0.02,0.01,-0.04,0.04
0.5864880084991455,0.02,0.0,0.02,0.02
0.5959889888763428,0.02,-0.05,0.09,0.1
0.6083271503448486,0.12,-0.05,0.11,0.17
0.6165139675140381,0.14,-0.09,0.01,0.16
0.6266160011291504,0.04,-0.16,-0.11,0.19
0.6363649368286133,-0.06,-0.24,-0.24,0.34
0.6458339691162109,-0.02,-0.26,-0.09,0.27
0.6581709384918213,0.09,-0.1,0.43,0.45
0.6666610240936279,0.06,-0.13,0.67,0.68
0.6767899990081787,0.17,-0.09,0.52,0.55
0.6864230632781982,0.2,-0.07,0.21,0.29
0.695997953414917,0.15,-0.07,0.06,0.17
0.7086660861968994,0.05,-0.01,0.1,0.11
0.715623140335083,0.01,0.04,0.13,0.13
0.7265050411224365,0.01,0.1,0.06,0.11
0.7367780208587646,0.06,0.14,-0.02,0.15
0.745866060256958,0.07,0.14,0.0,0.15
0.7589318752288818,0.12,0.17,0.05,0.21
0.7677991390228271,0.09,0.15,0.08,0.19
0.7762720584869385,0.07,0.09,-0.01,0.11
0.7863318920135498,0.05,0.04,-0.1,0.11
0.7960431575775146,0.07,-0.01,-0.11,0.13
0.8088729381561279,0.13,-0.02,-0.08,0.15
0.8168070316314697,0.19,-0.02,-0.04,0.19
0.826869010925293,0.16,-0.07,0.06,0.18
0.8364861011505127,0.21,-0.08,0.08,0.23
0.8460028171539307,0.25,-0.1,0.07,0.27
0.8589229583740234,0.25,-0.17,-0.04,0.3
0.8677999973297119,0.24,-0.21,0.0,0.31
0.87648606300354,0.3,-0.25,0.1,0.4
0.8862659931182861,0.29,-0.38,0.1,0.48
0.8961179256439209,0.36,-0.46,0.13,0.59
0.909538984298706,0.42,-0.51,0.15,0.67
0.9180071353912354,0.41,-0.56,0.18,0.71
0.9265429973602295,0.47,-0.57,0.19,0.76
0.9368078708648682,0.57,-0.5,0.18,0.77
0.9460639953613281,0.58,-0.44,0.23,0.76
0.9585778713226318,0.58,-0.38,0.22,0.72
0.9667689800262451,0.59,-0.26,0.24,0.68
0.976794958114624,0.61,-0.07,0.21,0.64
0.9864909648895264,0.65,0.01,0.13,0.66
0.9962379932403564,0.69,0.09,0.15,0.71
1.0100460052490234,0.67,0.11,0.28,0.73
1.0179178714752197,0.72,0.12,0.22,0.76
1.0265419483184814,0.81,0.18,0.15,0.84
1.0367369651794434,0.87,0.14,0.25,0.91
1.0459890365600586,0.84,0.13,0.33,0.91
1.0600659847259521,0.88,0.14,0.32,0.94
1.0681068897247314,0.82,0.03,0.23,0.85
1.076422929763794,0.83,-0.07,0.09,0.83
1.086672067642212,0.78,-0.13,0.0,0.79
1.0961339473724365,0.65,-0.19,0.09,0.68
1.1099488735198975,0.61,-0.22,0.19,0.67
1.118082046508789,0.52,-0.2,0.22,0.59
1.126600980758667,0.41,-0.22,0.16,0.49
1.136772871017456,0.34,-0.19,0.13,0.41
1.146251916885376,0.27,-0.21,0.19,0.39
1.1585681438446045,0.16,-0.2,0.29,0.38
1.1668310165405273,0.16,-0.25,0.56,0.63
1.1767899990081787,0.14,-0.21,0.61,0.66
1.186650037765503,0.09,-0.23,0.64,0.68
1.1963388919830322,0.03,-0.23,0.68,0.71
1.2101500034332275,-0.01,-0.28,0.67,0.72
1.2182438373565674,-0.13,-0.29,0.7,0.76
1.226607084274292,-0.25,-0.4,0.71,0.85
1.2368128299713135,-0.32,-0.47,0.56,0.79
1.2461731433868408,-0.45,-0.5,0.59,0.89
1.2603628635406494,-0.6,-0.51,0.74,1.08
1.2661159038543701,-0.74,-0.39,0.88,1.21
1.2769100666046143,-0.77,-0.25,1.07,1.34
1.2866120338439941,-0.73,0.0,1.29,1.48
1.2962019443511963,-0.7,0.25,1.23,1.43
1.3094651699066162,-0.83,0.49,1.08,1.44
1.3166370391845703,-0.91,0.6,0.96,1.45
1.3267428874969482,-0.89,0.72,0.91,1.46
1.336789846420288,-0.74,0.95,1.25,1.73
1.34627103805542,-0.66,0.84,1.38,1.74
1.3598170280456543,-0.55,0.56,1.11,1.35
1.3666629791259766,-0.52,0.34,0.74,0.96
1.376633882522583,-0.52,0.07,0.58,0.78
1.3867709636688232,-0.52,-0.14,0.69,0.87
1.3962180614471436,-0.51,-0.4,0.66,0.92
1.4101459980010986,-0.53,-0.66,0.6,1.03
1.4165849685668945,-0.47,-0.85,0.61,1.14
1.4269449710845947,-0.41,-1.01,0.72,1.3
1.436690092086792,-0.35,-1.15,0.87,1.48
1.4465510845184326,-0.33,-1.22,0.95,1.58
1.4599940776824951,-0.33,-1.3,0.99,1.66
1.468445062637329,-0.41,-1.33,0.96,1.69
1.4764750003814697,-0.5,-1.33,0.92,1.69
1.4869120121002197,-0.59,-1.3,0.95,1.71
1.4963948726654053,-0.65,-1.25,1.02,1.73
1.510162115097046,-0.64,-1.13,1.11,1.7
1.516874074935913,-0.61,-1.03,1.25,1.73
1.5268619060516357,-0.6,-0.95,1.36,1.76
1.53672194480896,-0.6,-0.91,1.4,1.77
1.546349048614502,-0.61,-0.86,1.58,1.89
1.5601928234100342,-0.59,-0.8,1.73,1.99
1.5667550563812256,-0.69,-0.85,1.71,2.03
1.5767838954925537,-0.77,-0.84,1.65,2.0
1.586859941482544,-0.86,-0.82,1.65,2.03
1.596444845199585,-0.91,-0.87,1.68,2.09
1.6102068424224854,-0.95,-0.88,1.64,2.08
1.6161820888519287,-1.0,-0.86,1.49,1.98
1.6269500255584717,-1.03,-0.84,1.4,1.93
1.6364080905914307,-1.04,-0.72,1.34,1.84
1.6461760997772217,-1.01,-0.6,1.35,1.78
1.6598398685455322,-0.93,-0.45,1.53,1.84
1.6666719913482666,-0.9,-0.25,1.67,1.91
1.6770298480987549,-0.88,-0.09,1.74,1.95
1.6865689754486084,-0.86,0.13,1.73,1.93
1.6963210105895996,-0.86,0.29,1.75,1.97
1.709717035293579,-0.81,0.46,1.82,2.04
1.7161180973052979,-0.82,0.66,1.84,2.11
1.7268640995025635,-0.74,0.76,1.89,2.16
1.7365360260009766,-0.71,0.84,1.97,2.25
1.74662184715271,-0.64,0.92,2.02,2.31
1.7616651058197021,-0.59,0.91,2.0,2.27
1.7664539813995361,-0.66,0.86,2.02,2.29
1.776576042175293,-0.71,0.82,2.1,2.36
1.7867259979248047,-0.75,0.69,2.1,2.33
1.7962720394134521,-0.74,0.62,1.97,2.19
1.810222864151001,-0.73,0.45,1.82,2.01
1.8159620761871338,-0.68,0.37,1.61,1.78
1.826982021331787,-0.75,0.6,1.47,1.75
1.8365659713745117,-0.77,1.0,1.58,2.02
1.8462178707122803,-0.84,1.46,1.89,2.53
1.8599979877471924,-0.76,1.92,2.13,2.96
1.8668780326843262,-0.7,2.35,1.62,2.93
1.8766889572143555,-0.68,2.4,0.06,2.49
1.8868229389190674,-0.56,2.42,-1.54,2.92
1.896362066268921,-0.16,2.07,-2.53,3.27
1.9097259044647217,0.44,1.61,-2.68,3.15
1.9159629344940186,0.73,1.18,-1.79,2.26
1.9269299507141113,0.98,0.71,-0.68,1.38
1.9365270137786865,1.01,0.12,-0.17,1.03
1.9464240074157715,0.81,-0.36,-0.11,0.89
1.9597909450531006,0.81,-1.06,-0.39,1.38
1.9660899639129639,0.9,-1.55,-0.69,1.92
1.9767711162567139,1.11,-1.7,-0.89,2.21
1.9864671230316162,1.11,-1.64,-1.21,2.32
1.996366024017334,1.09,-1.4,-1.24,2.16
2.0098788738250732,1.05,-1.05,-0.98,1.77
2.0161569118499756,1.02,-0.84,-0.83,1.56
2.0270299911499023,1.0,-0.54,-0.65,1.3
2.036641836166382,0.93,-0.23,-0.5,1.08
2.046401023864746,0.8,-0.07,-0.54,0.96
2.060084104537964,0.71,0.0,-0.55,0.89
2.066857099533081,0.56,-0.01,-0.48,0.73
2.076777935028076,0.43,-0.12,-0.42,0.61
2.086854934692383,0.32,-0.25,-0.38,0.55
2.0963528156280518,0.28,-0.4,-0.37,0.61
2.109515905380249,0.2,-0.52,-0.34,0.65
2.1160929203033447,0.11,-0.62,-0.27,0.68
2.1269519329071045,0.09,-0.67,-0.27,0.72
2.1366398334503174,0.01,-0.78,-0.25,0.81
2.146440029144287,0.04,-0.94,-0.21,0.96
2.1601221561431885,0.09,-1.05,0.06,1.05
2.1669249534606934,0.2,-1.17,0.21,1.2
2.176935911178589,0.22,-1.31,0.22,1.34
2.1867668628692627,0.29,-1.42,0.22,1.46
2.1964170932769775,0.35,-1.51,0.3,1.57
2.2097270488739014,0.34,-1.56,0.42,1.65
2.2158710956573486,0.34,-1.62,0.42,1.7
2.226957082748413,0.34,-1.67,0.49,1.77
2.2366039752960205,0.27,-1.64,0.61,1.77
2.2462198734283447,0.27,-1.66,0.65,1.8
2.2596938610076904,0.27,-1.68,0.59,1.8
2.2659990787506104,0.22,-1.71,0.55,1.8
2.276726007461548,0.18,-1.71,0.65,1.83
2.2867159843444824,0.22,-1.67,0.77,1.85
2.296447992324829,0.3,-1.58,0.84,1.81
2.310600996017456,0.43,-1.49,0.96,1.82
2.3162238597869873,0.56,-1.4,1.15,1.89
2.3269031047821045,0.68,-1.25,1.35,1.96
2.3365659713745117,0.83,-1.01,1.53,2.01
2.346519947052002,0.94,-0.79,1.64,2.04
2.3605940341949463,0.89,-0.51,1.67,1.95
2.36628794670105,0.88,-0.2,1.67,1.89
2.377058982849121,0.79,0.16,1.67,1.85
2.386680841445923,0.69,0.57,1.63,1.85
2.396527051925659,0.7,0.98,1.51,1.93
2.4103429317474365,0.77,1.31,1.38,2.05
2.416206121444702,0.89,1.67,1.46,2.39
2.427008867263794,1.06,2.04,1.76,2.89
2.4366259574890137,1.22,2.29,2.21,3.4
2.4468259811401367,1.42,2.62,2.72,4.03
2.4604239463806152,1.41,3.01,2.9,4.41
2.4664151668548584,1.07,3.15,2.43,4.11
2.477198839187622,0.64,3.31,1.84,3.84
2.4866278171539307,0.39,3.68,1.4,3.95
2.4965410232543945,0.16,3.83,0.7,3.89
2.51017689704895,-0.05,3.78,0.01,3.78
2.516101121902466,-0.16,3.6,-0.98,3.73
2.527202844619751,-0.42,3.26,-1.71,3.7
2.5368080139160156,-0.6,2.93,-1.54,3.36
2.5467169284820557,-0.62,2.39,-1.06,2.68
2.560788869857788,-0.61,1.81,-0.81,2.07
2.5662801265716553,-0.88,1.21,-1.01,1.8
2.577000856399536,-1.29,0.44,-1.62,2.11
2.5866739749908447,-1.51,0.0,-2.32,2.76
2.5965211391448975,-1.81,-0.17,-2.64,3.2
2.610582113265991,-1.8,-0.09,-2.33,2.94
2.6161370277404785,-1.72,0.18,-1.61,2.36
2.6272518634796143,-1.55,0.39,-1.07,1.92
2.636644124984741,-1.23,0.59,-0.77,1.56
2.64672589302063,-0.88,0.74,-0.72,1.35
2.6610710620880127,-0.65,0.73,-0.9,1.32
2.6663968563079834,-0.55,0.57,-1.11,1.36
2.6770808696746826,-0.43,0.36,-1.12,1.25
2.686671018600464,-0.41,0.1,-0.97,1.05
2.6968460083007812,-0.36,-0.28,-0.77,0.89
2.712430953979492,-0.25,-0.7,-0.59,0.94
2.7162649631500244,-0.1,-1.12,-0.44,1.2
2.727200984954834,0.02,-1.54,-0.39,1.58
2.7366998195648193,0.12,-2.03,-0.56,2.1
2.746739149093628,0.16,-2.45,-0.71,2.55
2.76017689704895,0.3,-2.8,-0.72,2.9
2.766287088394165,0.37,-3.02,-0.81,3.14
2.776944875717163,0.29,-3.15,-0.82,3.26
2.7868010997772217,0.19,-3.16,-0.62,3.22
2.796491861343384,0.11,-3.16,-0.45,3.19
2.8104031085968018,-0.13,-3.11,-0.4,3.13
2.816225051879883,-0.32,-3.04,-0.31,3.07
2.8272011280059814,-0.36,-2.9,-0.2,2.92
2.8369319438934326,-0.45,-2.73,-0.1,2.76
2.846781015396118,-0.48,-2.49,0.01,2.53
2.861203908920288,-0.46,-2.2,0.19,2.25
2.8662989139556885,-0.47,-1.91,0.36,1.99
2.876922845840454,-0.47,-1.62,0.43,1.74
2.887009859085083,-0.49,-1.37,0.37,1.5
2.8966519832611084,-0.5,-1.15,0.29,1.28
2.911389112472534,-0.52,-0.93,0.27,1.09
2.916311025619507,-0.5,-0.66,0.37,0.9
2.9273760318756104,-0.52,-0.41,0.58,0.88
2.9370291233062744,-0.55,-0.2,0.87,1.04
2.946692943572998,-0.62,0.01,1.17,1.32
2.960235834121704,-0.79,0.16,1.4,1.61
2.9663169384002686,-0.85,0.32,1.58,1.82
2.9770190715789795,-0.83,0.5,1.75,2.0
2.986952066421509,-0.85,0.67,1.8,2.1
2.9968910217285156,-0.88,0.78,1.66,2.03
3.0122339725494385,-0.88,0.89,1.36,1.84
3.0168721675872803,-0.77,1.0,1.17,1.72
3.027223825454712,-0.66,1.15,1.27,1.83
3.037019968032837,-0.5,1.34,1.62,2.16
3.0467541217803955,-0.43,1.54,2.07,2.61
3.060774087905884,-0.45,1.68,2.31,2.89
3.0664429664611816,-0.52,1.77,2.32,2.96
3.0771520137786865,-0.58,1.95,2.25,3.03
3.0870158672332764,-0.85,2.18,1.9,3.01
3.096709966659546,-1.23,2.51,1.88,3.36
3.1106109619140625,-1.21,2.99,2.15,3.87
3.1163971424102783,-0.78,3.55,2.19,4.24
3.1273930072784424,-0.2,3.58,1.27,3.8
3.1370160579681396,-0.08,3.77,-0.25,3.77
3.146852970123291,0.14,3.57,-1.71,3.96
3.161393880844116,0.73,2.89,-2.64,3.98
3.166689157485962,0.95,2.16,-2.46,3.4
3.1770451068878174,1.24,1.22,-1.4,2.23
3.1870710849761963,1.4,0.44,-0.33,1.5
3.1964681148529053,1.4,-0.27,0.05,1.42
3.2106900215148926,1.36,-0.86,-0.41,1.66
3.2162110805511475,1.38,-1.16,-1.15,2.13
3.2271969318389893,1.53,-1.2,-1.53,2.47
3.237212896347046,1.69,-0.95,-1.41,2.39
3.2467589378356934,1.73,-0.58,-1.13,2.14
3.260969877243042,1.76,-0.19,-0.94,2.0
3.2665598392486572,1.61,0.04,-1.01,1.9
3.2771220207214355,1.39,0.18,-1.22,1.85
3.287240982055664,1.15,0.17,-1.37,1.79
3.296671152114868,0.86,0.01,-1.36,1.6
3.311600923538208,0.65,-0.24,-1.22,1.4
3.316472053527832,0.47,-0.52,-0.99,1.21
3.327410936355591,0.29,-0.82,-0.66,1.09
3.3372719287872314,0.08,-1.24,-0.51,1.34
3.3469340801239014,-0.06,-1.61,-0.55,1.7
3.3614161014556885,-0.14,-1.91,-0.62,2.01
3.3666279315948486,-0.19,-2.14,-0.62,2.23
3.3771860599517822,-0.2,-2.29,-0.56,2.36
3.387349843978882,-0.13,-2.4,-0.47,2.44
3.396780014038086,-0.02,-2.46,-0.43,2.49
3.4114558696746826,0.11,-2.48,-0.36,2.5
3.4164111614227295,0.25,-2.47,-0.2,2.49
3.427238941192627,0.39,-2.45,-0.05,2.48
3.437483072280884,0.53,-2.37,-0.08,2.42
3.446481943130493,0.6,-2.29,-0.06,2.36
3.461632013320923,0.64,-2.12,0.1,2.21
3.4666249752044678,0.68,-1.97,0.27,2.1
3.476501941680908,0.66,-1.8,0.37,1.95
3.4877469539642334,0.6,-1.6,0.41,1.75
3.496350049972534,0.6,-1.47,0.4,1.63
3.5108699798583984,0.62,-1.3,0.29,1.46
3.516451120376587,0.58,-1.17,0.27,1.33
3.5265469551086426,0.61,-1.04,0.28,1.23
3.5377070903778076,0.75,-0.87,0.36,1.2
3.5466630458831787,0.84,-0.68,0.56,1.21
3.561453104019165,0.94,-0.48,0.85,1.35
3.566509962081909,1.03,-0.16,1.16,1.55
3.5771658420562744,1.0,0.21,1.46,1.78
3.5876448154449463,0.91,0.66,1.78,2.1
3.5967209339141846,0.85,1.11,1.89,2.35
3.613434076309204,0.82,1.47,1.68,2.37
3.6165730953216553,0.79,1.88,1.24,2.38
3.6271450519561768,0.87,2.31,1.04,2.67
3.6377429962158203,1.01,2.72,1.12,3.11
3.6467111110687256,1.01,2.92,1.38,3.38
3.6616220474243164,1.1,3.28,2.27,4.13
3.666588068008423,1.1,3.46,2.85,4.61
3.677201986312866,0.92,3.45,2.81,4.54
3.687736988067627,0.83,3.87,2.43,4.64
3.697183847427368,0.25,3.95,1.73,4.31
3.7137210369110107,-0.21,3.94,0.31,3.95
3.716809034347534,-0.55,3.6,-1.25,3.85
3.727198839187622,-0.89,3.15,-2.34,4.02
3.7379469871520996,-1.01,2.75,-2.49,3.84
3.7469279766082764,-0.97,2.04,-1.84,2.91
3.7620320320129395,-0.88,1.29,-1.0,1.85
3.766649007797241,-0.92,0.68,-0.67,1.32
3.7773489952087402,-1.15,0.22,-0.84,1.44
3.788167953491211,-1.5,0.1,-1.07,1.84
3.7968900203704834,-1.87,0.12,-1.11,2.17
3.811980962753296,-2.01,0.35,-0.97,2.25
3.8165509700775146,-1.94,0.65,-0.76,2.18
3.8275020122528076,-1.74,0.88,-0.71,2.07
3.838012933731079,-1.45,1.0,-0.9,1.97
3.846837043762207,-1.38,1.13,-1.2,2.14
3.8625590801239014,-1.11,0.91,-1.47,2.05
3.866680860519409,-0.89,0.58,-1.49,1.82
3.8772470951080322,-0.77,0.17,-1.22,1.45
3.888079881668091,-0.57,-0.29,-0.7,0.94
3.8968210220336914,-0.48,-0.88,-0.45,1.09
3.9127490520477295,-0.29,-1.53,-0.53,1.64
3.916567087173462,-0.08,-2.12,-0.74,2.24
3.927104949951172,0.12,-2.59,-0.93,2.75
3.938390016555786,0.23,-2.91,-1.07,3.1
3.9470040798187256,0.27,-3.14,-1.13,3.34
3.9619219303131104,0.31,-3.21,-1.18,3.43
3.9667530059814453,0.36,-3.14,-1.16,3.36
3.97731614112854,0.24,-2.97,-1.04,3.15
3.9884889125823975,0.08,-2.76,-0.85,2.88
3.995065927505493,-0.1,-2.62,-0.6,2.68
4.014249086380005,-0.28,-2.52,-0.38,2.56
4.015156030654907,-0.41,-2.47,-0.3,2.52
4.025351047515869,-0.48,-2.43,-0.22,2.48
4.035138845443726,-0.52,-2.36,-0.02,2.41
4.046582937240601,-0.5,-2.23,0.16,2.29
4.0552990436553955,-0.46,-2.07,0.29,2.14
4.065392971038818,-0.35,-1.93,0.33,1.98
4.075922012329102,-0.37,-1.85,0.31,1.91
4.08567214012146,-0.47,-1.74,0.27,1.82
4.0987629890441895,-0.58,-1.66,0.23,1.77
4.105129957199097,-0.73,-1.52,0.25,1.7
4.11523699760437,-0.79,-1.27,0.42,1.55
4.125798940658569,-0.86,-0.97,0.75,1.49
4.135859966278076,-0.91,-0.63,1.19,1.62
4.149106979370117,-0.86,-0.3,1.64,1.87
4.155102014541626,-0.88,0.06,1.94,2.13
4.165817975997925,-0.94,0.47,2.17,2.41
4.175606966018677,-0.89,0.93,2.01,2.38
4.185906171798706,-0.97,1.3,1.21,2.02
4.200420141220093,-1.17,1.56,0.71,2.07
4.205337047576904,-1.11,1.76,0.82,2.23
4.2157628536224365,-0.89,2.11,1.27,2.61
4.225854158401489,-0.6,2.33,1.58,2.87
4.236087083816528,-0.62,2.35,1.77,3.0
4.249549150466919,-0.6,2.34,2.03,3.15
4.2551209926605225,-0.6,2.3,2.24,3.26
4.265820026397705,-0.66,2.32,2.07,3.17
4.275840997695923,-0.54,2.59,1.65,3.11
4.285724878311157,-0.24,3.06,1.35,3.35
4.300526857376099,0.07,3.69,0.88,3.79
4.305377006530762,0.23,4.02,-0.32,4.03
4.316051006317139,0.37,4.21,-1.91,4.63
4.326015949249268,0.68,3.89,-3.1,5.02
4.335674047470093,1.13,3.31,-3.18,4.72
4.349993944168091,1.54,2.49,-2.29,3.71
4.355230093002319,1.77,1.61,-1.21,2.68
4.365978002548218,1.83,0.78,-0.54,2.06
4.375797986984253,1.77,0.18,-0.57,1.86
4.386265993118286,1.83,-0.06,-0.83,2.01
4.400006055831909,1.86,-0.05,-0.93,2.08
4.405379056930542,1.76,0.11,-0.8,1.93
4.41598105430603,1.53,0.23,-0.82,1.75
4.426099061965942,1.25,0.41,-0.8,1.53
4.4359190464019775,1.02,0.59,-0.76,1.4
4.450531005859375,0.64,0.49,-0.86,1.17
4.455435037612915,0.4,0.19,-1.06,1.14
4.466048002243042,0.33,-0.16,-1.09,1.15
4.476010084152222,0.28,-0.6,-0.96,1.16
4.486021041870117,0.23,-1.05,-0.81,1.34
4.501799821853638,0.12,-1.57,-0.69,1.71
4.505516052246094,-0.01,-2.11,-0.75,2.23
4.516044855117798,-0.19,-2.6,-0.79,2.72
4.525984048843384,-0.31,-3.02,-0.79,3.13
4.5360260009765625,-0.46,-3.27,-0.7,3.37
4.55090594291687,-0.58,-3.44,-0.61,3.54
4.555438041687012,-0.51,-3.45,-0.69,3.55
4.566030025482178,-0.45,-3.43,-0.69,3.52
4.575898885726929,-0.3,-3.34,-0.62,3.41
4.585839033126831,-0.1,-3.16,-0.5,3.2
4.601269960403442,0.07,-2.94,-0.34,2.96
4.605532884597778,0.29,-2.67,-0.19,2.69
4.6160900592803955,0.47,-2.47,-0.04,2.51
4.626166105270386,0.6,-2.29,0.15,2.37
4.635923147201538,0.69,-2.06,0.3,2.19
4.651371002197266,0.81,-1.84,0.36,2.04
4.655457973480225,0.88,-1.57,0.34,1.83
4.666179895401001,0.87,-1.36,0.3,1.64
4.675920009613037,0.8,-1.14,0.31,1.42
4.685873985290527,0.7,-0.97,0.4,1.26
4.70056414604187,0.7,-0.83,0.45,1.17
4.705543041229248,0.75,-0.64,0.55,1.12
4.716049909591675,0.86,-0.38,0.78,1.22
4.726006984710693,0.9,-0.09,0.59,1.07
4.7360429763793945,0.73,0.27,0.83,1.13
4.750736951828003,0.86,0.9,1.57,2.0
4.755450010299683,1.16,1.55,2.42,3.09
4.765471935272217,1.41,2.13,2.32,3.45
4.7760009765625,1.21,2.52,1.59,3.21
4.785851001739502,1.14,2.84,1.17,3.27
4.800806999206543,0.99,3.14,1.48,3.6
4.805554151535034,0.87,3.34,2.29,4.14
4.816123008728027,0.78,3.52,2.89,4.62
4.826021909713745,0.51,3.59,2.71,4.52
4.835581064224243,0.12,3.52,1.82,3.96
4.849701166152954,-0.28,3.72,1.0,3.86
4.855342149734497,-0.67,4.1,0.36,4.16
4.866168022155762,-0.8,4.0,-0.55,4.11
4.8760621547698975,-1.02,3.61,-1.58,4.07
4.8859031200408936,-1.23,3.3,-2.0,4.05
4.9003918170928955,-1.27,2.81,-1.85,3.59
4.905585050582886,-1.32,2.05,-1.53,2.87
4.915385007858276,-1.38,1.28,-1.36,2.32
4.92614483833313,-1.39,0.72,-1.41,2.1
4.936010122299194,-1.44,0.42,-1.35,2.01
4.950084924697876,-1.6,0.53,-1.11,2.01
4.955413103103638,-1.7,0.79,-0.83,2.05
4.966180086135864,-1.69,0.97,-0.68,2.06
4.976107835769653,-1.59,1.07,-0.63,2.01
4.985980033874512,-1.28,1.16,-0.55,1.81
4.999796152114868,-1.01,1.05,-0.81,1.66
5.005517959594727,-0.77,0.71,-1.41,1.75
5.0154869556427,-0.43,0.35,-1.51,1.6
5.026221990585327,-0.2,-0.08,-1.12,1.14
5.036098003387451,-0.01,-0.58,-0.64,0.86
5.0503990650177,0.1,-1.13,-0.39,1.19
5.055332899093628,0.19,-1.69,-0.39,1.74
5.065531015396118,0.27,-2.26,-0.47,2.32
5.076081991195679,0.39,-2.81,-0.61,2.9
5.085840940475464,0.46,-3.28,-0.74,3.39
5.099223852157593,0.43,-3.66,-0.85,3.78
5.1064441204071045,0.43,-3.89,-1.09,4.06
5.116158962249756,0.25,-4.03,-1.32,4.24
5.1262171268463135,0.09,-4.04,-1.43,4.28
5.135934114456177,-0.01,-3.9,-1.36,4.13
5.149946928024292,-0.18,-3.71,-1.11,3.87
5.155442953109741,-0.32,-3.45,-0.77,3.54
5.1662819385528564,-0.36,-3.17,-0.44,3.22
5.176128149032593,-0.37,-2.87,-0.17,2.89
5.186168909072876,-0.36,-2.54,0.08,2.56
5.200109958648682,-0.31,-2.14,0.37,2.19
5.205547094345093,-0.3,-1.64,0.73,1.82
5.216150999069214,-0.29,-1.19,1.13,1.66
5.226155042648315,-0.34,-0.69,1.23,1.45
5.236059904098511,-0.48,-0.24,1.08,1.2
5.250982046127319,-0.71,0.08,0.83,1.09
5.255604028701782,-0.96,0.38,0.69,1.24
5.265552997589111,-1.04,0.66,0.68,1.4
5.2762291431427,-0.92,0.8,0.78,1.44
5.2861669063568115,-0.9,0.74,0.54,1.28
5.300194025039673,-0.85,0.65,0.53,1.19
5.305495977401733,-0.69,0.68,1.19,1.53
5.316133975982666,-0.53,0.62,1.76,1.93
5.326040029525757,-0.27,0.62,2.2,2.3
5.336029052734375,-0.19,0.65,1.81,1.93
5.3499228954315186,-0.35,0.6,1.26,1.43
5.355570077896118,-0.57,0.85,1.02,1.44
5.366275072097778,-0.69,1.15,1.18,1.78
5.376146078109741,-0.58,1.53,1.56,2.26
5.38623309135437,-0.32,1.91,1.96,2.75
5.401327848434448,-0.08,2.27,2.25,3.19
5.405728101730347,0.13,2.67,2.15,3.43
5.415511846542358,0.2,3.08,1.54,3.44
5.4262189865112305,0.18,3.58,0.81,3.67
5.436048984527588,0.18,4.15,0.19,4.15
5.450232982635498,0.12,4.61,-0.4,4.62
5.45551609992981,0.06,4.6,-1.28,4.77
5.466277837753296,0.44,4.04,-2.31,4.67
5.476130962371826,0.91,3.29,-2.74,4.37
5.486314058303833,1.3,2.3,-2.21,3.44
5.500241994857788,1.6,1.37,-1.09,2.37
5.505638837814331,1.65,0.61,-0.18,1.76
5.516243934631348,1.47,-0.08,-0.2,1.48
5.5262720584869385,1.28,-0.44,-0.79,1.56
5.536175012588501,1.29,-0.36,-1.09,1.72
5.55115008354187,1.37,-0.17,-1.01,1.71
5.555652856826782,1.38,0.21,-0.74,1.57
5.566388845443726,1.19,0.38,-0.86,1.51
5.575899839401245,0.8,0.38,-1.23,1.51
5.586030960083008,0.54,0.34,-1.43,1.56
5.599817991256714,0.43,0.18,-1.39,1.46
5.605604887008667,0.41,-0.08,-1.17,1.24
5.615633010864258,0.47,-0.45,-0.95,1.15
5.626410961151123,0.5,-0.86,-0.84,1.3
5.63592004776001,0.49,-1.33,-0.75,1.6
5.649675130844116,0.41,-1.78,-0.66,1.94
5.655451059341431,0.33,-2.1,-0.61,2.21
5.66642689704895,0.25,-2.54,-0.66,2.63
5.676149129867554,0.16,-2.82,-0.84,2.94
5.686172008514404,-0.08,-3.08,-0.88,3.2
5.700750112533569,-0.2,-3.23,-0.78,3.32
5.705731153488159,-0.32,-3.28,-0.61,3.35
5.715545892715454,-0.32,-3.29,-0.49,3.34
5.726393938064575,-0.29,-3.25,-0.44,3.29
5.736243009567261,-0.17,-3.15,-0.36,3.17
5.750377893447876,-0.01,-3.05,-0.16,3.05
5.755551099777222,0.26,-2.91,-0.21,2.92
5.766370058059692,0.31,-2.65,0.02,2.66
5.77628493309021,0.47,-2.42,0.32,2.48
5.7861950397491455,0.56,-2.14,0.4,2.24
5.801235914230347,0.62,-1.79,0.35,1.92
5.805820941925049,0.67,-1.46,0.23,1.62
5.816313028335571,0.68,-1.11,0.11,1.3
5.826300859451294,0.73,-0.82,0.06,1.09
5.836025953292847,0.77,-0.55,0.15,0.95
5.850317001342773,0.86,-0.21,0.43,0.98
5.855594873428345,0.94,0.18,0.81,1.25
5.8663718700408936,1.03,0.56,1.17,1.65
5.876353025436401,1.0,0.91,0.84,1.59
5.886240005493164,0.75,1.34,0.81,1.73
5.901210069656372,0.74,1.92,1.17,2.36
5.905787944793701,0.71,2.29,1.75,2.96
5.916351079940796,0.92,2.57,2.01,3.38
5.926339864730835,0.87,2.68,1.75,3.31
5.935873985290527,0.87,2.73,1.75,3.35
5.950562953948975,0.8,2.93,2.06,3.66
5.95577597618103,0.57,3.09,2.18,3.82
5.9664671421051025,0.28,3.27,1.92,3.8
5.976287126541138,-0.05,3.67,1.4,3.92
5.986408948898315,-0.25,3.99,0.59,4.04
5.9998939037323,-0.4,4.09,-0.58,4.15
6.005622148513794,-0.58,3.86,-1.56,4.2
6.0157129764556885,-0.84,3.59,-1.83,4.11
6.026414155960083,-1.04,2.99,-1.5,3.5
6.036224126815796,-1.26,2.02,-1.11,2.62
6.04952597618103,-1.58,1.08,-0.93,2.12
6.055586099624634,-1.97,0.4,-1.06,2.27
6.065793991088867,-2.24,0.15,-1.2,2.54
6.076220989227295,-2.4,0.3,-1.1,2.65
6.086151838302612,-2.43,0.67,-0.78,2.63
6.09942102432251,-2.34,0.92,-0.47,2.55
6.105731010437012,-2.02,1.09,-0.39,2.32
6.115707159042358,-1.54,1.14,-0.52,1.98
6.126529932022095,-1.02,1.03,-0.86,1.68
6.136215925216675,-0.6,0.83,-1.04,1.45
6.149418115615845,-0.37,0.53,-0.88,1.09
6.155609846115112,-0.2,-0.03,-0.74,0.76
6.1658220291137695,-0.09,-0.53,-0.67,0.85
6.1763551235198975,0.01,-1.09,-0.65,1.26
6.186207056045532,0.01,-1.76,-0.57,1.85
6.19937801361084,-0.01,-2.37,-0.57,2.43
6.20560097694397,0.01,-2.94,-0.66,3.01
6.215747117996216,0.09,-3.41,-0.79,3.5
6.2265660762786865,0.18,-3.7,-1.1,3.86
6.23633599281311,0.24,-3.9,-1.43,4.16
6.2501959800720215,0.29,-3.98,-1.56,4.28
6.255704164505005,0.26,-3.89,-1.45,4.15
6.2665300369262695,0.11,-3.75,-1.17,3.92
6.276350021362305,-0.02,-3.51,-0.76,3.59
6.286293983459473,-0.1,-3.21,-0.4,3.23
6.300079107284546,-0.23,-2.92,-0.13,2.93
6.305843114852905,-0.33,-2.58,0.06,2.6
6.316395998001099,-0.39,-2.25,0.28,2.3
6.326462984085083,-0.38,-1.84,0.53,1.95
6.336336851119995,-0.32,-1.34,0.78,1.58
6.350790023803711,-0.37,-0.92,0.96,1.38
6.35578989982605,-0.48,-0.45,0.92,1.13
6.366574048995972,-0.63,-0.05,0.73,0.96
6.376312971115112,-0.83,0.25,0.53,1.01
6.385974168777466,-1.0,0.44,0.51,1.2
6.3993940353393555,-1.16,0.51,0.66,1.42
6.405769109725952,-1.22,0.5,0.94,1.61
6.416255950927734,-1.22,0.43,1.22,1.77
6.42653489112854,-1.11,0.36,1.47,1.87
6.435920000076294,-0.98,0.32,1.73,2.01
6.449398994445801,-0.76,0.39,1.88,2.06
6.45584511756897,-0.63,0.52,1.84,2.01
6.465950012207031,-0.56,0.66,1.19,1.47
6.476421117782593,-0.72,0.85,0.8,1.37
6.486439943313599,-0.67,1.28,1.3,1.94
6.50061297416687,-0.62,1.6,1.78,2.47
6.505840063095093,-0.31,1.95,2.16,2.92
6.516412973403931,-0.19,2.22,1.91,2.93
6.526429891586304,-0.37,2.39,1.66,2.93
6.536328077316284,-0.54,2.71,1.53,3.15
6.551105976104736,-0.67,3.01,1.19,3.3
6.5558741092681885,-0.77,3.26,0.7,3.42
6.566609144210815,-0.59,3.59,0.24,3.64
6.576459169387817,-0.27,3.84,-0.67,3.9
6.586493968963623,0.31,3.68,-1.97,4.18
6.601610898971558,0.95,3.4,-2.93,4.58
6.606099843978882,1.36,2.88,-2.8,4.24
6.6166160106658936,1.43,2.22,-1.81,3.2
6.626550912857056,1.3,1.54,-0.86,2.19
6.63623309135437,1.14,0.97,-0.53,1.58
6.651286840438843,1.07,0.66,-0.7,1.43
6.65596604347229,1.24,0.61,-0.98,1.69
6.666766881942749,1.39,0.74,-1.03,1.88
6.6764490604400635,1.5,0.89,-0.86,1.94
6.686267137527466,1.44,1.05,-0.73,1.92
6.700854063034058,1.21,1.07,-0.71,1.76
6.70605206489563,0.96,0.92,-0.81,1.55
6.716449022293091,0.72,0.69,-1.01,1.41
6.726446866989136,0.51,0.38,-1.14,1.3
6.736506938934326,0.39,0.02,-1.01,1.08
6.751403093338013,0.3,-0.48,-0.9,1.06
6.756036043167114,0.2,-1.04,-0.87,1.37
6.765964984893799,0.21,-1.56,-0.83,1.77
6.776576042175293,0.18,-2.0,-0.71,2.12
6.78629994392395,0.05,-2.43,-0.61,2.5
6.800375938415527,-0.13,-2.84,-0.58,2.9
6.806087970733643,-0.27,-3.15,-0.61,3.21
6.815812826156616,-0.36,-3.32,-0.6,3.39
6.826392889022827,-0.41,-3.42,-0.59,3.49
6.83605694770813,-0.38,-3.45,-0.6,3.52
6.849977016448975,-0.33,-3.4,-0.56,3.46
6.856184005737305,-0.24,-3.28,-0.48,3.32
6.866595029830933,-0.12,-3.21,-0.4,3.23
6.87642502784729,0.0,-3.1,-0.29,3.11
6.886340856552124,0.08,-2.99,-0.19,2.99
6.901793956756592,0.15,-2.93,-0.07,2.93
6.90617299079895,0.2,-2.85,0.09,2.85
6.916589975357056,0.25,-2.7,0.25,2.72
6.926578998565674,0.3,-2.49,0.35,2.53
6.936347961425781,0.39,-2.22,0.43,2.29
6.95113205909729,0.48,-1.89,0.5,2.01
6.956230878829956,0.57,-1.54,0.46,1.7
6.966671943664551,0.62,-1.11,0.5,1.36
6.9762818813323975,0.65,-0.67,0.65,1.13
6.986035108566284,0.65,-0.22,0.89,1.12
7.000349044799805,0.68,0.33,1.25,1.46
7.006353139877319,0.78,0.89,1.57,1.96
7.016618967056274,0.87,1.48,1.55,2.31
7.026515960693359,0.97,2.01,1.35,2.6
7.036255121231079,1.11,2.57,1.27,3.07
7.050472021102905,1.28,3.02,1.26,3.51
7.056602954864502,1.49,3.39,1.53,4.0
7.066084146499634,1.7,3.66,2.12,4.55
7.076485872268677,1.74,3.74,2.68,4.91
7.086326837539673,1.62,3.76,2.96,5.05
7.1000049114227295,1.15,3.71,2.62,4.68
7.106464147567749,0.49,3.66,2.0,4.19
7.1159608364105225,-0.11,3.94,1.45,4.19
7.126477956771851,-0.65,4.0,0.43,4.07
7.136149168014526,-1.06,3.61,-1.05,3.9
7.149547815322876,-1.31,3.2,-2.09,4.04
7.156653165817261,-1.38,2.83,-2.35,3.92
7.166707992553711,-1.4,2.25,-2.07,3.36
7.17644190788269,-1.44,1.53,-1.52,2.59
7.186625957489014,-1.49,0.8,-1.21,2.07
7.2010509967803955,-1.6,0.35,-1.08,1.96
7.206680059432983,-1.62,0.36,-0.91,1.89
7.21660590171814,-1.66,0.43,-0.83,1.9
7.2265918254852295,-1.61,0.64,-0.85,1.92
7.236303091049194,-1.36,0.9,-0.81,1.82
7.251621961593628,-1.13,1.1,-0.83,1.78
7.2566258907318115,-0.8,1.14,-0.99,1.7
7.266911029815674,-0.48,1.03,-1.26,1.69
7.276518106460571,-0.21,0.7,-1.5,1.66
7.286379098892212,-0.02,0.26,-1.43,1.45
7.3009419441223145,0.06,-0.28,-1.79,1.81
7.30669093132019,-0.19,-0.87,-1.45,1.7
7.316715955734253,-0.12,-1.24,-0.48,1.33
7.326492071151733,0.07,-1.67,0.02,1.67
7.336377859115601,0.15,-2.23,-0.29,2.25
7.351814031600952,0.13,-2.73,-0.69,2.81
7.356756925582886,0.12,-3.06,-0.9,3.19
7.366752862930298,0.06,-3.3,-1.02,3.45
7.3765480518341064,-0.02,-3.47,-1.05,3.62
7.3865439891815186,-0.02,-3.5,-1.0,3.64
7.401777029037476,-0.06,-3.46,-0.85,3.56
7.4068238735198975,-0.1,-3.4,-0.67,3.46
7.416756868362427,-0.11,-3.26,-0.52,3.3
7.426594018936157,-0.1,-3.08,-0.42,3.11
7.436522006988525,-0.19,-2.9,-0.38,2.93
7.45243501663208,-0.18,-2.68,-0.29,2.7
7.45679497718811,-0.19,-2.35,-0.1,2.35
7.466794013977051,-0.28,-2.05,0.15,2.07
7.4766340255737305,-0.43,-1.73,0.28,1.8
7.48670506477356,-0.53,-1.46,0.37,1.59
7.501702070236206,-0.65,-1.21,0.42,1.43
7.506910085678101,-0.78,-0.94,0.48,1.31
7.5166871547698975,-0.8,-0.66,0.56,1.17
7.52667498588562,-0.85,-0.39,0.65,1.13
7.5364038944244385,-0.8,-0.15,0.75,1.1
7.5516510009765625,-0.79,-0.01,0.84,1.15
7.556991815567017,-0.76,0.17,1.25,1.47
7.566844940185547,-0.69,0.3,1.45,1.63
7.576620817184448,-0.73,0.37,1.31,1.54
7.586509943008423,-0.81,0.46,1.35,1.64
7.60102391242981,-0.79,0.65,1.57,1.87
7.6058900356292725,-0.74,0.9,1.59,1.97
7.616067171096802,-0.76,1.18,1.55,2.09
7.626749038696289,-0.71,1.54,1.59,2.32
7.636552095413208,-0.62,1.93,1.64,2.6
7.65026593208313,-0.55,2.27,1.74,2.91
7.655925989151001,-0.45,2.58,1.95,3.26
7.666872978210449,-0.43,2.84,2.17,3.59
7.676506042480469,-0.46,3.2,2.13,3.87
7.6867711544036865,-0.4,3.54,1.68,3.93
7.702015161514282,-0.31,3.94,1.12,4.1
7.707081079483032,-0.04,4.34,0.57,4.37
7.716720819473267,0.39,4.46,-0.58,4.51
7.726611852645874,0.72,4.08,-1.94,4.57
7.736503839492798,1.2,3.62,-2.88,4.77
7.752226114273071,1.31,2.92,-2.86,4.29
7.756075143814087,1.31,1.98,-1.96,3.07
7.767035961151123,1.29,1.12,-0.82,1.89
7.776570081710815,1.15,0.41,-0.35,1.27
7.7865309715271,1.1,-0.08,-0.6,1.25
7.8027050495147705,1.27,-0.17,-1.02,1.63
7.807153940200806,1.56,-0.01,-1.04,1.87
7.816741943359375,1.88,0.18,-0.8,2.05
7.826742887496948,1.85,0.41,-0.65,2.0
7.836532831192017,1.69,0.56,-0.73,1.92
7.850754976272583,1.37,0.64,-0.99,1.8
7.856039047241211,1.03,0.54,-1.22,1.68
7.866223096847534,0.73,0.26,-1.33,1.53
7.876729965209961,0.57,-0.12,-1.17,1.3
7.886775016784668,0.52,-0.59,-0.87,1.17
7.901499032974243,0.4,-1.03,-0.58,1.24
7.906240940093994,0.34,-1.56,-0.48,1.66
7.916810035705566,0.21,-2.12,-0.55,2.2
7.926554918289185,0.05,-2.57,-0.59,2.63
7.936721086502075,-0.08,-2.93,-0.61,2.99
7.950969934463501,-0.26,-3.19,-0.65,3.26
7.956019163131714,-0.37,-3.43,-0.61,3.5
7.96622896194458,-0.46,-3.55,-0.6,3.62
7.976542949676514,-0.53,-3.66,-0.63,3.75
7.986707925796509,-0.46,-3.75,-0.65,3.83
8.000010013580322,-0.33,-3.75,-0.6,3.81
8.005933046340942,-0.2,-3.78,-0.52,3.82
8.01611590385437,0.01,-3.64,-0.6,3.68
8.026446104049683,0.05,-3.4,-0.47,3.43
8.036427974700928,0.14,-3.08,-0.11,3.08
8.04922604560852,0.19,-2.75,0.33,2.77
8.056136846542358,0.27,-2.38,0.63,2.47
8.066725969314575,0.34,-1.97,0.63,2.09
8.076748132705688,0.48,-1.51,0.5,1.66
8.08712887763977,0.58,-1.06,-0.17,1.22
8.10151195526123,0.47,-0.67,-0.58,1.0
8.106271028518677,0.66,-0.05,-0.07,0.66
8.116713047027588,1.08,0.6,0.89,1.52
8.12650990486145,1.45,1.1,1.28,2.22
8.13654112815857,1.47,1.37,1.01,2.24
8.149738073348999,1.48,1.72,0.72,2.38
8.156092882156372,1.34,2.05,0.55,2.51
8.166676044464111,1.12,2.26,0.61,2.59
8.176445007324219,0.95,2.51,0.99,2.86
8.186761140823364,0.96,2.79,1.57,3.34
8.201640844345093,1.05,2.98,2.17,3.83
8.206161975860596,1.13,3.23,2.88,4.47
8.216863870620728,1.14,3.53,3.26,4.93
8.22670292854309,0.77,3.55,2.72,4.53
8.236849069595337,0.42,3.74,1.78,4.16
8.250542879104614,0.22,4.03,0.85,4.12
8.256141901016235,-0.14,4.33,0.15,4.33
8.267006158828735,-0.5,4.32,-0.58,4.38
8.276566982269287,-0.8,4.09,-1.24,4.34
8.286627054214478,-1.07,3.71,-1.54,4.15
8.301113843917847,-1.19,2.98,-1.3,3.46
8.306385040283203,-1.29,2.06,-0.79,2.55
8.317300081253052,-1.61,1.15,-0.68,2.09
8.32666802406311,-1.96,0.55,-1.08,2.3
8.336740016937256,-2.14,0.3,-1.34,2.54
8.351016998291016,-2.21,0.39,-1.27,2.57
8.35602593421936,-2.16,0.47,-0.75,2.33
8.366888999938965,-1.83,0.58,-0.4,1.96
8.376934051513672,-1.47,0.54,-0.53,1.65
8.392964124679565,-1.09,0.4,-0.88,1.45
8.400270938873291,-0.69,0.25,-1.12,1.33
8.417855978012085,-0.35,0.1,-1.14,1.19
8.419960975646973,-0.17,-0.17,-1.05,1.07
8.430922985076904,-0.04,-0.56,-0.94,1.09
8.44041895866394,0.01,-0.98,-0.81,1.27
8.45454716682434,-0.01,-1.39,-0.73,1.57
8.459928035736084,-0.03,-1.91,-0.76,2.05
8.469940900802612,-0.07,-2.45,-0.83,2.58
8.480674982070923,-0.05,-2.89,-0.92,3.03
8.490455865859985,-0.09,-3.29,-1.01,3.44
8.504776000976562,-0.12,-3.6,-1.08,3.76
8.509977102279663,-0.08,-3.72,-1.26,3.92
8.52065110206604,-0.14,-3.83,-1.24,4.02
8.53066086769104,-0.12,-3.82,-1.04,3.96
8.540562868118286,-0.15,-3.68,-0.92,3.79
8.556066036224365,-0.25,-3.52,-0.85,3.62
8.560043096542358,-0.34,-3.31,-0.65,3.39
8.570051908493042,-0.4,-2.99,-0.33,3.03
8.580759048461914,-0.37,-2.66,-0.03,2.68
8.590575933456421,-0.32,-2.31,0.31,2.35
8.605942010879517,-0.24,-1.9,0.7,2.03
8.609951972961426,-0.11,-1.43,0.88,1.68
8.620004892349243,-0.09,-1.0,0.98,1.4
8.630768060684204,-0.21,-0.58,0.95,1.13
8.640445947647095,-0.37,-0.25,0.82,0.93
8.654559850692749,-0.55,0.08,0.74,0.92
8.660035848617554,-0.77,0.45,0.8,1.19
8.670701026916504,-0.91,0.6,1.07,1.52
8.680601835250854,-1.03,0.61,1.3,1.76
8.690797090530396,-1.1,0.62,1.35,1.84
8.706058025360107,-1.07,0.57,1.29,1.77
8.710032939910889,-1.07,0.5,1.38,1.81
8.720705032348633,-0.97,0.47,1.67,1.98
8.730679988861084,-0.87,0.57,1.85,2.12
8.74062705039978,-0.78,0.73,1.82,2.11
8.754966974258423,-0.72,0.95,1.68,2.05
8.759988069534302,-0.7,1.22,1.55,2.09
8.770722150802612,-0.68,1.52,1.44,2.2
8.780591011047363,-0.59,1.86,1.4,2.4
8.79057002067566,-0.56,2.24,1.54,2.77
8.804567098617554,-0.49,2.67,1.87,3.29
8.810086011886597,-0.52,3.19,2.14,3.87
8.81999397277832,-0.47,3.68,2.0,4.21
8.830626010894775,-0.24,4.24,1.62,4.54
8.8406240940094,-0.01,4.63,0.59,4.66
8.854849100112915,0.22,4.69,-1.24,4.85
8.859965085983276,0.64,4.29,-3.08,5.31
8.870632886886597,1.09,3.8,-3.99,5.61
8.880566835403442,1.24,3.11,-3.28,4.68
8.890707969665527,1.36,2.39,-1.59,3.17
8.905933141708374,1.39,1.66,-0.2,2.17
8.909955024719238,1.24,0.96,0.06,1.56
8.920022964477539,1.19,0.33,-0.95,1.55
8.930667161941528,1.02,0.01,-1.77,2.04
8.940204858779907,1.12,0.1,-1.25,1.68
8.954231023788452,1.38,0.28,-0.53,1.5
8.95997405052185,1.51,0.33,-0.47,1.61
8.970785856246948,1.28,0.28,-1.04,1.67
8.980751037597656,1.02,0.29,-1.35,1.71
8.990229845046997,0.73,0.25,-1.25,1.46
9.004084825515747,0.3,0.07,-1.17,1.2
9.009947061538696,0.24,-0.22,-1.19,1.23
9.020617008209229,0.16,-0.63,-0.99,1.18
9.030678987503052,0.19,-1.06,-0.67,1.26
9.040664911270142,0.29,-1.51,-0.41,1.59
9.05528998374939,0.33,-1.99,-0.33,2.04
9.059942960739136,0.26,-2.46,-0.4,2.5
9.070744037628174,-0.02,-2.9,-0.51,2.94
9.080695867538452,-0.29,-3.28,-0.68,3.36
9.090713024139404,-0.55,-3.48,-0.92,3.64
9.105746984481812,-0.75,-3.64,-0.94,3.83
9.11015796661377,-0.68,-3.66,-0.84,3.81
9.12072491645813,-0.47,-3.58,-0.75,3.68
9.130772829055786,-0.24,-3.49,-0.63,3.55
9.140422105789185,0.0,-3.39,-0.38,3.41
9.155143976211548,0.21,-3.27,-0.02,3.27
9.16024899482727,0.33,-3.14,0.19,3.16
9.170776128768921,0.38,-2.99,0.18,3.01
9.180743932723999,0.38,-2.85,0.24,2.88
9.190550088882446,0.43,-2.59,0.56,2.68
9.205600023269653,0.53,-2.28,0.64,2.42
9.210181951522827,0.51,-2.0,0.42,2.1
9.220773935317993,0.52,-1.72,0.34,1.82
9.23065996170044,0.61,-1.33,0.4,1.51
9.24044394493103,0.7,-0.96,0.51,1.29
9.254681825637817,0.7,-0.61,0.6,1.1
9.260091066360474,0.7,-0.22,0.77,1.06
9.270030975341797,0.71,0.27,1.12,1.35
9.28052306175232,0.76,0.87,1.55,1.93
9.290441036224365,0.9,1.47,1.84,2.52
9.304497957229614,1.0,2.0,1.84,2.89
9.309998989105225,1.06,2.4,1.56,3.05
9.320110082626343,1.18,2.77,1.25,3.26
9.330785036087036,1.32,3.19,1.39,3.72
9.34038496017456,1.46,3.58,2.15,4.42
9.353703022003174,1.4,3.8,3.0,5.03
9.359968900680542,1.05,3.83,3.19,5.09
9.37078309059143,0.59,3.86,2.52,4.64
9.380674123764038,0.12,4.15,1.66,4.47
9.390608072280884,-0.32,4.3,0.73,4.37
9.405410051345825,-0.69,4.19,-0.59,4.28
9.410177946090698,-1.0,3.81,-1.95,4.39
9.420966863632202,-1.29,3.48,-2.76,4.62
9.430925130844116,-1.34,3.11,-2.92,4.47
9.440709829330444,-1.44,2.48,-2.35,3.7
9.455036878585815,-1.53,1.86,-1.44,2.8
9.460242986679077,-1.56,1.22,-0.97,2.2
9.470876932144165,-1.68,0.81,-0.95,2.09
9.4807870388031,-1.86,0.7,-1.26,2.35
9.490691900253296,-1.91,0.78,-1.52,2.56
9.504727125167847,-1.81,0.98,-1.41,2.49
9.51009202003479,-1.58,1.21,-1.16,2.3
9.520735025405884,-1.31,1.25,-1.08,2.1
9.530733823776245,-1.01,1.11,-1.25,1.95
9.540740966796875,-0.69,0.82,-1.52,1.85
9.555713891983032,-0.49,0.44,-1.57,1.7
9.560251951217651,-0.3,0.01,-1.41,1.44
9.570989847183228,-0.17,-0.4,-1.3,1.37
9.58062481880188,-0.03,-0.95,-1.04,1.4
9.590873956680298,0.02,-1.48,-0.82,1.69
9.605820894241333,0.11,-2.02,-0.79,2.17
9.61023998260498,0.19,-2.52,-0.88,2.67
9.620846033096313,0.23,-2.94,-0.97,3.1
9.630761861801147,0.29,-3.26,-1.04,3.43
9.64075493812561,0.32,-3.5,-1.07,3.67
9.655910968780518,0.27,-3.66,-1.12,3.83
9.660207986831665,0.14,-3.69,-1.1,3.85
9.670866966247559,-0.01,-3.67,-0.92,3.78
9.68087887763977,-0.08,-3.53,-0.71,3.6
9.690835952758789,-0.05,-3.37,-0.52,3.41
9.706329107284546,-0.09,-3.23,-0.31,3.24
9.710272073745728,-0.13,-3.07,-0.46,3.1
9.720091104507446,-0.34,-2.97,-0.74,3.07
9.730704069137573,-0.49,-2.69,-0.14,2.73
9.740520000457764,-0.31,-2.23,0.69,2.35
9.753952026367188,-0.2,-1.9,1.14,2.22
9.76009202003479,-0.24,-1.7,1.01,1.99
9.770199060440063,-0.36,-1.47,0.75,1.68
9.780813932418823,-0.56,-1.17,0.68,1.46
9.79062294960022,-0.74,-0.84,0.64,1.28
9.804999113082886,-0.83,-0.46,0.71,1.18
9.810333967208862,-0.79,-0.13,0.97,1.25
9.820863962173462,-0.64,0.24,1.29,1.45
9.830774068832397,-0.45,0.6,1.65,1.81
9.840759038925171,-0.39,0.9,1.92,2.15
9.856085062026978,-0.33,1.14,2.01,2.33
9.860267877578735,-0.37,1.3,1.9,2.33
9.870911836624146,-0.54,1.4,1.63,2.21
9.88092303276062,-0.67,1.44,1.43,2.13
9.890536069869995,-0.67,1.56,1.45,2.23
9.906605958938599,-0.6,1.77,1.67,2.5
9.910261869430542,-0.5,2.13,2.02,2.97
9.920902967453003,-0.36,2.48,2.37,3.44
9.930726051330566,-0.36,2.67,2.63,3.76
9.940660953521729,-0.26,2.78,2.73,3.9
9.954953908920288,-0.21,2.79,2.44,3.71
9.960086107254028,-0.21,2.65,1.5,3.05
9.970970869064331,-0.28,2.66,0.25,2.68
9.980720043182373,-0.22,2.9,-0.32,2.92
9.990626096725464,-0.06,3.19,-0.59,3.24
10.004443883895874,0.07,3.06,-1.41,3.36
10.010254144668579,0.36,2.71,-2.3,3.57
10.020910024642944,0.66,2.29,-2.46,3.42
10.030894994735718,0.84,1.77,-2.0,2.79
10.04082703590393,0.92,1.14,-1.36,1.99
10.05519700050354,0.97,0.6,-0.8,1.39
10.06026816368103,1.05,0.18,-0.61,1.22
10.070893049240112,1.2,-0.07,-0.74,1.41
10.080826044082642,1.33,-0.13,-0.92,1.62
10.090781927108765,1.46,-0.04,-1.01,1.77
10.10473084449768,1.45,0.28,-0.89,1.72
10.110263109207153,1.18,0.45,-0.86,1.52
10.120327949523926,1.0,0.61,-0.85,1.44
10.130977869033813,0.79,0.59,-0.82,1.28
10.140662908554077,0.61,0.36,-0.8,1.06
10.154798030853271,0.51,-0.03,-0.83,0.97
10.160202980041504,0.46,-0.49,-0.8,1.04
10.1702721118927,0.36,-1.02,-0.57,1.22
10.180846929550171,0.36,-1.53,-0.32,1.6
10.190974950790405,0.28,-1.98,-0.27,2.01
10.204877138137817,0.13,-2.42,-0.31,2.44
10.210264921188354,-0.04,-2.83,-0.4,2.85
10.220899820327759,-0.2,-3.12,-0.48,3.16
10.230916023254395,-0.35,-3.35,-0.5,3.4
10.240720987319946,-0.42,-3.52,-0.56,3.58
10.25501799583435,-0.38,-3.46,-0.57,3.52
10.260231018066406,-0.37,-3.37,-0.58,3.43
10.270346879959106,-0.21,-3.28,-0.61,3.34
10.280964136123657,-0.12,-3.14,-0.58,3.19
10.291133165359497,-0.05,-2.97,-0.43,3.0
10.305263996124268,0.08,-2.78,-0.21,2.78
10.310449838638306,0.22,-2.57,0.04,2.57
10.320328950881958,0.4,-2.33,0.28,2.38
10.331116914749146,0.55,-2.05,0.54,2.19
10.340811014175415,0.7,-1.75,0.67,2.0
10.35422396659851,0.88,-1.44,0.67,1.81
10.360214948654175,0.95,-1.12,0.63,1.59
10.370314836502075,0.9,-0.76,0.54,1.29
10.380954027175903,0.95,-0.4,0.49,1.14
10.390700101852417,0.93,-0.03,0.53,1.07
10.403691053390503,0.92,0.41,0.73,1.24
10.410397052764893,0.99,0.85,0.99,1.63
10.420839071273804,0.99,1.3,1.08,1.95
10.430881977081299,1.0,1.74,1.18,2.32
10.440842866897583,1.11,2.15,1.38,2.78
10.453687906265259,1.14,2.57,1.56,3.21
10.460381031036377,1.27,3.0,1.8,3.72
10.471014976501465,1.51,3.5,2.35,4.47
10.481079816818237,1.55,3.8,2.82,4.97
10.490811109542847,1.23,4.09,3.41,5.46
10.503996133804321,0.86,4.32,3.27,5.48
10.510378122329712,0.46,4.39,2.6,5.12
10.521013021469116,0.17,4.67,1.4,4.87
10.530926942825317,-0.12,4.78,-0.09,4.78
10.540719032287598,-0.47,4.53,-1.24,4.72
10.554569005966187,-0.9,4.01,-1.97,4.55
10.560365915298462,-1.1,3.36,-2.31,4.22
10.571018934249878,-1.19,2.34,-2.18,3.41
10.580997943878174,-1.26,1.31,-1.74,2.51
10.590868949890137,-1.38,0.48,-1.51,2.1
10.603950023651123,-1.61,0.03,-1.45,2.16
10.610336065292358,-1.9,-0.08,-1.26,2.28
10.621011018753052,-1.86,0.02,-1.36,2.3
10.631047010421753,-1.9,0.32,-1.2,2.26
10.641175985336304,-1.71,0.57,-0.91,2.01
10.655801057815552,-1.44,0.72,-0.89,1.83
10.660347938537598,-1.15,0.82,-1.14,1.81
10.671069860458374,-0.81,0.77,-1.47,1.84
10.680981874465942,-0.51,0.56,-1.61,1.77
10.690783977508545,-0.3,0.21,-1.5,1.54
10.704190969467163,-0.18,-0.27,-1.1,1.14
10.710367918014526,-0.07,-0.85,-0.59,1.03
10.721082925796509,0.0,-1.45,-0.2,1.46
10.731129884719849,0.01,-2.1,-0.06,2.1
10.741003036499023,0.08,-2.71,-0.18,2.71
10.756386041641235,0.11,-3.17,-0.27,3.18
10.760445833206177,0.07,-3.55,-0.39,3.57
10.771209955215454,-0.02,-3.89,-0.67,3.94
10.78098201751709,-0.02,-4.05,-1.0,4.17
10.790900945663452,-0.03,-4.08,-1.16,4.24
10.806205034255981,-0.08,-4.07,-1.07,4.2
10.810497999191284,-0.15,-3.96,-0.82,4.04
10.820439100265503,-0.28,-3.72,-0.5,3.76
10.831156015396118,-0.36,-3.42,-0.18,3.44
10.841048002243042,-0.38,-3.09,0.09,3.11
10.85507082939148,-0.4,-2.77,0.3,2.81
10.860384941101074,-0.41,-2.42,0.42,2.49
10.871181011199951,-0.43,-2.08,0.55,2.19
10.881135940551758,-0.46,-1.71,0.78,1.93
10.890830993652344,-0.53,-1.33,0.84,1.65
10.905028104782104,-0.63,-0.96,0.69,1.33
10.910467863082886,-0.77,-0.63,0.52,1.12
10.921092987060547,-0.9,-0.39,0.54,1.11
10.93103814125061,-1.06,-0.17,0.74,1.3
10.940685987472534,-1.06,0.06,1.01,1.46
10.956274032592773,-0.89,0.31,1.32,1.62
10.960556030273438,-0.77,0.57,1.5,1.77
10.971212148666382,-0.69,0.76,1.58,1.88
10.980980157852173,-0.69,0.85,1.64,1.97
10.99093508720398,-0.74,0.96,1.54,1.95
11.004762887954712,-0.76,1.1,1.3,1.86
11.010707139968872,-0.75,1.33,1.11,1.88
11.020524024963379,-0.73,1.66,1.11,2.12
11.031064987182617,-0.77,2.1,1.38,2.62
11.040712118148804,-0.79,2.5,1.91,3.24
11.054425954818726,-0.77,2.96,2.48,3.93
11.060721158981323,-0.62,3.56,2.9,4.63
11.070596933364868,-0.52,4.1,2.67,4.92
11.081007957458496,-0.4,4.51,1.79,4.86
11.090620040893555,-0.13,4.83,0.57,4.86
11.104290008544922,0.11,5.04,-0.58,5.07
11.110708951950073,0.44,4.88,-1.7,5.18
11.120522022247314,1.1,4.29,-2.82,5.25
11.131001949310303,1.47,3.58,-3.4,5.15
11.140573024749756,1.62,2.91,-2.79,4.34
11.15407109260559,1.57,2.22,-1.41,3.06
11.16087293624878,1.2,1.44,-0.14,1.87
11.170549154281616,0.92,0.78,0.42,1.27
11.181152105331421,0.83,0.38,0.2,0.93
11.190781831741333,1.0,0.18,-0.45,1.11
11.204446077346802,1.36,0.09,-1.04,1.71
11.210838079452515,1.53,0.12,-1.44,2.1
11.220536947250366,1.44,0.19,-1.7,2.23
11.230974912643433,1.23,0.12,-2.19,2.51
11.241281986236572,0.93,-0.04,-2.09,2.28
11.255571126937866,0.73,-0.18,-1.21,1.42
11.260843992233276,0.65,-0.62,-0.47,1.01
11.271333932876587,0.54,-1.18,-0.43,1.36
11.281191110610962,0.39,-1.75,-0.8,1.96
11.291062116622925,0.16,-2.3,-1.1,2.55
11.304991006851196,-0.11,-2.78,-1.19,3.02
11.310827016830444,-0.41,-3.15,-0.95,3.31
11.320717096328735,-0.66,-3.42,-0.56,3.52
11.331194162368774,-0.6,-3.62,-0.54,3.7
11.34088397026062,-0.65,-3.77,-0.66,3.88
11.354688882827759,-0.46,-3.91,-0.73,4.0
11.361107110977173,-0.34,-3.84,-0.79,3.93
11.37073802947998,-0.21,-3.71,-0.86,3.81
11.381233930587769,-0.14,-3.53,-0.82,3.62
11.391255140304565,-0.06,-3.35,-0.63,3.4
11.405012845993042,0.02,-3.1,-0.36,3.12
11.410984992980957,0.07,-2.84,-0.15,2.84
11.420645952224731,0.08,-2.63,0.04,2.63
11.43137001991272,0.09,-2.39,0.29,2.4
11.44112515449524,0.28,-2.08,0.58,2.17
11.454756021499634,0.44,-1.75,0.68,1.92
11.460999965667725,0.6,-1.47,0.68,1.72
11.47071099281311,0.72,-1.16,0.59,1.48
11.481189966201782,0.8,-0.87,0.56,1.3
11.491021871566772,0.77,-0.57,0.67,1.16
11.504678010940552,0.72,-0.19,0.94,1.19
11.511141061782837,0.77,0.14,0.99,1.26
11.520601987838745,0.79,0.4,0.93,1.28
11.531077146530151,0.78,0.8,0.98,1.48
11.540874004364014,0.81,1.12,1.1,1.76
11.555156946182251,0.87,1.46,1.17,2.06
11.561227083206177,0.98,1.74,1.14,2.29
11.571256875991821,1.04,1.98,1.33,2.6
11.581321001052856,1.36,2.34,2.02,3.37
11.59125804901123,1.8,2.83,3.09,4.56
11.605065107345581,1.96,3.23,3.8,5.35
11.611343145370483,1.75,3.61,3.57,5.37
11.620516061782837,1.03,4.03,2.96,5.1
11.63122010231018,0.43,4.64,2.12,5.11
11.641427040100098,-0.07,5.08,0.49,5.1
11.655955076217651,-0.69,4.9,-1.54,5.18
11.661425828933716,-1.03,4.48,-3.05,5.51
11.671272039413452,-1.03,3.98,-3.48,5.38
11.681030988693237,-1.03,3.57,-2.7,4.59
11.691184043884277,-1.09,2.99,-1.48,3.5
11.706888914108276,-1.16,2.32,-0.74,2.69
11.711366891860962,-1.33,1.7,-0.37,2.18
11.721274137496948,-1.54,1.23,-0.36,2.0
11.731259107589722,-1.84,0.87,-0.79,2.18
11.741018056869507,-1.99,0.69,-1.28,2.46
11.755482912063599,-1.99,0.78,-1.33,2.51
11.761286973953247,-1.74,0.94,-1.05,2.23
11.771454095840454,-1.23,1.06,-0.8,1.81
11.781192064285278,-0.63,1.04,-0.76,1.43
11.790971994400024,-0.18,0.84,-0.88,1.22
11.804963827133179,0.12,0.43,-1.1,1.18
11.811517000198364,0.14,-0.11,-1.3,1.31
11.820765018463135,0.04,-0.71,-1.35,1.52
11.831324815750122,-0.04,-1.28,-1.22,1.76
11.84119701385498,-0.12,-1.88,-1.07,2.16
11.855649948120117,-0.22,-2.45,-1.0,2.65
11.86152696609497,-0.24,-2.92,-1.01,3.09
11.871503114700317,-0.29,-3.27,-1.15,3.47
11.881176948547363,-0.24,-3.58,-1.2,3.78
11.89121413230896,-0.08,-3.7,-1.1,3.86
11.906667947769165,0.09,-3.75,-1.0,3.88
11.911520957946777,0.22,-3.74,-0.93,3.86
11.921591997146606,0.29,-3.56,-0.77,3.65
11.931307077407837,0.36,-3.37,-1.04,3.54
11.941035032272339,0.02,-3.37,-1.41,3.65
11.956699132919312,-0.17,-3.28,-0.72,3.36
11.9616539478302,0.06,-2.91,-0.01,2.91
11.971628904342651,0.0,-2.78,0.29,2.79
11.981180906295776,-0.1,-2.65,0.11,2.65
11.991798162460327,-0.2,-2.43,0.02,2.43
12.005589962005615,-0.31,-2.11,0.11,2.13
12.006855964660645,-0.53,-1.86,0.33,1.96
12.016700029373169,-0.65,-1.61,0.52,1.81
12.027643918991089,-0.66,-1.25,0.71,1.58
12.037184953689575,-0.63,-0.82,0.93,1.39
12.052497148513794,-0.54,-0.38,1.22,1.38
12.056974172592163,-0.43,0.1,1.46,1.52
12.067543029785156,-0.45,0.58,1.64,1.79
12.077379941940308,-0.44,0.95,1.67,1.97
12.087836027145386,-0.48,1.29,1.6,2.11
12.104382991790771,-0.55,1.53,1.57,2.26
12.106877088546753,-0.58,1.71,1.5,2.34
12.117326974868774,-0.6,1.78,1.4,2.34
12.127299070358276,-0.75,1.81,1.3,2.35
12.137804985046387,-0.78,1.9,1.37,2.46
12.154177904129028,-0.67,2.04,1.53,2.63
12.156957864761353,-0.66,2.11,1.63,2.74
12.167358160018921,-0.69,2.08,1.68,2.76
12.177261114120483,-0.58,2.3,1.99,3.09
12.188082933425903,-0.58,2.65,1.97,3.35
12.205175161361694,-0.6,2.93,1.49,3.34
12.207040071487427,-0.53,3.4,0.81,3.53
12.21744704246521,-0.3,3.89,-0.05,3.9
12.22767186164856,-0.11,4.12,-1.2,4.29
12.237891912460327,0.17,4.05,-2.55,4.78
12.255337953567505,0.76,3.78,-3.52,5.22
12.256868124008179,1.09,3.38,-3.37,4.89
12.2675621509552,1.25,2.7,-2.21,3.7
12.277353048324585,1.33,2.04,-0.94,2.61
12.288172960281372,1.26,1.41,-0.16,1.89
12.305247068405151,1.23,0.87,-0.08,1.5
12.307059049606323,1.32,0.62,-0.37,1.5
12.317653894424438,1.43,0.69,-0.58,1.69
12.327136993408203,1.34,0.74,-0.73,1.69
12.337905168533325,1.17,0.83,-1.04,1.77
12.35307502746582,0.91,0.88,-1.17,1.72
12.356799840927124,0.61,0.85,-1.15,1.55
12.367791891098022,0.46,0.65,-1.1,1.35
12.381446123123169,0.32,0.23,-1.09,1.15
12.391472101211548,0.16,-0.36,-1.12,1.18
12.406759977340698,0.1,-0.87,-1.14,1.43
12.410907983779907,-0.02,-1.38,-0.97,1.68
12.421714067459106,-0.09,-1.85,-0.91,2.06
12.431282997131348,-0.2,-2.25,-0.95,2.45
12.44130802154541,-0.3,-2.61,-0.9,2.77
12.457396984100342,-0.34,-2.91,-0.85,3.05
12.460901021957397,-0.44,-3.18,-0.73,3.29
12.47194790840149,-0.38,-3.38,-0.74,3.48
12.48127293586731,-0.23,-3.46,-0.9,3.58
12.491209030151367,-0.1,-3.46,-0.98,3.59
12.50612497329712,0.0,-3.39,-0.96,3.52
12.510820150375366,0.09,-3.31,-0.98,3.45
12.52156400680542,0.13,-3.2,-1.0,3.35
12.531288862228394,0.17,-3.03,-0.81,3.14
12.541527032852173,0.24,-2.84,-0.51,2.89
12.55669093132019,0.3,-2.66,-0.28,2.69
12.560932874679565,0.4,-2.48,-0.15,2.51
12.571532964706421,0.46,-2.28,-0.04,2.32
12.581309080123901,0.54,-2.12,-0.22,2.19
12.591430902481079,0.41,-1.99,-0.31,2.05
12.606603860855103,0.35,-1.79,0.27,1.84
12.610966920852661,0.52,-1.47,0.92,1.81
12.621506929397583,0.78,-1.12,1.13,1.77
12.631419897079468,0.92,-0.83,0.87,1.51
12.64140796661377,0.89,-0.51,0.79,1.29
12.657382011413574,0.79,-0.16,0.94,1.23
12.660926103591919,0.65,0.21,1.06,1.26
12.671793937683105,0.64,0.62,1.15,1.45
12.681236982345581,0.77,1.12,1.3,1.88
12.691822052001953,0.92,1.66,1.51,2.42
12.70655608177185,1.15,2.08,1.76,2.95
12.71083402633667,1.53,2.48,2.14,3.61
12.721524953842163,1.88,2.91,2.72,4.4
12.731489896774292,2.14,3.18,3.34,5.08
12.741328954696655,2.17,3.25,3.51,5.25
12.754968881607056,1.95,3.26,3.33,5.05
12.76072096824646,1.41,3.36,2.76,4.57
12.771629095077515,0.47,3.42,1.71,3.85
12.781159162521362,-0.63,3.59,0.66,3.7
12.791745901107788,-1.3,4.01,-0.12,4.21
12.807250022888184,-1.73,4.19,-0.77,4.59
12.810972929000854,-1.92,3.97,-1.51,4.66
12.821553945541382,-1.78,3.62,-2.27,4.62
12.831226110458374,-1.59,3.15,-2.8,4.5
12.841284036636353,-1.31,2.67,-2.76,4.05
12.856948137283325,-1.18,2.23,-2.21,3.35
12.860941171646118,-1.22,1.85,-1.27,2.55
12.871559858322144,-1.37,1.56,-0.65,2.17
12.88122296333313,-1.71,1.19,-0.84,2.24
12.891690969467163,-1.91,1.01,-1.36,2.55
12.907862901687622,-1.88,1.03,-1.54,2.63
12.911041975021362,-1.59,1.14,-1.45,2.43
12.921621084213257,-1.19,1.08,-1.26,2.04
12.931411027908325,-0.83,0.93,-1.04,1.62
12.941452026367188,-0.43,0.75,-0.94,1.27
12.957633018493652,-0.07,0.4,-0.89,0.97
12.960981130599976,0.1,-0.04,-0.86,0.86
12.971871137619019,0.22,-0.53,-0.78,0.96
12.981279134750366,0.22,-1.06,-0.64,1.25
12.991623163223267,0.32,-1.65,-0.51,1.75
13.008012056350708,0.4,-2.25,-0.63,2.37
13.011075973510742,0.44,-2.84,-0.8,2.98
13.021734952926636,0.42,-3.38,-1.11,3.58
13.031421899795532,0.31,-3.8,-1.37,4.05
13.04131293296814,0.32,-4.08,-1.57,4.38
13.057615041732788,0.2,-4.24,-1.66,4.55
13.060894012451172,0.08,-4.26,-1.52,4.52
13.071836948394775,0.01,-4.14,-1.27,4.33
13.081382989883423,0.0,-3.9,-1.02,4.03
13.091619968414307,-0.11,-3.58,-0.84,3.67
13.108018159866333,-0.16,-3.32,-0.64,3.38
13.110993146896362,-0.29,-3.03,-0.37,3.06
13.121691942214966,-0.37,-2.7,-0.09,2.72
13.131540060043335,-0.3,-2.27,0.24,2.3
13.141546964645386,-0.23,-1.83,0.5,1.91
13.157201051712036,-0.24,-1.4,0.57,1.53
13.160978078842163,-0.25,-0.93,0.53,1.09
13.171717882156372,-0.36,-0.54,0.58,0.87
13.181448936462402,-0.48,-0.14,0.6,0.78
13.19160008430481,-0.66,0.25,0.65,0.95
13.207289934158325,-0.85,0.61,0.68,1.24
13.211091041564941,-1.01,0.83,0.59,1.43
13.22159194946289,-1.24,0.89,0.75,1.7
13.231899976730347,-1.19,0.96,1.4,2.07
13.2415931224823,-1.12,0.91,1.85,2.34
13.255849123001099,-0.9,0.8,1.77,2.14
13.26074504852295,-0.62,0.73,1.51,1.78
13.27174687385559,-0.56,0.68,1.41,1.66
13.281319856643677,-0.66,0.62,1.39,1.65
13.291468858718872,-0.68,0.68,1.46,1.74
13.306156873703003,-0.63,0.89,1.52,1.87
13.311100959777832,-0.46,1.21,1.67,2.11
13.321692943572998,-0.35,1.56,1.83,2.43
13.331384897232056,-0.32,1.81,1.92,2.65
13.341567993164062,-0.26,2.02,1.98,2.84
13.356282949447632,-0.39,2.21,1.94,2.96
13.360900163650513,-0.56,2.4,1.72,3.0
13.371644020080566,-0.63,2.79,1.57,3.26
13.381375074386597,-0.57,3.32,1.37,3.63
13.391746044158936,-0.57,3.69,0.42,3.75
13.406239032745361,-0.35,3.61,-1.4,3.88
13.41085410118103,0.0,3.35,-2.87,4.41
13.420964002609253,0.55,3.06,-3.28,4.51
13.431859016418457,0.88,2.52,-2.71,3.8
13.441532850265503,0.97,1.63,-1.5,2.41
13.456696033477783,0.98,0.71,-0.31,1.24
13.461007833480835,1.06,0.0,0.12,1.06
13.471728086471558,1.19,-0.35,-0.19,1.25
13.481702089309692,1.44,-0.28,-0.61,1.58
13.49147915840149,1.74,0.08,-0.61,1.84
13.506325960159302,1.78,0.49,-0.46,1.9
13.511160135269165,1.42,0.87,-0.5,1.73
13.521619081497192,0.97,1.23,-0.74,1.73
13.531568050384521,0.51,1.4,-1.11,1.85
13.541731119155884,0.13,1.25,-1.49,1.94
13.556452989578247,-0.01,0.89,-1.65,1.87
13.561033010482788,0.08,0.45,-1.47,1.53
13.571821928024292,0.23,-0.07,-1.07,1.09
13.58135199546814,0.26,-0.62,-0.61,0.9
13.591578960418701,0.32,-1.21,-0.27,1.28
13.605437994003296,0.15,-1.78,-0.1,1.78
13.611048936843872,-0.16,-2.33,-0.18,2.34
13.621057987213135,-0.38,-2.82,-0.41,2.87
13.631641149520874,-0.63,-3.28,-0.49,3.37
13.641739130020142,-0.73,-3.56,-0.56,3.67
13.654745817184448,-0.6,-3.63,-0.74,3.75
13.661012887954712,-0.54,-3.62,-0.8,3.74
13.671140909194946,-0.33,-3.51,-0.62,3.57
13.681514978408813,-0.05,-3.33,-0.55,3.37
13.691641092300415,0.11,-3.22,-0.54,3.26
13.705022096633911,0.29,-3.15,-0.44,3.19
13.711159944534302,0.3,-2.96,-0.43,3.0
13.721001863479614,0.42,-2.94,-0.32,2.98
13.731714010238647,0.42,-2.74,-0.16,2.77
13.741521120071411,0.53,-2.54,0.0,2.59
13.754992008209229,0.59,-2.23,0.21,2.31
13.76081895828247,0.64,-1.87,0.33,2.0
13.771158933639526,0.72,-1.54,0.45,1.75
13.781637907028198,0.78,-1.13,0.65,1.51
13.791577100753784,0.91,-0.66,0.76,1.35
13.805792093276978,1.12,-0.2,0.84,1.41
13.811229944229126,1.29,0.22,0.75,1.5
13.821061849594116,1.18,0.52,0.79,1.51
13.831962823867798,1.18,0.97,1.42,2.08
13.84153699874878,1.28,1.3,1.69,2.48
13.856433153152466,1.29,1.41,1.62,2.5
13.861063957214355,1.32,1.56,1.25,2.39
13.871825933456421,1.17,1.66,1.18,2.34
13.881752014160156,1.04,1.81,1.42,2.52
13.891937017440796,1.11,2.09,1.97,3.07
13.907778978347778,1.42,2.4,2.75,3.91
13.911266088485718,1.69,2.65,3.37,4.6
13.920928001403809,1.72,2.8,3.55,4.83
13.932223081588745,1.45,2.97,3.19,4.59
13.942239999771118,0.78,3.1,2.37,3.97
13.955932855606079,0.03,3.46,1.64,3.82
13.96088695526123,-0.43,4.01,0.92,4.13
13.97117304801941,-0.64,4.1,-0.35,4.16
13.982252836227417,-1.21,3.75,-1.51,4.21
13.991655111312866,-1.47,3.31,-2.62,4.47
14.005935907363892,-1.63,2.97,-3.13,4.61
14.01128888130188,-1.55,2.54,-2.86,4.12
14.021743059158325,-1.48,2.12,-2.07,3.31
14.031846046447754,-1.45,1.71,-1.43,2.65
14.04203486442566,-1.48,1.31,-1.01,2.21
14.057597875595093,-1.58,1.0,-1.1,2.16
14.061164140701294,-1.65,0.84,-1.58,2.43
14.07196307182312,-1.69,0.78,-1.79,2.58
14.082168817520142,-1.52,0.99,-1.37,2.27
14.092026948928833,-1.27,0.98,-1.01,1.89
14.108059167861938,-1.09,0.83,-0.89,1.63
14.11129903793335,-0.77,0.62,-0.93,1.35
14.12115216255188,-0.5,0.33,-0.98,1.14
14.132529973983765,-0.31,-0.11,-0.96,1.01
14.141757011413574,-0.14,-0.59,-0.88,1.06
14.156463861465454,-0.02,-1.09,-0.8,1.35
14.161139011383057,0.06,-1.56,-0.63,1.68
14.172252893447876,0.09,-2.12,-0.51,2.18
14.18235182762146,0.25,-2.62,-0.61,2.7
14.191977977752686,0.43,-3.08,-0.84,3.22
14.209074974060059,0.44,-3.46,-1.03,3.63
14.21131682395935,0.52,-3.7,-1.28,3.94
14.222048997879028,0.56,-3.82,-1.42,4.11
14.232464075088501,0.46,-3.84,-1.29,4.07
14.242041826248169,0.39,-3.63,-1.14,3.82
14.257966995239258,0.24,-3.42,-0.82,3.52
14.26120114326477,0.17,-3.16,-0.41,3.19
14.271937131881714,0.14,-2.87,-0.14,2.87
14.282341957092285,0.05,-2.66,0.08,2.66
14.291849851608276,-0.19,-2.48,0.24,2.49
14.30623984336853,-0.35,-2.26,0.3,2.3
14.31134295463562,-0.36,-2.03,0.39,2.09
14.32193398475647,-0.36,-1.74,0.45,1.83
14.332211971282959,-0.44,-1.45,0.46,1.58
14.342087984085083,-0.51,-1.19,0.34,1.33
14.3576979637146,-0.55,-0.88,0.32,1.08
14.36123013496399,-0.58,-0.58,0.51,0.96
14.37177586555481,-0.61,-0.27,0.84,1.07
14.382705926895142,-0.69,-0.04,1.3,1.47
14.392439126968384,-0.6,0.21,1.57,1.69
14.40872311592102,-0.56,0.39,1.45,1.6
14.411351919174194,-0.71,0.5,1.31,1.57
14.421818017959595,-0.71,0.68,1.71,1.97
14.433050870895386,-0.55,0.88,1.9,2.16
14.442044019699097,-0.43,0.95,1.83,2.1
14.457056045532227,-0.38,1.09,1.45,1.85
14.461262941360474,-0.51,1.26,1.3,1.88
14.471940040588379,-0.54,1.5,1.4,2.12
14.4826500415802,-0.54,1.85,1.52,2.45
14.49188494682312,-0.52,2.18,1.61,2.75
14.506592988967896,-0.42,2.46,1.94,3.16
14.511302947998047,-0.42,2.76,2.45,3.71
14.521857023239136,-0.42,3.0,2.64,4.01
14.532631158828735,-0.49,3.13,2.03,3.76
14.542001008987427,-0.55,3.36,1.15,3.59
14.558403015136719,-0.42,3.79,0.4,3.83
14.561354875564575,-0.26,3.94,-0.73,4.01
14.572008848190308,-0.05,3.84,-2.12,4.38
14.582834005355835,0.53,3.54,-2.96,4.64
14.592190027236938,1.03,3.11,-3.27,4.62
14.605910062789917,1.13,2.21,-2.59,3.58
14.611160039901733,1.18,1.16,-1.46,2.2
14.621248006820679,1.19,0.28,-0.64,1.37
14.633018016815186,1.2,-0.28,-0.49,1.32
14.641664981842041,1.23,-0.52,-0.73,1.52
14.656185865402222,1.52,-0.45,-0.94,1.84
14.661081075668335,1.76,-0.23,-1.14,2.1
14.672011137008667,1.8,0.1,-1.07,2.09
14.68311095237732,1.61,0.41,-0.89,1.88
14.691910028457642,1.28,0.62,-0.87,1.66
14.70698094367981,0.92,0.68,-1.02,1.53
14.711353063583374,0.63,0.58,-1.2,1.47
14.72179102897644,0.52,0.33,-1.12,1.27
14.733191013336182,0.5,-0.04,-0.87,1.0
14.74210810661316,0.48,-0.53,-0.59,0.92
14.757503032684326,0.41,-0.99,-0.37,1.13
14.761258840560913,0.35,-1.46,-0.23,1.51
14.77206301689148,0.23,-1.93,-0.26,1.96
14.783325910568237,0.12,-2.32,-0.36,2.35
14.791870832443237,-0.12,-2.6,-0.43,2.63
14.807000875473022,-0.26,-2.87,-0.43,2.91
14.811864137649536,-0.3,-2.95,-0.57,3.01
14.822216987609863,-0.45,-2.98,-0.66,3.08
14.833639860153198,-0.45,-2.97,-0.66,3.07
14.841820001602173,-0.4,-2.95,-0.64,3.04
14.855015993118286,-0.26,-2.98,-0.66,3.06
14.861335039138794,-0.12,-3.02,-0.63,3.08
14.871699094772339,0.03,-3.04,-0.52,3.08
14.882323026657104,0.17,-3.03,-0.4,3.06
14.891695022583008,0.26,-3.0,-0.18,3.01
14.90704894065857,0.38,-2.79,-0.01,2.81
14.911417961120605,0.42,-2.6,0.24,2.64
14.921908140182495,0.48,-2.39,0.47,2.48
14.932775020599365,0.53,-2.11,0.6,2.25
14.942088842391968,0.59,-1.8,0.55,1.97
14.956385850906372,0.71,-1.38,0.37,1.59
14.961251020431519,0.84,-0.93,0.3,1.28
14.971935033798218,0.85,-0.42,0.42,1.03
14.982722997665405,0.83,0.14,0.66,1.06
14.991314172744751,0.86,0.69,1.05,1.52
15.004587888717651,0.93,1.18,1.39,2.04
15.011324167251587,1.0,1.66,1.41,2.39
15.02141785621643,1.07,2.02,1.03,2.5
15.033271074295044,1.03,2.39,0.97,2.77
15.04192304611206,1.27,2.99,1.74,3.68
15.057353973388672,1.72,3.64,2.89,4.95
15.061392068862915,1.96,3.98,3.8,5.84
15.071476936340332,1.97,4.27,3.86,6.08
15.083597898483276,1.59,4.39,3.32,5.72
15.091728925704956,0.87,4.35,2.32,5.0
15.107293844223022,0.1,4.56,1.38,4.76
15.11151385307312,-0.52,4.85,0.8,4.94
15.121212005615234,-0.95,4.88,0.17,4.97
15.133808851242065,-1.13,4.37,-1.07,4.63
15.141973972320557,-1.2,3.68,-2.38,4.54
15.156398057937622,-0.95,3.07,-2.93,4.34
15.161334991455078,-0.7,2.17,-2.46,3.35
15.172210931777954,-0.63,1.34,-1.55,2.14
15.183226823806763,-0.75,0.56,-1.11,1.45
15.192006826400757,-1.06,-0.07,-1.23,1.62
15.206547975540161,-1.47,-0.36,-1.51,2.13
15.211600065231323,-1.83,-0.38,-1.69,2.51
15.221410036087036,-1.94,-0.18,-1.58,2.5
15.233916997909546,-1.77,0.2,-1.35,2.23
15.24170184135437,-1.45,0.47,-1.09,1.87
15.256309986114502,-1.1,0.61,-1.02,1.61
15.261165857315063,-0.74,0.6,-1.21,1.54
15.272164106369019,-0.41,0.4,-1.54,1.64
15.283308029174805,-0.22,0.09,-1.58,1.59
15.291869878768921,-0.07,-0.23,-1.24,1.26
15.307147979736328,-0.08,-0.69,-0.89,1.12
15.311592817306519,-0.04,-1.19,-0.72,1.39
15.322113990783691,-0.02,-1.66,-0.56,1.75
15.333577871322632,0.02,-2.14,-0.52,2.2
15.341849088668823,-0.05,-2.61,-0.58,2.67
15.357136964797974,-0.04,-3.01,-0.65,3.07
15.361413955688477,0.09,-3.31,-0.8,3.4
15.372122049331665,0.11,-3.52,-0.89,3.63
15.381827116012573,0.07,-3.65,-0.92,3.76
15.3924720287323,0.03,-3.63,-0.9,3.74
15.407632112503052,-0.01,-3.51,-0.83,3.6
15.41152310371399,-0.05,-3.3,-0.67,3.36
15.42215609550476,-0.11,-3.0,-0.48,3.04
15.432071924209595,-0.12,-2.73,-0.27,2.74
15.442478895187378,-0.2,-2.49,-0.08,2.49
15.45762300491333,-0.24,-2.2,0.04,2.21
15.461495161056519,-0.33,-1.92,0.21,1.95
15.472134828567505,-0.38,-1.69,0.43,1.78
15.481830835342407,-0.44,-1.47,0.51,1.61
15.492413997650146,-0.49,-1.28,0.53,1.46
15.506979942321777,-0.55,-1.13,0.59,1.38
15.51134991645813,-0.61,-0.94,0.57,1.25
15.521386861801147,-0.67,-0.71,0.57,1.13
15.53230595588684,-0.71,-0.46,0.68,1.08
15.542082071304321,-0.7,-0.21,0.97,1.21
15.557307958602905,-0.7,0.0,1.42,1.58
15.56143593788147,-0.73,0.2,1.82,1.97
15.572386026382446,-0.79,0.39,2.06,2.24
15.581717014312744,-0.82,0.58,1.99,2.22
15.592254877090454,-0.93,0.79,1.78,2.15
15.607622861862183,-0.95,0.94,1.49,2.0
15.611577987670898,-1.07,1.12,1.31,2.02
15.62222695350647,-1.02,1.41,1.32,2.18
15.631766080856323,-0.91,1.82,1.53,2.54
15.642403841018677,-0.73,2.23,1.85,2.98
15.659183979034424,-0.59,2.57,2.12,3.38
15.661503076553345,-0.58,2.78,1.96,3.45
15.672241926193237,-0.84,3.12,2.25,3.93
15.68225884437561,-0.76,3.62,2.79,4.63
15.692486047744751,-0.64,3.87,2.61,4.71
15.707957029342651,-0.26,4.17,1.6,4.47
15.711715936660767,0.0,4.1,-0.46,4.12
15.722079038619995,0.14,3.58,-2.39,4.3
15.731904029846191,0.59,3.18,-3.57,4.81
15.742467164993286,1.02,2.74,-3.79,4.78
15.757685899734497,1.22,1.93,-2.87,3.66
15.76156997680664,1.25,0.98,-1.37,2.09
15.772384881973267,1.12,0.25,-0.21,1.16
15.781750917434692,1.09,-0.17,0.15,1.11
15.792943954467773,1.25,-0.23,0.0,1.27
15.807670831680298,1.47,-0.04,-0.3,1.5
15.81141996383667,1.56,0.22,-0.46,1.64
15.821492910385132,1.47,0.54,-0.55,1.65
15.832197904586792,1.2,0.83,-0.76,1.64
15.84223484992981,0.88,1.1,-1.2,1.85
15.858051061630249,0.63,1.18,-1.57,2.06
15.861529111862183,0.55,1.0,-1.64,1.99
15.871658086776733,0.62,0.64,-1.43,1.68
15.882380962371826,0.82,0.23,-1.06,1.35
15.892100095748901,0.89,-0.3,-0.85,1.26
15.908203840255737,0.77,-0.88,-0.85,1.44
15.911734819412231,0.64,-1.42,-0.59,1.66
15.921380996704102,0.45,-1.9,-0.23,1.96
15.932459115982056,0.17,-2.35,-0.13,2.35
15.942201852798462,-0.16,-2.74,-0.28,2.75
15.958317995071411,-0.47,-3.04,-0.42,3.1
15.961599111557007,-0.65,-3.15,-0.63,3.27
15.972400903701782,-0.6,-3.17,-0.84,3.33
15.981714010238647,-0.44,-3.15,-0.84,3.28
15.993108987808228,-0.12,-3.06,-0.69,3.13
15.998968839645386,0.16,-2.98,-0.49,3.02
16.008007049560547,0.33,-2.96,-0.36,3.0
16.017518043518066,0.49,-2.98,-0.18,3.02
16.028331995010376,0.47,-2.9,0.06,2.93
16.037948846817017,0.49,-2.82,0.06,2.86
16.04781699180603,0.38,-2.81,0.11,2.83
16.05764889717102,0.34,-2.74,0.27,2.77
16.068217992782593,0.35,-2.55,0.22,2.58
16.078070878982544,0.25,-2.36,0.14,2.37
16.089035034179688,0.27,-2.1,0.2,2.12
16.09818387031555,0.34,-1.8,0.3,1.85
16.10793709754944,0.44,-1.42,0.43,1.54
16.11791491508484,0.62,-0.97,0.61,1.3
16.12802481651306,0.7,-0.52,0.79,1.17
16.1384220123291,0.7,-0.02,0.99,1.21
16.14774799346924,0.73,0.54,1.06,1.39
16.158223867416382,0.76,1.06,1.0,1.64
16.167984008789062,0.74,1.53,0.89,1.91
16.177873849868774,0.82,1.97,0.81,2.28
16.188453912734985,0.87,2.37,0.96,2.7
16.19787096977234,1.14,2.77,1.58,3.38
16.20845913887024,1.62,3.23,2.56,4.42
16.217954874038696,1.99,3.6,3.53,5.42
16.228429079055786,2.01,3.87,3.83,5.8
16.23858094215393,1.47,3.99,3.23,5.33
16.248204946517944,0.73,4.12,2.26,4.75
16.258867979049683,-0.07,4.45,1.01,4.56
16.268152952194214,-0.77,4.65,0.06,4.71
16.27816414833069,-1.21,4.53,-0.99,4.79
16.289005994796753,-1.43,3.77,-1.82,4.42
16.298041105270386,-1.33,3.45,-2.22,4.31
16.30908989906311,-1.21,2.82,-2.16,3.75
16.31767702102661,-1.35,1.98,-1.61,2.88
16.328624963760376,-1.48,1.2,-1.16,2.23
16.338284969329834,-1.66,0.53,-1.12,2.07
16.34801983833313,-1.79,0.26,-1.19,2.16
16.357858896255493,-1.88,0.13,-1.16,2.21
16.36765694618225,-1.9,0.13,-1.0,2.15
16.37887406349182,-1.79,0.33,-0.8,1.98
16.38889193534851,-1.58,0.59,-0.77,1.85
16.398153066635132,-1.34,0.75,-0.96,1.81
16.408628940582275,-0.94,0.8,-1.18,1.7
16.417762994766235,-0.56,0.64,-1.32,1.57
16.4287588596344,-0.27,0.3,-1.21,1.27
16.438472032546997,-0.1,-0.15,-1.02,1.03
16.448163986206055,0.05,-0.69,-0.79,1.05
16.45826506614685,0.16,-1.24,-0.54,1.36
16.467802047729492,0.21,-1.84,-0.36,1.88
16.47870707511902,0.23,-2.4,-0.33,2.43
16.488753080368042,0.16,-2.92,-0.54,2.97
16.498127937316895,0.14,-3.36,-0.86,3.47
16.508463144302368,0.11,-3.67,-1.02,3.81
16.517711877822876,0.13,-3.8,-1.23,3.99
16.52880311012268,0.18,-3.92,-1.42,4.17
16.538476943969727,0.15,-3.86,-1.5,4.14
16.548110961914062,0.04,-3.56,-1.37,3.81
16.558523893356323,0.08,-3.26,-0.9,3.38
16.567831993103027,0.05,-2.9,-0.36,2.92
16.578654050827026,-0.11,-2.53,0.02,2.53
16.588917016983032,-0.29,-2.28,0.21,2.3
16.598233938217163,-0.41,-2.01,0.37,2.08
16.60906195640564,-0.53,-1.71,0.46,1.84
16.6177339553833,-0.58,-1.36,0.58,1.58
16.62888216972351,-0.73,-1.13,0.56,1.45
16.63841986656189,-0.82,-0.93,0.43,1.31
16.648098945617676,-0.88,-0.63,0.33,1.13
16.658902883529663,-0.94,-0.42,0.34,1.08
16.66787099838257,-1.07,-0.17,0.41,1.15
16.67868208885193,-1.02,0.01,0.66,1.21
16.688841104507446,-0.91,0.18,1.01,1.37
16.697992086410522,-0.77,0.31,1.4,1.62
16.708357095718384,-0.68,0.43,1.66,1.84
16.717684030532837,-0.63,0.48,1.72,1.89
16.72871994972229,-0.61,0.49,1.64,1.81
16.73850417137146,-0.66,0.59,1.55,1.78
16.747955083847046,-0.66,0.76,1.41,1.73
16.759040117263794,-0.6,1.0,1.19,1.66
16.767750024795532,-0.6,1.25,1.13,1.78
16.778538942337036,-0.59,1.56,1.22,2.06
16.78860306739807,-0.5,1.9,1.44,2.43
16.798161029815674,-0.29,2.24,1.69,2.82
16.808447122573853,-0.18,2.65,1.96,3.3
16.817753076553345,-0.19,3.17,2.2,3.86
16.82879090309143,-0.26,3.74,2.09,4.29
16.83874201774597,-0.42,4.27,1.57,4.56
16.84828495979309,-0.37,4.68,0.5,4.72
16.859076976776123,-0.09,4.67,-1.57,4.92
16.86832594871521,0.03,4.22,-3.63,5.56
16.878586053848267,0.59,3.73,-4.45,5.83
16.888638973236084,1.32,3.24,-3.78,5.15
16.898072957992554,1.72,2.36,-1.85,3.45
16.90896201133728,1.89,1.33,-0.28,2.32
16.91784405708313,1.67,0.39,0.04,1.71
16.928863048553467,1.53,-0.13,-0.39,1.58
16.938481092453003,1.54,-0.23,-0.79,1.74
16.948210954666138,1.65,-0.05,-0.82,1.84
16.959484815597534,1.59,0.2,-0.56,1.69
16.967857122421265,1.42,0.4,-0.38,1.52
16.97869300842285,1.18,0.52,-0.57,1.4
16.98859715461731,0.88,0.6,-0.89,1.38
16.997968912124634,0.64,0.55,-1.13,1.41
17.008588075637817,0.43,0.32,-1.24,1.35
17.017789125442505,0.39,0.0,-1.33,1.38
17.028876066207886,0.34,-0.39,-1.24,1.34
17.03874397277832,0.29,-0.84,-0.96,1.3
17.048341989517212,0.26,-1.29,-0.64,1.46
17.05889582633972,0.17,-1.74,-0.38,1.78
17.067909002304077,-0.02,-2.18,-0.32,2.2
17.078590154647827,-0.16,-2.63,-0.32,2.65
17.08880591392517,-0.28,-2.94,-0.5,2.99
17.098264932632446,-0.46,-3.2,-0.65,3.29
17.10828709602356,-0.54,-3.43,-0.72,3.54
17.117717027664185,-0.48,-3.5,-0.72,3.6
17.128658056259155,-0.34,-3.38,-0.56,3.44
17.138572931289673,-0.1,-3.28,-0.48,3.31
17.14854884147644,0.19,-3.19,-0.65,3.26
17.159569025039673,0.31,-3.11,-0.72,3.2
17.16802191734314,0.46,-2.96,-0.52,3.04
17.178602933883667,0.49,-2.71,-0.24,2.76
17.18867802619934,0.42,-2.56,0.0,2.59
17.19821286201477,0.39,-2.34,0.13,2.37
17.20924210548401,0.38,-2.06,0.19,2.1
17.21873688697815,0.42,-1.77,0.31,1.84
17.228477954864502,0.52,-1.44,0.53,1.62
17.238459825515747,0.56,-1.09,0.7,1.41
17.24824595451355,0.56,-0.81,0.82,1.28
17.260937929153442,0.65,-0.52,0.97,1.27
17.2687771320343,0.75,-0.18,1.12,1.35
17.278576135635376,0.79,0.15,1.31,1.53
17.288825035095215,0.77,0.49,1.45,1.71
17.298394918441772,0.71,0.81,1.42,1.78
17.30876612663269,0.75,1.1,1.37,1.91
17.31792402267456,0.83,1.37,1.39,2.12
17.328832864761353,0.85,1.67,1.51,2.4
17.338685035705566,0.91,1.97,1.68,2.74
17.348539113998413,1.12,2.4,2.16,3.41
17.359843969345093,1.43,2.89,3.02,4.41
17.369038820266724,1.71,3.29,3.68,5.22
17.37858295440674,1.74,3.5,3.74,5.4
17.389055967330933,1.48,3.7,3.2,5.11
17.398262977600098,0.88,3.77,2.26,4.48
17.41053605079651,0.14,3.72,1.18,3.9
17.417906999588013,-0.43,3.83,0.48,3.88
17.42877197265625,-0.83,3.83,-0.04,3.91
17.438749074935913,-1.09,3.27,-0.78,3.53
17.448230981826782,-1.3,2.61,-1.71,3.38
17.459602117538452,-1.26,2.1,-2.3,3.35
17.467939138412476,-1.18,1.52,-2.31,3.0
17.478843927383423,-1.22,0.92,-1.87,2.41
17.488770961761475,-1.27,0.4,-1.62,2.09
17.49817395210266,-1.55,0.01,-1.59,2.22
17.509630918502808,-1.69,0.0,-1.16,2.04
17.517953157424927,-1.83,0.07,-0.88,2.03
17.528987169265747,-1.93,0.12,-0.89,2.12
17.538959980010986,-1.58,0.48,-0.94,1.9
17.54828190803528,-1.32,0.92,-0.84,1.81
17.559834957122803,-1.11,1.09,-0.86,1.77
17.5680148601532,-0.86,1.05,-1.07,1.72
17.578948974609375,-0.56,0.86,-1.24,1.6
17.588624000549316,-0.33,0.47,-1.24,1.36
17.59830904006958,-0.15,-0.01,-1.14,1.14
17.610039949417114,0.0,-0.51,-0.84,0.98
17.61929488182068,0.06,-1.0,-0.5,1.11
17.628700017929077,0.12,-1.43,-0.25,1.45
17.6386239528656,0.11,-1.86,-0.22,1.87
17.648382902145386,0.07,-2.31,-0.42,2.34
17.66004490852356,0.04,-2.72,-0.7,2.8
17.668123960494995,0.02,-3.06,-0.93,3.19
17.678923845291138,-0.01,-3.31,-1.16,3.5
17.68895697593689,-0.02,-3.48,-1.31,3.71
17.698397874832153,0.05,-3.52,-1.3,3.75
17.709959030151367,0.19,-3.42,-1.06,3.58
17.718212842941284,0.22,-3.23,-0.67,3.3
17.729002952575684,0.16,-2.94,-0.36,2.96
17.738663911819458,0.07,-2.7,-0.15,2.7
17.748492002487183,-0.09,-2.41,0.2,2.41
17.760145902633667,-0.12,-2.17,0.42,2.21
17.768274068832397,-0.23,-2.01,0.53,2.09
17.77904486656189,-0.44,-1.82,0.5,1.93
17.788813829421997,-0.52,-1.6,0.48,1.74
17.79806900024414,-0.6,-1.24,0.5,1.46
17.809972047805786,-0.65,-0.99,0.57,1.31
17.818357944488525,-0.68,-0.78,0.61,1.2
17.82909607887268,-0.75,-0.55,0.67,1.14
17.838733911514282,-0.77,-0.3,0.78,1.13
17.84815502166748,-0.77,-0.04,0.98,1.24
17.860263109207153,-0.75,0.15,1.25,1.46
17.868316888809204,-0.84,0.35,1.43,1.69
17.878959894180298,-0.85,0.51,1.58,1.86
17.88903307914734,-0.75,0.72,1.67,1.96
17.898135900497437,-0.77,0.92,1.65,2.04
17.91010308265686,-0.85,1.09,1.4,1.96
17.918416023254395,-0.97,1.26,1.12,1.94
17.929064989089966,-0.99,1.51,1.05,2.08
17.938765048980713,-0.9,1.83,1.25,2.39
17.948282957077026,-0.75,2.13,1.52,2.72
17.9601628780365,-0.54,2.46,1.95,3.18
17.9684100151062,-0.47,2.86,2.34,3.72
17.978971004486084,-0.48,3.26,2.43,4.09
17.989176988601685,-0.5,3.75,2.33,4.44
17.998337984085083,-0.42,4.27,1.86,4.67
18.010499954223633,-0.23,4.23,0.56,4.27
18.01854109764099,-0.15,3.87,-1.63,4.2
18.029041051864624,0.14,3.4,-3.67,5.0
18.03889489173889,0.66,3.04,-4.17,5.2
18.04871916770935,1.06,2.54,-3.12,4.16
18.060230016708374,1.32,1.95,-1.42,2.74
18.069973945617676,1.52,1.32,-0.07,2.01
18.079108953475952,1.57,0.83,0.31,1.8
18.08907389640808,1.51,0.46,-0.11,1.58
18.098551988601685,1.59,0.36,-0.69,1.77
18.110738039016724,1.52,0.4,-1.31,2.04
18.11866307258606,1.17,0.53,-1.21,1.76
18.12888503074646,1.07,0.78,-0.92,1.61
18.138757944107056,1.01,0.73,-0.77,1.46
18.148473978042603,0.99,0.72,-0.89,1.51
18.160478830337524,0.87,0.45,-1.12,1.48
18.1686429977417,0.82,0.09,-1.12,1.39
18.17884612083435,0.71,-0.3,-0.98,1.24
18.188796043395996,0.52,-0.81,-0.89,1.31
18.198548078536987,0.32,-1.29,-0.81,1.55
18.210521936416626,0.23,-1.74,-0.6,1.85
18.218843936920166,0.03,-2.12,-0.37,2.15
18.228968858718872,-0.04,-2.48,-0.26,2.49
18.23877501487732,-0.09,-2.79,-0.34,2.81
18.248483896255493,-0.22,-3.05,-0.49,3.09
18.260363817214966,-0.28,-3.19,-0.73,3.28
18.268798112869263,-0.23,-3.3,-0.96,3.44
18.27901601791382,-0.2,-3.34,-1.1,3.52
18.2886860370636,-0.06,-3.33,-1.13,3.51
18.29829716682434,0.11,-3.29,-1.05,3.45
18.310222864151,0.25,-3.18,-0.89,3.31
18.320059061050415,0.34,-3.04,-0.65,3.12
18.328773975372314,0.38,-2.93,-0.38,2.97
18.33885097503662,0.43,-2.77,-0.23,2.81
18.348453044891357,0.37,-2.52,0.0,2.54
18.36149287223816,0.42,-2.23,0.29,2.28
18.36998701095581,0.45,-2.04,0.4,2.12
18.378769159317017,0.4,-1.83,0.36,1.9
18.389139890670776,0.52,-1.56,0.38,1.68
18.39839005470276,0.66,-1.21,0.62,1.51
18.4114990234375,0.85,-0.75,0.99,1.5
18.420176029205322,1.03,-0.28,1.33,1.7
18.42885184288025,1.1,0.13,1.52,1.88
18.43914008140564,1.14,0.52,1.59,2.02
18.44848608970642,1.25,0.91,1.54,2.18
18.461573839187622,1.23,1.21,1.35,2.19
18.469965934753418,1.11,1.46,1.18,2.18
18.47883915901184,1.07,1.69,1.13,2.29
18.48922610282898,1.1,1.89,1.25,2.51
18.49838900566101,1.12,2.02,1.53,2.77
18.51152491569519,1.18,2.16,1.72,3.0
18.520281076431274,1.4,2.36,2.06,3.43
18.52891516685486,1.61,2.62,2.65,4.05
18.538722038269043,1.68,2.91,3.11,4.57
18.548557996749878,1.4,3.28,2.97,4.64
18.560657024383545,0.75,3.47,2.34,4.25
18.570621013641357,0.09,3.85,1.73,4.22
18.578840017318726,-0.52,4.17,0.87,4.29
18.588737964630127,-1.12,3.85,-0.66,4.06
18.59858798980713,-1.61,3.25,-2.35,4.32
18.610719919204712,-1.75,2.88,-3.2,4.64
18.618108987808228,-1.59,2.63,-3.13,4.38
18.629133939743042,-1.46,2.26,-2.55,3.7
18.638789892196655,-1.39,1.73,-1.86,2.89
18.648336172103882,-1.51,1.22,-1.31,2.34
18.660686016082764,-1.67,0.94,-0.98,2.15
18.66836190223694,-1.95,0.71,-1.01,2.3
18.679183959960938,-2.04,0.69,-1.19,2.46
18.68897294998169,-1.83,0.84,-1.12,2.3
18.698421955108643,-1.48,0.92,-1.45,2.26
18.710901021957397,-1.28,0.88,-1.58,2.21
18.718062162399292,-0.88,0.94,-1.09,1.68
18.729146003723145,-0.46,0.85,-0.66,1.17
18.738725900650024,-0.05,0.6,-0.49,0.77
18.748780012130737,0.2,0.16,-0.68,0.72
18.762230157852173,0.22,-0.33,-0.8,0.89
18.76846194267273,0.23,-0.87,-0.77,1.18
18.779277086257935,0.13,-1.47,-0.65,1.61
18.78896403312683,0.1,-1.96,-0.61,2.05
18.798290967941284,0.1,-2.46,-0.67,2.55
18.81156301498413,0.1,-2.89,-0.73,2.98
18.818074941635132,0.1,-3.23,-0.92,3.35
18.829291105270386,0.18,-3.43,-1.13,3.61
18.838814973831177,0.25,-3.54,-1.24,3.75
18.848559141159058,0.29,-3.58,-1.18,3.78
18.862333059310913,0.36,-3.51,-1.05,3.68
18.869107961654663,0.34,-3.3,-0.9,3.43
18.878808975219727,0.34,-3.07,-0.73,3.17
18.88943886756897,0.24,-2.82,-0.51,2.87
18.898712873458862,0.21,-2.59,-0.26,2.61
18.91180109977722,0.08,-2.39,0.03,2.39
18.9181809425354,-0.06,-2.19,0.32,2.21
18.92915415763855,-0.16,-1.98,0.54,2.05
18.938871145248413,-0.32,-1.83,0.52,1.92
18.94840407371521,-0.45,-1.67,0.59,1.82
18.96142888069153,-0.51,-1.44,0.62,1.64
18.968469858169556,-0.69,-1.29,0.53,1.55
18.979317903518677,-0.78,-1.07,0.41,1.38
18.989054918289185,-0.81,-0.8,0.58,1.27
18.99862313270569,-0.71,-0.48,1.07,1.37
19.01199507713318,-0.57,-0.09,1.72,1.81
19.018317937850952,-0.48,0.27,2.17,2.23
19.029458045959473,-0.58,0.48,2.27,2.39
19.03902316093445,-0.67,0.63,1.97,2.17
19.048712015151978,-0.75,0.76,1.43,1.78
19.060839891433716,-0.76,0.89,1.05,1.57
19.068501949310303,-0.85,1.1,0.99,1.7
19.07917284965515,-0.79,1.35,1.15,1.94
19.089033842086792,-0.74,1.64,1.39,2.27
19.098602056503296,-0.66,1.91,1.63,2.59
19.111938953399658,-0.58,2.21,1.94,2.99
19.11823797225952,-0.54,2.43,2.28,3.37
19.129306077957153,-0.47,2.63,2.56,3.7
19.139321088790894,-0.5,2.85,2.59,3.88
19.14866304397583,-0.61,2.95,2.06,3.64
19.162459135055542,-0.65,3.15,1.27,3.45
19.16907286643982,-0.57,3.42,0.61,3.52
19.179378986358643,-0.39,3.59,-0.17,3.61
19.18895983695984,-0.05,3.42,-1.33,3.66
19.198787927627563,0.39,3.03,-2.56,3.98
19.212707996368408,0.71,2.55,-3.27,4.2
19.219228982925415,0.9,1.83,-2.91,3.55
19.229262113571167,0.99,1.13,-1.78,2.32
19.239277124404907,1.14,0.62,-0.72,1.48
19.248844861984253,1.21,0.26,-0.43,1.31
19.262489080429077,1.38,0.15,-0.59,1.5
19.26923394203186,1.6,0.31,-0.7,1.77
19.279080152511597,1.86,0.6,-0.67,2.06
19.289203882217407,1.82,0.98,-0.92,2.26
19.298917055130005,1.37,1.27,-1.18,2.2
19.312844038009644,0.95,1.48,-1.13,2.09
19.31852889060974,0.6,1.53,-0.86,1.85
19.32935094833374,0.46,1.3,-0.76,1.57
19.338853120803833,0.33,0.83,-1.1,1.41
19.348634004592896,0.32,0.23,-1.24,1.3
19.361847162246704,0.26,-0.35,-1.06,1.14
19.369151830673218,0.15,-0.95,-0.78,1.23
19.37916898727417,0.09,-1.51,-0.51,1.59
19.389235019683838,-0.03,-2.0,-0.28,2.01
19.398818016052246,-0.17,-2.49,-0.26,2.5
19.412559986114502,-0.28,-2.89,-0.36,2.92
19.418298959732056,-0.32,-3.13,-0.52,3.18
19.42933201789856,-0.31,-3.25,-0.6,3.31
19.438961029052734,-0.26,-3.29,-0.61,3.35
19.448764085769653,-0.2,-3.3,-0.61,3.36
19.462749004364014,-0.08,-3.17,-0.76,3.26
19.468578100204468,-0.03,-3.1,-0.81,3.2
19.479241132736206,0.13,-3.03,-0.79,3.13
19.489073038101196,0.29,-2.94,-0.73,3.04
19.498917818069458,0.39,-2.88,-0.51,2.95
19.512952089309692,0.56,-2.82,-0.17,2.88
19.51841402053833,0.75,-2.72,0.01,2.82
19.52944588661194,0.78,-2.6,0.02,2.71
19.538860082626343,0.77,-2.5,-0.01,2.61
19.549111127853394,0.72,-2.25,0.2,2.37
19.563791036605835,0.65,-1.98,0.49,2.14
19.56853199005127,0.62,-1.74,0.77,2.0
19.579240083694458,0.6,-1.45,0.92,1.81
19.588895082473755,0.65,-1.09,1.02,1.62
19.59887385368347,0.8,-0.65,1.1,1.5
19.612648963928223,0.9,-0.21,1.15,1.47
19.618306875228882,1.0,0.25,1.13,1.52
19.629451036453247,1.08,0.75,1.18,1.76
19.638813972473145,1.09,1.27,1.37,2.16
19.648808002471924,1.16,1.8,1.64,2.69
19.66224503517151,1.27,2.29,1.83,3.19
19.668413877487183,1.44,2.72,2.01,3.67
19.67916202545166,1.68,3.25,2.37,4.35
19.688957929611206,1.93,3.72,2.79,5.03
19.698590993881226,2.2,3.98,2.99,5.44
19.712446928024292,2.1,4.26,3.05,5.64
19.718499898910522,1.41,4.27,2.68,5.23
19.728549003601074,0.48,4.17,1.91,4.61
19.739375829696655,-0.37,4.39,1.32,4.59
19.7485511302948,-1.19,4.52,0.61,4.71
19.7615909576416,-1.78,3.84,-1.02,4.35
19.76855206489563,-2.1,3.03,-2.74,4.59
19.778577089309692,-1.88,2.75,-3.49,4.82
19.789005994796753,-1.41,2.24,-3.08,4.06
19.798579931259155,-1.15,1.59,-1.92,2.74
19.812387943267822,-1.0,1.01,-0.87,1.66
19.81845998764038,-1.11,0.57,-0.47,1.33
19.8286190032959,-1.41,0.27,-0.77,1.62
19.838711977005005,-1.77,0.17,-1.19,2.13
19.848618030548096,-1.88,0.35,-1.24,2.27
19.861670970916748,-1.78,0.69,-0.96,2.13
19.868571996688843,-1.48,0.99,-0.68,1.9
19.87853217124939,-1.15,1.13,-0.66,1.74
19.889403104782104,-0.78,1.08,-0.95,1.63
19.898481130599976,-0.39,0.85,-1.42,1.7
19.91292095184326,-0.19,0.45,-2.03,2.08
19.918385982513428,-0.17,-0.05,-1.77,1.77
19.929360151290894,0.01,-0.41,-0.84,0.93
19.9390709400177,0.06,-0.94,-0.22,0.96
19.949002981185913,0.16,-1.62,-0.18,1.63
19.96304202079773,0.35,-2.13,-0.38,2.19
19.968663930892944,0.41,-2.67,-0.56,2.75
19.978596925735474,0.29,-3.2,-0.79,3.3
19.98993182182312,0.11,-3.61,-1.1,3.77
19.998320817947388,-0.04,-3.83,-1.28,4.03
20.01211714744568,-0.08,-3.93,-1.26,4.12
20.01827597618103,-0.11,-3.9,-1.11,4.05
20.029127836227417,-0.12,-3.76,-0.88,3.86
20.038788080215454,-0.07,-3.49,-0.63,3.54
20.048548936843872,-0.03,-3.18,-0.41,3.2
20.063169956207275,0.0,-2.9,-0.28,2.91
20.06857204437256,-0.17,-2.63,-0.16,2.64
20.078623056411743,-0.29,-2.34,-0.03,2.35
20.089539051055908,-0.4,-2.01,0.14,2.05
20.098793983459473,-0.39,-1.7,0.39,1.78
20.112630128860474,-0.49,-1.42,0.63,1.62
20.118481874465942,-0.59,-1.13,0.8,1.5
20.129480123519897,-0.7,-0.91,0.76,1.37
20.139042139053345,-0.77,-0.73,0.64,1.23
20.148951053619385,-0.86,-0.6,0.62,1.21
20.16257882118225,-0.93,-0.4,0.91,1.36
20.169077157974243,-0.82,-0.15,1.34,1.57
20.179138898849487,-0.71,0.03,1.55,1.7
20.189575910568237,-0.78,0.2,1.62,1.8
20.199010133743286,-0.77,0.36,1.73,1.92
20.21385407447815,-0.74,0.59,1.78,2.01
20.218294858932495,-0.76,0.78,1.71,2.02
20.22922682762146,-0.79,0.94,1.5,1.93
20.239519834518433,-0.77,1.09,1.37,1.91
20.24907398223877,-0.75,1.37,1.4,2.09
20.262994050979614,-0.73,1.71,1.62,2.46
20.268595933914185,-0.68,2.03,1.99,2.92
20.2793550491333,-0.57,2.32,2.32,3.33
20.289315938949585,-0.42,2.57,2.46,3.58
20.299088954925537,-0.47,2.82,2.44,3.75
20.313920974731445,-0.53,3.16,2.26,3.92
20.31842589378357,-0.53,3.78,2.2,4.4
20.329355001449585,-0.44,4.47,1.82,4.84
20.339604139328003,-0.28,4.37,-0.04,4.37
20.34883713722229,-0.12,3.8,-2.66,4.64
20.363147974014282,0.21,3.28,-4.47,5.54
20.368584871292114,0.74,2.8,-4.39,5.25
20.38188910484314,1.05,2.06,-2.68,3.53
20.39176297187805,1.26,1.26,-0.72,1.92
20.401169061660767,1.3,0.52,0.19,1.41
20.41288113594055,1.21,-0.09,-0.14,1.22
20.42208194732666,1.28,-0.3,-0.78,1.52
20.432013034820557,1.57,-0.11,-0.95,1.83
20.441715002059937,1.78,0.18,-0.77,1.94
20.451344966888428,1.77,0.56,-0.61,1.95
20.463659048080444,1.64,0.86,-0.61,1.94
20.47212505340576,1.47,1.13,-0.84,2.03
20.48182988166809,1.23,1.19,-1.13,2.05
20.491770029067993,1.05,1.02,-1.47,2.07
20.501309156417847,0.76,0.59,-2.09,2.3
20.514709949493408,0.53,0.14,-1.95,2.02
20.52100682258606,0.56,-0.2,-1.09,1.24
20.531226873397827,0.61,-0.68,-0.38,0.98
20.54183316230774,0.64,-1.14,-0.26,1.33
20.551514863967896,0.46,-1.6,-0.43,1.71
20.563503980636597,0.22,-2.04,-0.49,2.1
20.572202920913696,-0.1,-2.36,-0.43,2.4
20.581215143203735,-0.48,-2.68,-0.49,2.76
20.591886043548584,-0.61,-2.92,-0.55,3.03
20.60169005393982,-0.56,-3.02,-0.64,3.13
20.613966941833496,-0.32,-3.07,-0.62,3.14
20.622227907180786,-0.15,-3.12,-0.43,3.15
20.63136315345764,0.07,-3.14,-0.31,3.15
20.641880989074707,0.27,-3.2,-0.38,3.23
20.65161395072937,0.34,-3.25,-0.46,3.29
20.66435694694519,0.3,-3.21,-0.29,3.23
20.671223878860474,0.27,-3.08,-0.01,3.09
20.682006120681763,0.33,-2.81,0.16,2.83
20.691805124282837,0.35,-2.62,0.44,2.67
20.701563119888306,0.41,-2.37,0.64,2.48
20.71416687965393,0.41,-2.08,0.67,2.22
20.721205949783325,0.39,-1.88,0.48,1.97
20.732134103775024,0.36,-1.66,0.13,1.7
20.741739988327026,0.49,-1.31,0.09,1.4
20.751718997955322,0.65,-0.94,0.27,1.17
20.76466393470764,0.67,-0.65,0.44,1.03
20.771372079849243,0.68,-0.26,0.64,0.96
20.782130002975464,0.77,0.26,0.99,1.28
20.791742086410522,0.87,0.76,1.18,1.65
20.801424980163574,1.04,1.24,1.09,1.95
20.814586877822876,1.18,1.76,0.97,2.33
20.821161031723022,1.24,2.21,1.04,2.73
20.832174062728882,1.33,2.64,1.38,3.26
20.841624975204468,1.51,3.13,2.06,4.03
20.851904153823853,1.67,3.46,2.82,4.76
20.86474108695984,1.73,3.69,3.26,5.21
20.87195897102356,1.44,3.85,3.07,5.13
20.881898164749146,0.8,3.81,2.3,4.52
20.891775846481323,0.11,4.05,1.43,4.29
20.90158486366272,-0.5,4.34,0.64,4.41
20.914273023605347,-1.16,4.31,-0.49,4.49
20.92119812965393,-1.56,3.86,-1.66,4.48
20.932318925857544,-1.63,3.59,-2.27,4.54
20.94157600402832,-1.5,3.3,-2.1,4.18
20.9515221118927,-1.52,2.62,-1.54,3.39
20.964462995529175,-1.59,1.82,-1.18,2.68
20.971369981765747,-1.61,1.17,-1.14,2.29
20.981987953186035,-1.75,0.75,-1.19,2.24
20.992069959640503,-2.05,0.6,-1.21,2.45
21.001580953598022,-2.17,0.62,-1.15,2.53
21.014715909957886,-2.02,0.8,-1.07,2.42
21.021013021469116,-1.84,0.96,-1.07,2.33
21.03224205970764,-1.59,0.94,-1.09,2.14
21.041764974594116,-1.28,0.86,-0.95,1.81
21.051541090011597,-0.95,0.69,-0.77,1.4
21.064412832260132,-0.49,0.41,-0.71,0.95
21.071943044662476,-0.08,-0.01,-0.73,0.73
21.08205795288086,0.14,-0.57,-1.03,1.18
21.092038869857788,0.05,-1.18,-0.88,1.47
21.101473093032837,0.17,-1.62,-0.33,1.66
21.11471199989319,0.28,-2.14,0.02,2.15
21.121129035949707,0.4,-2.66,-0.02,2.68
21.131476163864136,0.57,-3.1,-0.49,3.18
21.141641855239868,0.54,-3.55,-0.95,3.71
21.151736974716187,0.45,-3.82,-1.35,4.07
21.164682149887085,0.31,-4.01,-1.61,4.33
21.171305894851685,0.09,-4.06,-1.69,4.39
21.18198800086975,-0.12,-3.95,-1.55,4.24
21.191882848739624,-0.19,-3.8,-1.19,3.98
21.20146894454956,-0.22,-3.52,-0.69,3.59
21.21468710899353,-0.2,-3.21,-0.34,3.23
21.222058057785034,-0.06,-2.86,-0.22,2.86
21.232086896896362,-0.05,-2.57,-0.15,2.57
21.241851091384888,-0.1,-2.3,-0.09,2.3
21.25182604789734,-0.14,-2.03,0.01,2.03
21.266298055648804,-0.22,-1.81,0.16,1.83
21.271338939666748,-0.37,-1.55,0.35,1.63
21.281973123550415,-0.57,-1.25,0.41,1.43
21.291846990585327,-0.77,-0.92,0.44,1.27
21.301491022109985,-0.86,-0.54,0.62,1.18
21.314981937408447,-0.98,-0.08,0.73,1.22
21.321115970611572,-0.98,0.3,0.87,1.34
21.332218885421753,-0.93,0.68,1.25,1.69
21.341799020767212,-1.02,0.97,1.78,2.26
21.351763010025024,-1.04,1.04,1.92,2.41
21.36705183982849,-1.05,1.0,1.67,2.21
21.371360063552856,-0.98,0.92,1.47,1.99
21.382213830947876,-0.92,0.85,1.34,1.83
21.391808032989502,-0.84,0.87,1.3,1.77
21.401521921157837,-0.77,0.98,1.43,1.89
21.41508984565735,-0.67,1.25,1.74,2.24
21.42142605781555,-0.42,1.64,2.14,2.72
21.432342052459717,-0.21,2.09,2.51,3.27
21.44176697731018,-0.05,2.46,2.77,3.7
21.451707124710083,-0.19,2.79,2.8,3.95
21.464797973632812,-0.44,3.15,2.51,4.05
21.471987009048462,-0.69,3.53,1.97,4.1
21.481930017471313,-0.91,4.05,1.54,4.42
21.49205994606018,-0.86,4.52,1.06,4.72
21.501641035079956,-0.71,4.67,0.01,4.72
21.51528000831604,-0.34,4.06,-1.68,4.4
21.52126908302307,0.11,3.45,-3.13,4.65
21.532197952270508,0.63,2.82,-3.17,4.28
21.54179310798645,0.92,1.83,-2.02,2.87
21.551718950271606,0.94,0.94,-0.7,1.5
21.56530499458313,0.91,0.13,-0.22,0.94
21.57134985923767,0.89,-0.45,-0.55,1.13
21.582262992858887,1.0,-0.65,-1.04,1.58
21.59220600128174,1.31,-0.52,-1.17,1.83
21.60194993019104,1.61,-0.18,-0.99,1.89
21.615201950073242,1.79,0.21,-0.7,1.93
21.62133002281189,1.74,0.56,-0.61,1.92
21.632285833358765,1.37,0.81,-0.82,1.79
21.641709089279175,1.03,0.9,-1.11,1.76
21.65171194076538,0.77,0.78,-1.22,1.64
21.665514945983887,0.62,0.45,-1.26,1.47
21.671326875686646,0.51,0.01,-1.56,1.64
21.682008028030396,0.27,-0.52,-1.4,1.51
21.69194197654724,0.23,-0.97,-0.65,1.19
21.70167088508606,0.22,-1.47,0.13,1.49
21.715006113052368,0.29,-2.07,0.21,2.1
21.721300840377808,0.04,-2.66,-0.2,2.66
21.73244595527649,-0.23,-3.15,-0.44,3.18
21.741904973983765,-0.35,-3.4,-0.81,3.51
21.751846075057983,-0.59,-3.6,-1.0,3.78
21.766080141067505,-0.57,-3.67,-0.83,3.8
21.771464109420776,-0.45,-3.52,-0.61,3.6
21.782099962234497,-0.31,-3.38,-0.47,3.42
21.791932821273804,-0.06,-3.26,-0.32,3.27
21.801614999771118,0.14,-3.02,-0.14,3.02
21.815736055374146,0.31,-2.82,-0.11,2.83
21.8212411403656,0.44,-2.57,-0.11,2.6
21.832205057144165,0.52,-2.28,0.0,2.33
21.84178900718689,0.54,-1.94,0.15,2.01
21.851805925369263,0.62,-1.63,0.35,1.77
21.865430116653442,0.62,-1.32,0.41,1.51
21.871411085128784,0.62,-1.04,0.33,1.25
21.882071018218994,0.7,-0.82,0.3,1.11
21.891947031021118,0.74,-0.64,0.35,1.03
21.90185809135437,0.85,-0.51,0.44,1.08
21.91610884666443,0.94,-0.35,0.55,1.14
21.921417951583862,0.97,-0.12,0.87,1.3
21.932082891464233,1.11,0.21,1.21,1.65
21.941740036010742,1.13,0.45,1.34,1.8
21.951700925827026,1.1,0.71,1.32,1.85
21.965688943862915,1.12,0.99,1.34,2.0
21.971397161483765,1.12,1.3,1.43,2.23
21.982195138931274,1.04,1.63,1.51,2.45
21.991832971572876,1.02,1.96,1.61,2.73
22.0023090839386,1.18,2.33,1.98,3.27
22.016728162765503,1.46,2.75,2.61,4.06
22.021485090255737,1.57,3.1,3.19,4.71
22.032258987426758,1.25,3.31,3.09,4.69
22.041628122329712,0.59,3.42,2.3,4.16
22.052172899246216,-0.14,3.69,1.43,3.95
22.066303968429565,-0.8,4.0,0.46,4.1
22.071645975112915,-1.24,3.91,-0.98,4.21
22.08220601081848,-1.44,3.4,-2.36,4.38
22.091961145401,-1.41,3.12,-2.88,4.47
22.101735830307007,-1.08,2.67,-2.53,3.83
22.11694884300232,-1.04,1.88,-1.73,2.75
22.121482133865356,-1.11,1.18,-0.92,1.86
22.13156795501709,-1.34,0.74,-0.59,1.64
22.142231941223145,-1.64,0.58,-0.76,1.89
22.151836156845093,-2.0,0.75,-1.11,2.4
22.165516138076782,-2.25,1.03,-1.11,2.71
22.17157292366028,-2.23,1.46,-0.83,2.79
22.182215929031372,-1.79,1.82,-0.63,2.62
22.192145109176636,-1.38,2.04,-0.67,2.55
22.201810121536255,-1.01,1.97,-0.89,2.38
22.21636986732483,-0.75,1.59,-1.11,2.07
22.221627950668335,-0.42,1.07,-1.24,1.69
22.232242822647095,-0.2,0.47,-1.05,1.16
22.242496967315674,-0.03,-0.16,-0.56,0.58
22.251609086990356,0.07,-0.76,-0.11,0.77
22.266456842422485,0.09,-1.41,0.09,1.41
22.27155900001526,0.16,-2.13,-0.1,2.13
22.28157687187195,0.21,-2.85,-0.77,2.95
22.292572021484375,0.08,-3.42,-0.99,3.56
22.301488161087036,0.14,-3.79,-0.91,3.9
22.316262006759644,0.22,-4.09,-1.07,4.23
22.32179284095764,0.19,-4.29,-1.32,4.49
22.331467866897583,0.14,-4.25,-1.32,4.45
22.342583894729614,0.03,-4.07,-1.02,4.19
22.35177206993103,-0.25,-3.81,-0.78,3.89
22.36663794517517,-0.45,-3.54,-0.59,3.61
22.371541023254395,-0.51,-3.24,-0.37,3.3
22.382302045822144,-0.43,-2.93,-0.13,2.96
22.3925359249115,-0.32,-2.6,0.14,2.62
22.401823043823242,-0.19,-2.28,0.32,2.31
22.41669011116028,-0.12,-1.83,0.4,1.87
22.42178702354431,-0.12,-1.46,0.46,1.53
22.432363033294678,-0.27,-1.15,0.49,1.27
22.44245982170105,-0.52,-0.89,0.5,1.14
22.45180106163025,-0.77,-0.64,0.54,1.13
22.466222047805786,-1.08,-0.41,0.64,1.32
22.471465826034546,-1.14,-0.16,0.78,1.39
22.482282876968384,-1.18,0.05,1.01,1.55
22.492736101150513,-1.06,0.16,1.36,1.73
22.502169847488403,-0.89,0.3,1.52,1.78
22.516479969024658,-0.82,0.44,1.54,1.79
22.521631956100464,-0.76,0.6,1.78,2.02
22.531734943389893,-0.65,0.83,2.06,2.31
22.5428569316864,-0.61,1.01,1.85,2.19
22.55162787437439,-0.67,1.15,1.32,1.87
22.56674599647522,-0.68,1.34,1.16,1.89
22.571592092514038,-0.6,1.64,1.41,2.24
22.58141589164734,-0.55,1.99,1.72,2.68
22.593024015426636,-0.42,2.28,2.05,3.09
22.60183596611023,-0.29,2.57,2.3,3.46
22.617264986038208,-0.16,2.88,2.36,3.72
22.621690034866333,-0.15,3.17,2.15,3.83
22.63239598274231,-0.08,3.58,1.9,4.05
22.642722845077515,-0.06,4.15,1.56,4.43
22.651620149612427,-0.1,4.16,0.34,4.17
22.666213989257812,-0.1,3.61,-1.68,3.98
22.671558141708374,0.3,3.2,-3.24,4.56
22.682250022888184,0.94,2.75,-3.65,4.66
22.692883014678955,1.29,1.98,-2.85,3.7
22.701770067214966,1.49,1.24,-1.45,2.42
22.71622109413147,1.58,0.57,-0.46,1.74
22.721346139907837,1.57,0.16,-0.29,1.6
22.732149839401245,1.57,0.08,-0.5,1.64
22.74290108680725,1.69,0.19,-0.65,1.82
22.75189995765686,1.81,0.45,-0.84,2.04
22.767532110214233,1.7,0.72,-0.96,2.08
22.77173113822937,1.41,1.0,-1.12,2.05
22.781718969345093,1.1,1.14,-1.27,2.03
22.793043851852417,0.81,1.13,-1.33,1.92
22.801623106002808,0.63,0.84,-1.26,1.64
22.81711196899414,0.58,0.4,-1.13,1.33
22.821449995040894,0.64,-0.04,-0.81,1.03
22.83175492286682,0.66,-0.54,-0.54,1.0
22.84332799911499,0.53,-1.09,-0.38,1.27
22.85201907157898,0.35,-1.62,-0.43,1.71
22.867550134658813,0.12,-2.19,-0.84,2.34
22.87177586555481,-0.32,-2.7,-0.75,2.82
22.882417917251587,-0.47,-2.97,-0.32,3.02
22.892918825149536,-0.42,-3.23,0.01,3.25
22.901854991912842,-0.28,-3.42,-0.16,3.43
22.91733193397522,-0.2,-3.58,-0.37,3.6
22.92177414894104,-0.09,-3.56,-0.62,3.61
22.932326078414917,-0.04,-3.48,-0.76,3.56
22.943105936050415,0.07,-3.45,-0.68,3.51
22.951954126358032,0.18,-3.32,-0.49,3.36
22.96773886680603,0.31,-3.13,-0.28,3.15
22.971783876419067,0.35,-2.95,0.0,2.97
22.98165488243103,0.45,-2.77,0.28,2.82
22.99343705177307,0.56,-2.54,0.47,2.64
23.00154709815979,0.56,-2.3,0.47,2.41
23.016705989837646,0.57,-2.05,0.39,2.16
23.02159285545349,0.51,-1.77,0.31,1.86
23.031780004501343,0.42,-1.54,0.31,1.62
23.0433189868927,0.37,-1.32,0.39,1.42
23.051692008972168,0.41,-1.0,0.5,1.19
23.067010164260864,0.56,-0.62,0.72,1.1
23.07164692878723,0.68,-0.26,1.07,1.29
23.081673860549927,0.84,0.02,1.24,1.49
23.093647956848145,0.86,0.4,1.27,1.58
23.10179591178894,1.03,0.88,1.48,2.0
23.116997003555298,1.14,1.34,1.71,2.45
23.121647119522095,1.35,1.69,1.76,2.78
23.131776094436646,1.4,2.08,1.8,3.08
23.143494844436646,1.48,2.58,2.02,3.59
23.151758909225464,1.68,3.17,2.6,4.43
23.16708207130432,1.72,3.73,3.51,5.4
23.17175793647766,1.69,4.23,3.99,6.05
23.181698083877563,1.24,4.45,3.35,5.7
23.193791151046753,0.52,4.59,2.24,5.13
23.20164203643799,-0.28,4.8,1.03,4.91
23.217007875442505,-0.87,4.61,-0.4,4.7
23.22148108482361,-1.42,3.94,-1.9,4.59
23.231884956359863,-1.61,3.46,-2.93,4.81
23.24394702911377,-1.39,3.24,-3.12,4.7
23.251685857772827,-1.18,2.74,-2.58,3.94
23.26774501800537,-1.07,2.08,-1.7,2.89
23.271817922592163,-1.07,1.5,-0.96,2.07
23.282382011413574,-1.25,1.04,-0.69,1.76
23.293365955352783,-1.64,0.7,-1.09,2.08
23.30170702934265,-1.94,0.64,-1.53,2.55
23.318480014801025,-1.92,0.86,-1.48,2.57
23.321789979934692,-1.7,1.15,-1.09,2.32
23.331865072250366,-1.41,1.33,-0.85,2.11
23.343726873397827,-1.05,1.32,-0.91,1.91
23.35180115699768,-0.71,1.08,-1.1,1.69
23.367241144180298,-0.38,0.73,-1.23,1.47
23.371752977371216,-0.08,0.29,-1.22,1.25
23.381783962249756,0.16,-0.18,-0.89,0.92
23.39394497871399,0.3,-0.65,-0.51,0.87
23.40172004699707,0.38,-1.17,-0.32,1.27
23.418503999710083,0.4,-1.79,-0.23,1.84
23.421772956848145,0.43,-2.39,-0.18,2.43
23.431883096694946,0.4,-2.99,-0.31,3.03
23.44388699531555,0.47,-3.46,-0.69,3.55
23.451881170272827,0.48,-3.87,-1.61,4.21
23.46758198738098,0.21,-4.19,-2.01,4.65
23.47165083885193,0.24,-4.17,-1.75,4.52
23.481786966323853,0.28,-4.01,-1.06,4.15
23.49415612220764,0.47,-3.79,-0.56,3.85
23.50201916694641,0.43,-3.53,-0.37,3.57
23.5192129611969,0.41,-3.33,-0.25,3.36
23.521876096725464,0.26,-3.15,-0.3,3.17
23.531935930252075,0.12,-3.01,-0.34,3.03
23.544073820114136,-0.03,-2.8,-0.13,2.8
23.552026987075806,-0.16,-2.56,0.18,2.57
23.568161010742188,-0.28,-2.32,0.39,2.36
23.571962118148804,-0.36,-2.1,0.51,2.19
23.582445859909058,-0.45,-1.83,0.53,1.95
23.59371590614319,-0.54,-1.45,0.42,1.6
23.602041006088257,-0.6,-1.06,0.42,1.28
23.61780595779419,-0.65,-0.62,0.63,1.09
23.621861934661865,-0.71,-0.13,1.07,1.29
23.63261914253235,-0.72,0.29,1.55,1.73
23.642154932022095,-0.68,0.72,1.96,2.19
23.65565514564514,-0.65,1.07,2.11,2.45
23.661718130111694,-0.63,1.25,1.96,2.4
23.671818017959595,-0.66,1.38,1.56,2.18
23.682440042495728,-0.75,1.37,1.2,1.96
23.692282915115356,-0.83,1.37,1.08,1.93
23.706483125686646,-0.89,1.58,1.32,2.24
23.71180295944214,-0.91,1.88,1.66,2.66
23.722383975982666,-0.82,2.17,2.05,3.09
23.7324321269989,-0.78,2.45,2.54,3.61
23.742280960083008,-0.74,2.68,2.91,4.02
23.75794816017151,-0.88,2.87,2.87,4.15
23.761836051940918,-0.89,3.07,2.35,3.96
23.771815061569214,-0.75,3.36,1.61,3.8
23.782537937164307,-0.38,3.72,0.73,3.8
23.79246997833252,-0.13,4.03,-0.55,4.06
23.806164026260376,0.05,3.95,-1.98,4.41
23.81181311607361,0.53,3.7,-3.1,4.85
23.821844816207886,0.95,3.39,-3.36,4.86
23.832536935806274,0.99,2.54,-2.39,3.62
23.842049837112427,1.05,1.53,-0.87,2.04
23.85570216178894,1.07,0.72,0.0,1.28
23.861783981323242,1.18,0.22,-0.22,1.22
23.871840000152588,1.39,0.02,-0.84,1.62
23.88245415687561,1.75,0.17,-1.15,2.1
23.892189979553223,2.04,0.53,-1.15,2.4
23.90662407875061,2.1,0.97,-0.96,2.5
23.91182804107666,1.92,1.29,-0.87,2.47
23.922527074813843,1.56,1.44,-1.02,2.35
23.932518005371094,1.18,1.34,-1.22,2.16
23.942323923110962,0.78,1.0,-1.34,1.84
23.956673860549927,0.57,0.51,-1.36,1.56
23.961960077285767,0.46,-0.06,-1.19,1.27
23.972623109817505,0.32,-0.69,-0.89,1.17
23.98247194290161,0.27,-1.29,-0.69,1.48
23.99243712425232,0.18,-1.91,-0.66,2.02
24.00694704055786,0.0,-2.52,-0.59,2.58
24.011981964111328,-0.22,-3.01,-0.55,3.06
24.02245306968689,-0.4,-3.37,-0.57,3.44
24.032536029815674,-0.48,-3.65,-0.79,3.76
24.04233193397522,-0.57,-3.78,-1.27,4.02
24.05674386024475,-0.66,-3.79,-1.34,4.07
24.061967134475708,-0.52,-3.54,-0.81,3.66
24.072674989700317,-0.3,-3.26,-0.02,3.27
24.08254098892212,0.05,-3.1,0.27,3.11
24.092427015304565,0.28,-2.99,0.05,3.0
24.10684609413147,0.46,-2.86,-0.13,2.89
24.11196804046631,0.5,-2.75,-0.13,2.79
24.12180805206299,0.44,-2.7,-0.1,2.73
24.132664918899536,0.42,-2.58,0.03,2.61
24.14246392250061,0.47,-2.4,0.31,2.46
24.156481981277466,0.54,-2.15,0.48,2.26
24.161997079849243,0.67,-1.84,0.59,2.04
24.17192006111145,0.77,-1.51,0.66,1.81
24.18250584602356,0.85,-1.15,0.69,1.58
24.19260001182556,0.77,-0.77,0.63,1.25
24.206004858016968,0.76,-0.36,0.59,1.02
24.211941957473755,0.73,0.13,0.67,0.99
24.22186803817749,0.67,0.55,0.84,1.2
24.232549905776978,0.66,1.01,1.08,1.61
24.242664098739624,0.79,1.45,1.34,2.12
24.256338834762573,0.94,1.83,1.56,2.58
24.2617928981781,1.11,2.2,1.65,2.96
24.271916151046753,1.23,2.46,1.66,3.21
24.282574892044067,1.29,2.7,1.68,3.43
24.292414903640747,1.45,3.19,2.35,4.21
24.306267976760864,1.65,3.55,3.09,4.98
24.311887979507446,1.51,3.66,3.32,5.16
24.321955919265747,1.25,3.68,2.99,4.9
24.332620859146118,0.63,3.55,2.28,4.26
24.342602968215942,-0.03,3.74,1.75,4.12
24.35669994354248,-0.65,3.92,0.99,4.09
24.36201310157776,-1.06,3.82,-0.24,3.97
24.372594118118286,-1.41,3.32,-1.66,3.97
24.382517099380493,-1.6,2.74,-2.73,4.18
24.39237093925476,-1.41,2.42,-2.99,4.09
24.406638860702515,-1.21,1.76,-2.64,3.39
24.412091970443726,-1.19,1.04,-1.89,2.46
24.42261290550232,-1.3,0.47,-1.02,1.71
24.432651042938232,-1.6,0.09,-0.5,1.67
24.44237995147705,-1.94,0.01,-0.62,2.03
24.457932949066162,-2.19,0.13,-0.98,2.4
24.462056875228882,-2.17,0.47,-1.04,2.45
24.472718000411987,-1.85,0.95,-0.73,2.2
24.482537984848022,-1.49,1.37,-0.49,2.08
24.492555856704712,-0.99,1.5,-0.68,1.92
24.508193016052246,-0.51,1.45,-1.12,1.9
24.512120008468628,-0.08,1.22,-1.42,1.87
24.52254295349121,0.13,0.74,-1.42,1.6
24.532600164413452,0.18,0.08,-1.11,1.12
24.54236388206482,0.23,-0.56,-0.58,0.83
24.557058095932007,0.28,-1.21,-0.25,1.26
24.562019109725952,0.3,-1.88,-0.25,1.92
24.57267999649048,0.33,-2.64,-0.33,2.68
24.58256196975708,0.17,-3.25,-0.35,3.27
24.592389822006226,0.08,-3.76,-0.53,3.79
24.60698390007019,0.18,-4.02,-0.92,4.12
24.612143993377686,0.13,-4.17,-1.14,4.32
24.62265396118164,0.02,-4.23,-1.26,4.41
24.632508993148804,-0.1,-4.24,-1.51,4.5
24.642380952835083,-0.24,-3.96,-1.19,4.14
24.657119035720825,-0.14,-3.46,-0.54,3.5
24.662091970443726,-0.1,-3.22,0.05,3.22
24.672649145126343,0.07,-2.89,0.37,2.91
24.68262791633606,0.18,-2.47,0.54,2.53
24.692657947540283,0.08,-2.13,0.59,2.21
24.70698094367981,-0.1,-1.85,0.58,1.94
24.712045907974243,-0.31,-1.58,0.58,1.71
24.722421884536743,-0.45,-1.3,0.58,1.49
24.732643842697144,-0.54,-1.03,0.56,1.29
24.74264407157898,-0.64,-0.78,0.62,1.18
24.757167100906372,-0.74,-0.53,0.84,1.23
24.762083053588867,-0.79,-0.27,1.03,1.32
24.771969079971313,-0.79,-0.09,1.1,1.35
24.782644987106323,-0.84,0.01,1.06,1.35
24.792716026306152,-0.83,0.18,1.14,1.42
24.80701184272766,-0.8,0.4,1.49,1.73
24.81208896636963,-0.82,0.63,1.82,2.09
24.82281184196472,-0.87,0.87,1.79,2.17
24.832589864730835,-0.94,1.01,1.47,2.01
24.84254503250122,-0.91,1.12,1.17,1.85
24.85695505142212,-0.84,1.25,0.94,1.77
24.862154960632324,-0.74,1.43,0.82,1.8
24.872782945632935,-0.5,1.77,1.29,2.24
24.88266396522522,-0.24,2.22,1.95,2.96
24.892789125442505,-0.19,2.67,2.41,3.6
24.906970024108887,-0.24,3.13,2.36,3.92
24.91202712059021,-0.34,3.69,2.03,4.22
24.922012090682983,-0.36,4.38,1.61,4.68
24.93274998664856,-0.23,4.59,0.24,4.6
24.94254994392395,-0.29,4.22,-1.81,4.6
24.956555128097534,0.33,3.81,-3.5,5.18
24.96198296546936,1.01,3.46,-4.15,5.49
24.972758054733276,1.34,2.88,-3.34,4.6
24.982640981674194,1.56,2.1,-1.57,3.05
24.992732048034668,1.61,1.36,-0.25,2.12
25.007719039916992,1.45,0.69,-0.07,1.6
25.012212991714478,1.34,0.38,-0.48,1.47
25.02280592918396,1.37,0.47,-0.86,1.68
25.032707929611206,1.54,0.68,-0.98,1.94
25.042670011520386,1.5,0.91,-0.96,1.99
25.056524991989136,1.36,1.18,-0.79,1.96
25.061951875686646,1.19,1.36,-0.79,1.97
25.073084115982056,0.98,1.38,-0.99,1.96
25.08272099494934,0.8,1.16,-1.19,1.84
25.092789888381958,0.7,0.73,-1.28,1.63
25.10781216621399,0.62,0.23,-1.18,1.35
25.112334966659546,0.49,-0.3,-0.93,1.09
25.122777938842773,0.32,-0.88,-0.7,1.16
25.132703065872192,0.19,-1.5,-0.57,1.61
25.142693042755127,0.08,-2.1,-0.52,2.16
25.156559944152832,-0.18,-2.62,-0.35,2.64
25.162014961242676,-0.32,-3.02,-0.27,3.04
25.172827005386353,-0.48,-3.31,-0.23,3.35
25.182772874832153,-0.55,-3.53,-0.36,3.59
25.192582845687866,-0.5,-3.69,-1.0,3.85
25.206072092056274,-0.68,-3.8,-1.15,4.02
25.212059020996094,-0.56,-3.68,-0.76,3.79
25.222779989242554,-0.07,-3.57,-0.17,3.57
25.232805967330933,0.26,-3.52,-0.07,3.53
25.24263310432434,0.38,-3.58,-0.46,3.62
25.25673198699951,0.41,-3.62,-0.68,3.7
25.26197600364685,0.34,-3.6,-0.48,3.64
25.27284598350525,0.28,-3.5,-0.16,3.51
25.282749891281128,0.2,-3.31,0.19,3.32
25.29283905029297,0.17,-3.13,0.52,3.17
25.30786108970642,0.25,-2.91,0.65,2.99
25.312417030334473,0.37,-2.58,0.71,2.7
25.322850942611694,0.52,-2.11,0.77,2.3
25.332905054092407,0.66,-1.55,0.74,1.84
25.34255599975586,0.68,-0.98,0.68,1.37
25.35735011100769,0.67,-0.4,0.77,1.09
25.36225199699402,0.75,0.33,1.01,1.3
25.37289309501648,0.72,1.06,1.28,1.81
25.38289999961853,0.64,1.67,1.43,2.28
25.392789125442505,0.71,2.11,1.44,2.65
25.40696692466736,0.74,2.49,1.51,3.0
25.412275075912476,0.86,2.8,1.63,3.35
25.42282795906067,1.11,3.21,1.88,3.88
25.432857036590576,1.58,3.78,2.62,4.86
25.442731142044067,2.07,4.4,3.79,6.16
25.457118034362793,2.13,4.84,4.38,6.86
25.46225595474243,1.61,4.93,3.72,6.38
25.473224878311157,0.87,4.9,2.35,5.5
25.482692003250122,0.06,5.13,1.13,5.25
25.49290895462036,-0.7,5.23,0.11,5.27
25.50853991508484,-1.27,4.9,-0.92,5.14
25.512298822402954,-1.61,4.27,-1.93,4.95
25.5222008228302,-1.65,3.89,-2.48,4.89
25.532999992370605,-1.31,3.36,-2.38,4.32
25.54279589653015,-1.16,2.24,-1.96,3.19
25.556771993637085,-1.15,1.12,-1.6,2.26
25.562082052230835,-1.33,0.19,-1.57,2.06
25.572996854782104,-1.64,-0.41,-1.76,2.44
25.58287787437439,-1.94,-0.56,-2.09,2.9
25.593093156814575,-2.12,-0.35,-2.03,2.95
25.607537031173706,-1.93,0.1,-1.55,2.47
25.61215090751648,-1.58,0.61,-0.95,1.94
25.622810125350952,-1.23,1.07,-0.67,1.76
25.63287091255188,-0.85,1.27,-0.74,1.69
25.642728090286255,-0.49,1.17,-0.98,1.6
25.657701015472412,-0.23,0.85,-1.15,1.44
25.662186861038208,-0.03,0.45,-1.13,1.21
25.672972917556763,0.11,0.02,-0.81,0.81
25.682617902755737,0.27,-0.56,-0.35,0.71
25.692443132400513,0.29,-1.14,0.02,1.17
25.70630383491516,0.25,-1.89,0.15,1.91
25.712321996688843,0.2,-2.7,0.06,2.7
25.72228693962097,0.12,-3.44,-0.17,3.44
25.732841968536377,-0.12,-4.03,-0.56,4.07
25.742918968200684,-0.25,-4.48,-0.89,4.57
25.757531881332397,-0.32,-4.72,-1.12,4.86
25.762285947799683,-0.33,-4.72,-1.27,4.89
25.773036003112793,-0.24,-4.6,-1.58,4.86
25.782816171646118,-0.28,-4.43,-1.53,4.69
25.792811155319214,-0.16,-4.02,-0.91,4.12
25.807358980178833,0.03,-3.51,-0.13,3.51
25.81234908103943,0.2,-3.26,0.42,3.29
25.822325944900513,0.26,-2.91,0.43,2.95
25.83297085762024,0.25,-2.49,0.41,2.53
25.842867136001587,0.16,-2.09,0.45,2.14
25.857574939727783,-0.05,-1.71,0.63,1.82
25.862394094467163,-0.24,-1.37,0.82,1.61
25.873085021972656,-0.62,-1.0,0.91,1.48
25.88273000717163,-0.96,-0.71,0.78,1.42
25.892729997634888,-1.14,-0.43,0.59,1.35
25.90841317176819,-1.15,-0.11,0.56,1.28
25.912384033203125,-0.93,0.31,0.67,1.18
25.923073053359985,-0.78,0.53,1.0,1.37
25.93287682533264,-0.68,0.69,1.34,1.65
25.94289493560791,-0.62,0.88,1.7,2.01
25.957813024520874,-0.61,0.97,1.88,2.2
25.96251893043518,-0.69,1.06,1.82,2.21
25.972429037094116,-0.75,1.15,1.57,2.08
25.982949018478394,-0.74,1.42,1.36,2.1
25.992679834365845,-0.75,1.74,1.36,2.33
26.007961988449097,-0.73,2.12,1.55,2.72
26.012501001358032,-0.63,2.46,1.81,3.11
26.022960901260376,-0.47,2.79,2.09,3.51
26.03289484977722,-0.26,3.06,2.38,3.88
26.042754888534546,-0.29,3.35,2.45,4.16
26.057870149612427,-0.39,3.6,2.04,4.15
26.062619924545288,-0.54,3.87,1.27,4.1
26.073045015335083,-0.54,4.12,0.46,4.18
26.08282494544983,-0.33,4.25,-0.84,4.34
26.092926025390625,-0.17,4.0,-2.37,4.65
26.108568906784058,0.4,3.56,-3.41,4.94
26.112977981567383,0.9,3.05,-3.64,4.83
26.122989892959595,1.07,2.24,-2.73,3.68
26.132925987243652,1.18,1.52,-1.14,2.23
26.142688989639282,1.1,0.94,-0.01,1.44
26.158161878585815,1.12,0.51,0.11,1.23
26.16273283958435,1.26,0.33,-0.3,1.33
26.17248797416687,1.5,0.42,-0.7,1.7
26.182917833328247,1.64,0.7,-0.89,1.99
26.192835092544556,1.7,0.98,-0.83,2.13
26.207499980926514,1.54,1.25,-0.73,2.11
26.213072061538696,1.22,1.29,-0.69,1.9
26.223058938980103,0.87,1.11,-0.77,1.6
26.23284888267517,0.56,0.68,-0.94,1.28
26.242862939834595,0.47,0.15,-1.0,1.11
26.257982969284058,0.46,-0.37,-0.97,1.13
26.263129949569702,0.39,-0.91,-0.81,1.27
26.273296117782593,0.24,-1.51,-0.55,1.62
26.28283405303955,0.08,-2.07,-0.38,2.1
26.293102025985718,0.03,-2.55,-0.51,2.6
26.30878496170044,-0.25,-2.99,-0.52,3.04
26.313047170639038,-0.43,-3.42,-0.57,3.49
26.323081970214844,-0.57,-3.67,-0.56,3.75
26.332828998565674,-0.56,-3.75,-0.48,3.82
26.342961072921753,-0.51,-3.84,-0.51,3.9
26.358596086502075,-0.24,-3.82,-0.9,3.93
26.363094091415405,-0.14,-3.88,-1.49,4.15
26.373122930526733,-0.11,-4.0,-1.46,4.25
26.38283896446228,0.0,-3.78,-0.8,3.86
26.392701864242554,0.18,-3.67,-0.02,3.67
26.40711498260498,0.4,-3.55,0.33,3.58
26.41331696510315,0.44,-3.31,0.37,3.35
26.423210859298706,0.46,-3.04,0.38,3.09
26.43272304534912,0.41,-2.72,0.38,2.77
26.443011045455933,0.42,-2.37,0.5,2.45
26.45797610282898,0.48,-1.92,0.67,2.08
26.46315598487854,0.62,-1.44,0.8,1.76
26.47342801094055,0.73,-1.02,0.86,1.52
26.48289704322815,0.78,-0.52,0.92,1.31
26.492939949035645,0.81,0.0,1.02,1.3
26.50900387763977,0.84,0.53,1.02,1.42
26.51322293281555,0.87,1.0,0.99,1.65
26.523160934448242,0.83,1.37,1.06,1.92
26.53299593925476,0.99,1.79,1.29,2.41
26.54294514656067,1.12,2.13,1.53,2.85
26.558128118515015,1.11,2.32,1.63,3.04
26.56332516670227,1.05,2.53,1.74,3.24
26.573437929153442,1.28,2.8,1.99,3.66
26.582835912704468,1.57,3.1,2.49,4.27
26.593228101730347,1.65,3.44,2.87,4.77
26.60809898376465,1.35,3.68,2.87,4.85
26.613312005996704,0.69,3.94,2.6,4.77
26.623273134231567,0.03,4.38,1.76,4.72
26.633036851882935,-0.64,4.64,0.18,4.68
26.642876863479614,-1.29,4.21,-1.82,4.76
26.65777611732483,-1.71,3.6,-3.36,5.21
26.663482904434204,-1.66,3.38,-3.82,5.36
26.673557996749878,-1.43,2.99,-3.19,4.6
26.682850122451782,-1.31,2.39,-1.79,3.26
26.693215131759644,-1.2,1.87,-0.47,2.27
26.708153009414673,-1.31,1.37,0.04,1.89
26.713559865951538,-1.66,1.09,-0.37,2.02
26.723186016082764,-2.0,0.96,-1.07,2.46
26.733088970184326,-2.1,1.19,-1.39,2.78
26.743048906326294,-1.85,1.52,-1.17,2.66
26.75796914100647,-1.5,1.78,-0.86,2.48
26.76255702972412,-1.07,1.81,-0.88,2.27
26.773342847824097,-0.66,1.62,-1.16,2.09
26.78287386894226,-0.42,1.21,-1.44,1.92
26.793251991271973,-0.25,0.69,-1.48,1.65
26.808314085006714,-0.15,0.16,-1.2,1.21
26.813621997833252,-0.11,-0.34,-0.82,0.89
26.823323965072632,-0.14,-0.92,-0.58,1.09
26.833040952682495,-0.18,-1.53,-0.46,1.6
26.843034982681274,-0.09,-2.07,-0.51,2.13
26.856997966766357,0.0,-2.53,-0.8,2.65
26.862473964691162,-0.02,-2.99,-0.89,3.11
26.87266516685486,0.13,-3.28,-1.06,3.44
26.882894039154053,0.14,-3.53,-1.17,3.72
26.89287304878235,0.21,-3.69,-1.1,3.85
26.90608811378479,0.28,-3.63,-1.05,3.78
26.912506818771362,0.29,-3.62,-1.03,3.77
26.92342209815979,0.31,-3.53,-1.06,3.69
26.93305993080139,0.3,-3.38,-1.35,3.65
26.943127870559692,0.05,-3.24,-1.34,3.5
26.958338975906372,-0.17,-2.95,-0.47,2.99
26.962648153305054,-0.18,-2.75,0.11,2.75
26.973551034927368,-0.15,-2.64,0.29,2.66
26.982971906661987,-0.1,-2.37,0.3,2.39
26.993293046951294,-0.28,-2.1,0.39,2.15
27.009315967559814,-0.4,-1.87,0.48,1.97
27.012648820877075,-0.67,-1.6,0.41,1.78
27.02333402633667,-0.87,-1.39,0.37,1.68
27.033069849014282,-0.86,-1.07,0.42,1.43
27.04323410987854,-0.85,-0.57,0.68,1.22
27.05871891975403,-0.77,-0.2,1.11,1.36
27.062577962875366,-0.6,0.2,1.44,1.57
27.07352900505066,-0.59,0.52,1.74,1.9
27.082962036132812,-0.49,0.77,1.7,1.92
27.09326481819153,-0.57,0.95,1.48,1.84
27.10904288291931,-0.64,1.02,1.19,1.69
27.112637996673584,-0.76,1.12,1.02,1.69
27.123471975326538,-0.85,1.18,1.1,1.82
27.132991075515747,-0.83,1.32,1.26,2.0
27.14292883872986,-0.77,1.52,1.37,2.18
27.15789008140564,-0.64,1.71,1.47,2.34
27.162587881088257,-0.49,1.89,1.61,2.53
27.172582864761353,-0.41,2.15,2.06,3.0
27.18345808982849,-0.25,2.57,2.48,3.58
27.193122148513794,-0.32,2.83,2.55,3.82
27.206816911697388,-0.37,3.09,1.99,3.69
27.212351083755493,-0.42,3.53,1.27,3.77
27.22269892692566,-0.42,3.94,0.49,3.99
27.232934951782227,-0.28,3.82,-0.68,3.89
27.24283504486084,-0.08,3.42,-2.06,3.99
27.25644087791443,0.5,3.1,-3.1,4.41
27.26247811317444,0.89,2.64,-3.17,4.22
27.273303985595703,1.08,1.78,-2.21,3.03
27.28282594680786,1.09,0.89,-1.14,1.81
27.29323697090149,1.01,0.14,-0.74,1.25
27.308105945587158,0.9,-0.35,-0.87,1.29
27.312870979309082,1.03,-0.51,-1.25,1.69
27.323498964309692,1.32,-0.32,-1.43,1.97
27.33311915397644,1.63,0.04,-1.29,2.07
27.34300208091736,1.82,0.5,-0.93,2.1
27.357836961746216,1.78,0.94,-0.64,2.11
27.36252999305725,1.63,1.28,-0.7,2.18
27.372711896896362,1.37,1.42,-0.87,2.15
27.383020162582397,0.92,1.41,-1.02,1.96
27.39311385154724,0.83,1.17,-1.21,1.87
27.407804012298584,0.71,0.76,-1.14,1.54
27.412721872329712,0.63,0.24,-0.96,1.17
27.423400163650513,0.48,-0.35,-0.78,0.98
27.433133840560913,0.3,-1.02,-0.53,1.18
27.44329285621643,0.1,-1.55,-0.36,1.59
27.457149982452393,-0.01,-2.05,-0.41,2.09
27.46251893043518,-0.29,-2.46,-0.37,2.5
27.47269892692566,-0.45,-2.83,-0.33,2.88
27.483239889144897,-0.38,-3.01,-0.5,3.07
27.493412017822266,-0.3,-3.11,-0.71,3.2
27.508396863937378,-0.21,-3.23,-1.11,3.42
27.51272201538086,-0.24,-3.2,-1.19,3.42
27.522696018218994,-0.17,-3.03,-0.71,3.11
27.533303022384644,0.2,-2.88,0.03,2.88
27.543346166610718,0.46,-2.74,0.25,2.78
27.55838894844055,0.46,-2.76,-0.01,2.79
27.5628080368042,0.34,-2.73,-0.16,2.75
27.573464155197144,0.26,-2.63,-0.06,2.64
27.582914113998413,0.19,-2.54,0.2,2.55
27.593204975128174,0.17,-2.38,0.41,2.42
27.607485055923462,0.27,-2.15,0.44,2.21
27.612589120864868,0.44,-1.9,0.32,1.97
27.623337030410767,0.63,-1.67,0.31,1.81
27.633141040802002,0.76,-1.35,0.48,1.62
27.643283128738403,0.81,-1.01,0.75,1.49
27.65816903114319,0.82,-0.67,0.96,1.42
27.662655115127563,0.83,-0.27,1.1,1.4
27.673516035079956,0.72,0.15,1.18,1.39
27.68299889564514,0.61,0.47,1.16,1.39
27.693415880203247,0.47,0.77,1.03,1.36
27.709040880203247,0.52,1.14,1.08,1.65
27.712849855422974,0.68,1.57,1.28,2.13
27.72334313392639,0.89,2.03,1.52,2.68
27.73301386833191,1.21,2.59,1.89,3.42
27.74348282814026,1.69,3.17,2.42,4.33
27.75883197784424,2.05,3.68,3.28,5.33
27.762715101242065,2.1,4.01,3.66,5.82
27.773442029953003,1.55,3.99,3.05,5.25
27.783061981201172,0.6,3.82,1.84,4.28
27.79336190223694,-0.24,3.92,0.72,3.99
27.80916404724121,-0.9,4.09,0.07,4.18
27.812878847122192,-1.32,3.93,-0.5,4.17
27.82356286048889,-1.39,3.45,-1.21,3.91
27.833192110061646,-1.25,3.09,-1.65,3.71
27.843240976333618,-0.86,2.63,-1.65,3.22
27.857159852981567,-0.64,1.8,-1.49,2.42
27.86246395111084,-0.58,0.92,-1.3,1.69
27.87282395362854,-0.69,0.29,-1.26,1.46
27.883190870285034,-1.11,-0.08,-1.51,1.87
27.893244981765747,-1.7,-0.13,-1.93,2.57
27.907034158706665,-2.09,0.08,-2.11,2.97
27.912718057632446,-2.24,0.52,-1.81,2.92
27.923421144485474,-2.09,1.02,-1.2,2.61
27.933120012283325,-1.78,1.44,-0.74,2.4
27.943055868148804,-1.32,1.67,-0.74,2.25
27.957448959350586,-0.87,1.61,-1.11,2.14
27.962790966033936,-0.46,1.37,-1.49,2.07
27.97344708442688,-0.18,0.99,-1.54,1.83
27.983117818832397,-0.02,0.51,-1.18,1.28
27.993535041809082,0.12,-0.04,-0.65,0.66
28.010091066360474,0.2,-0.57,-0.22,0.64
28.012858152389526,0.25,-1.15,-0.05,1.17
28.023494005203247,0.32,-1.73,-0.12,1.76
28.033264875411987,0.34,-2.28,-0.31,2.32
28.043419122695923,0.33,-2.75,-0.63,2.84
28.05951499938965,0.25,-3.15,-1.04,3.32
28.062744855880737,0.23,-3.49,-1.36,3.75
28.073565006256104,0.21,-3.66,-1.54,3.97
28.08320116996765,0.19,-3.68,-1.52,3.98
28.093435049057007,0.22,-3.56,-1.59,3.9
28.107134103775024,0.07,-3.42,-1.74,3.83
28.112775087356567,-0.06,-3.09,-1.28,3.34
28.122781991958618,0.08,-2.61,-0.47,2.65
28.1334969997406,0.12,-2.36,0.22,2.37
28.143105030059814,0.08,-2.23,0.31,2.25
28.15656304359436,0.0,-2.02,0.3,2.04
28.162686109542847,-0.09,-1.79,0.36,1.82
28.172899961471558,-0.32,-1.62,0.34,1.68
28.183547019958496,-0.51,-1.4,0.35,1.53
28.193344831466675,-0.68,-1.08,0.32,1.31
28.206927061080933,-0.71,-0.76,0.23,1.06
28.212748050689697,-0.71,-0.41,0.26,0.86
28.223518133163452,-0.7,-0.05,0.48,0.85
28.23338794708252,-0.64,0.26,0.86,1.1
28.243639945983887,-0.65,0.45,1.15,1.39
28.259202003479004,-0.66,0.53,1.3,1.55
28.26291298866272,-0.79,0.6,1.31,1.64
28.27346682548523,-0.95,0.59,1.19,1.63
28.28361487388611,-1.04,0.56,1.02,1.56
28.293646097183228,-1.07,0.58,0.83,1.47
28.309333086013794,-1.02,0.61,0.77,1.41
28.312875032424927,-0.85,0.68,0.89,1.4
28.32343602180481,-0.68,0.83,1.07,1.51
28.333707094192505,-0.49,1.02,1.17,1.62
28.343651056289673,-0.35,1.26,1.31,1.85
28.360651969909668,-0.23,1.52,1.62,2.23
28.3628351688385,-0.25,1.72,1.76,2.47
28.3737051486969,-0.35,1.99,1.65,2.6
28.38367486000061,-0.67,2.35,1.19,2.71
28.39379096031189,-0.75,2.79,0.6,2.95
28.408139944076538,-0.64,3.27,0.39,3.35
28.41265082359314,-0.5,3.72,-0.1,3.75
28.42290711402893,-0.28,3.69,-1.51,3.99
28.43357491493225,0.18,3.34,-2.96,4.46
28.44355607032776,0.7,3.01,-3.68,4.8
28.456966161727905,1.05,2.43,-3.32,4.24
28.46263289451599,1.23,1.74,-2.02,2.93
28.47360110282898,1.32,1.16,-0.72,1.89
28.484272003173828,1.19,0.62,-0.29,1.37
28.49390196800232,1.16,0.23,-0.57,1.31
28.508261919021606,1.27,0.13,-1.04,1.64
28.512732982635498,1.47,0.19,-1.32,1.98
28.522792100906372,1.46,0.37,-1.46,2.09
28.534016847610474,1.46,0.68,-1.32,2.08
28.543471097946167,1.36,1.01,-1.17,2.05
28.557904958724976,1.14,1.28,-1.24,2.11
28.56285786628723,0.97,1.3,-1.46,2.18
28.573020935058594,0.67,1.15,-1.65,2.11
28.58431887626648,0.51,0.89,-1.64,1.93
28.593421936035156,0.38,0.59,-1.4,1.56
28.608368158340454,0.31,0.19,-1.17,1.22
28.612950086593628,0.2,-0.3,-1.0,1.06
28.623565912246704,0.07,-0.7,-0.82,1.08
28.634127855300903,-0.1,-1.01,-0.73,1.25
28.64374089241028,-0.2,-1.27,-0.74,1.48
28.659827947616577,-0.34,-1.38,-0.83,1.64
28.662933111190796,-0.45,-1.49,-0.9,1.79
28.67302393913269,-0.46,-1.47,-0.91,1.78
28.68453097343445,-0.36,-1.38,-0.94,1.7
28.693392038345337,-0.16,-1.41,-1.11,1.8
28.707622051239014,-0.13,-1.57,-1.64,2.27
28.713037967681885,-0.23,-1.74,-1.61,2.38
28.722820043563843,0.05,-1.76,-1.17,2.11
28.734771013259888,0.16,-2.04,-0.62,2.13
28.7431800365448,0.46,-2.27,-0.6,2.39
28.75750994682312,0.63,-2.36,-0.91,2.6
28.762701988220215,0.67,-2.41,-1.04,2.7
28.772999048233032,0.66,-2.38,-1.11,2.7
28.784321069717407,0.54,-2.35,-0.92,2.58
28.793519973754883,0.53,-2.17,-0.62,2.31
28.808343172073364,0.55,-1.96,-0.42,2.07
28.81291699409485,0.55,-1.78,-0.32,1.89
28.823528051376343,0.64,-1.5,-0.16,1.63
28.834512948989868,0.77,-1.12,0.12,1.36
28.843798875808716,0.83,-0.68,0.45,1.16
28.859946966171265,0.83,-0.23,0.67,1.09
28.863005876541138,0.69,0.21,0.71,1.01
28.87376594543457,0.6,0.66,0.64,1.09
28.884490966796875,0.51,1.07,0.48,1.27
28.893869161605835,0.43,1.39,0.36,1.49
28.90994095802307,0.46,1.59,0.39,1.7
28.912927865982056,0.59,1.78,0.55,1.95
28.923655033111572,0.76,1.92,0.93,2.26
28.93438196182251,0.76,2.02,1.23,2.48
28.943938970565796,0.73,2.11,1.65,2.77
28.961246967315674,0.78,2.22,2.03,3.1
28.963003873825073,0.84,2.27,2.13,3.22
28.97360587120056,0.9,2.27,2.15,3.25
28.98459792137146,0.95,2.22,2.28,3.32
28.99361801147461,0.93,2.11,2.41,3.33
29.008347988128662,0.85,1.86,2.37,3.13
29.012952089309692,0.75,1.54,2.17,2.76
29.022937059402466,0.54,1.24,1.78,2.23
29.034982919692993,0.23,1.17,1.61,2.0
29.043508052825928,-0.1,1.28,1.57,2.02
29.058822870254517,-0.25,1.48,1.48,2.1
29.062927961349487,-0.37,1.68,1.16,2.07
29.07375407218933,-0.42,1.65,0.52,1.78
29.084895849227905,-0.44,1.49,-0.12,1.55
29.09347701072693,-0.54,1.24,-0.51,1.44
29.108914136886597,-0.61,0.88,-0.73,1.29
29.113083124160767,-0.7,0.41,-0.88,1.19
29.123661041259766,-0.78,-0.23,-1.15,1.4
29.134910821914673,-0.92,-0.91,-1.51,1.98
29.143748998641968,-1.15,-1.49,-1.71,2.54
29.158385038375854,-1.26,-1.83,-1.8,2.85
29.16284489631653,-1.26,-1.84,-1.82,2.87
29.173145055770874,-1.23,-1.56,-1.59,2.54
29.18527603149414,-1.29,-1.3,-1.25,2.21
29.193616151809692,-1.38,-0.99,-1.17,2.06
29.20958399772644,-1.42,-0.74,-1.35,2.09
29.21314311027527,-1.43,-0.54,-1.68,2.27
29.223778009414673,-1.25,-0.09,-2.01,2.36
29.23485493659973,-1.1,0.41,-1.97,2.29
29.243900060653687,-0.84,0.82,-1.6,1.98
29.258718013763428,-0.5,1.11,-0.98,1.56
29.262768983840942,-0.37,1.19,-0.04,1.24
29.27311682701111,-0.17,1.07,0.35,1.13
29.28494906425476,-0.08,0.82,0.35,0.89
29.293503046035767,-0.11,0.34,-0.1,0.37
29.3083598613739,-0.35,-0.18,-0.12,0.41
29.31296181678772,-0.38,-0.56,0.26,0.72
29.322899103164673,-0.38,-0.93,0.41,1.08
29.33499789237976,-0.06,-1.19,0.37,1.24
29.3435800075531,-0.05,-1.28,-0.01,1.28
29.36005187034607,0.14,-1.48,-0.42,1.54
29.362984895706177,0.01,-1.59,-0.75,1.75
29.374063968658447,-0.09,-1.64,-0.85,1.84
29.383158922195435,-0.17,-1.59,-0.84,1.8
29.39407706260681,-0.33,-1.5,-0.66,1.67
29.409382104873657,-0.42,-1.43,-0.4,1.54
29.413131952285767,-0.4,-1.31,-0.13,1.37
29.422950983047485,-0.45,-1.11,0.03,1.19
29.433954000473022,-0.5,-1.02,-0.08,1.13
29.444082021713257,-0.55,-0.96,-0.25,1.13
29.458554983139038,-0.64,-0.89,-0.28,1.13
29.46298909187317,-0.77,-0.8,-0.19,1.12
29.473116159439087,-0.86,-0.76,-0.14,1.15
29.48374104499817,-0.88,-0.68,-0.07,1.11
29.493695974349976,-0.85,-0.57,-0.01,1.02
29.50901198387146,-0.81,-0.42,0.13,0.92
29.51311993598938,-0.75,-0.28,0.26,0.84
29.52305293083191,-0.6,-0.17,0.25,0.67
29.53402590751648,-0.52,-0.01,0.37,0.63
29.54379391670227,-0.56,0.06,0.39,0.68
29.56011199951172,-0.72,-0.03,0.18,0.74
29.56303906440735,-0.86,-0.07,-0.1,0.86
29.574025869369507,-0.9,-0.02,-0.24,0.93
29.58337092399597,-0.91,0.14,-0.03,0.92
29.593979120254517,-0.82,0.35,0.33,0.95
29.60951805114746,-0.73,0.82,0.81,1.36
29.61313509941101,-0.69,1.48,1.29,2.08
29.62304711341858,-0.72,2.1,1.36,2.6
29.63420295715332,-0.67,2.41,0.9,2.65
29.64385199546814,-0.23,2.49,-0.34,2.52
29.659393072128296,-0.24,3.03,-1.69,3.47
29.663071870803833,-0.16,3.37,-1.85,3.84
29.673187971115112,0.09,3.34,-1.51,3.66
29.683822870254517,0.67,3.18,-1.13,3.44
29.693910837173462,0.87,2.96,-0.52,3.12
29.709682941436768,0.78,2.43,0.13,2.55
29.71293807029724,0.56,1.87,0.42,1.99
29.72305989265442,0.33,1.36,0.24,1.41
29.734058141708374,0.18,0.91,-0.3,0.97
29.744050979614258,0.05,0.5,-0.85,0.98
29.759970903396606,-0.06,0.05,-1.29,1.29
29.76322102546692,-0.24,-0.35,-1.49,1.54
29.77317786216736,-0.24,-0.72,-1.66,1.82
29.784119844436646,-0.11,-0.99,-1.83,2.08
29.794214963912964,0.06,-1.27,-1.94,2.31
29.809144973754883,0.27,-1.46,-1.85,2.37
29.813410997390747,0.55,-1.58,-1.75,2.42
29.823040008544922,0.73,-1.56,-1.69,2.41
29.833810091018677,1.0,-1.44,-1.67,2.42
29.843642950057983,1.11,-1.22,-1.54,2.25
29.85903286933899,1.16,-0.89,-1.33,1.97
29.863083124160767,1.14,-0.46,-1.2,1.71
29.873178005218506,1.0,-0.08,-1.49,1.79
29.883772134780884,0.55,0.23,-2.06,2.14
29.89394211769104,0.18,0.57,-1.94,2.02
29.910274982452393,0.13,1.01,-1.51,1.82
29.91322898864746,0.26,1.38,-0.82,1.62
29.923737049102783,0.57,1.57,-0.84,1.86
29.933439016342163,0.74,1.53,-1.13,2.04
29.944206953048706,0.8,1.38,-1.26,2.03
29.960363149642944,0.67,1.14,-1.19,1.77
29.96315598487854,0.43,0.82,-1.04,1.39
29.973740816116333,0.31,0.52,-0.86,1.05
29.983280897140503,0.19,0.31,-0.7,0.78
29.994322061538696,0.27,0.11,-0.61,0.67
30.027867078781128,0.28,0.07,-0.58,0.64
30.028828859329224,0.42,0.06,-0.6,0.73
30.029799938201904,0.48,0.11,-0.73,0.88
30.03349804878235,0.47,0.13,-0.84,0.97
30.043995141983032,0.43,0.15,-0.95,1.05
30.06026601791382,0.38,0.24,-1.09,1.17
30.063045978546143,0.34,0.27,-1.21,1.28
30.07314896583557,0.37,0.27,-1.31,1.38
30.08415913581848,0.49,0.18,-1.34,1.43
30.094018936157227,0.64,0.23,-1.21,1.38
30.109665155410767,0.67,0.18,-1.12,1.31
30.113176107406616,0.76,0.1,-1.31,1.51
30.12314796447754,0.86,0.09,-1.44,1.67
30.134068965911865,0.88,0.1,-1.35,1.61
30.143850088119507,0.8,-0.01,-1.34,1.56
30.160397052764893,0.71,-0.09,-1.36,1.53
30.163169145584106,0.62,0.02,-1.32,1.45
30.173985958099365,0.58,0.12,-1.18,1.32
30.18398094177246,0.54,0.23,-0.97,1.13
30.193915128707886,0.56,0.37,-0.71,0.97
30.211232900619507,0.67,0.55,-0.48,0.99
30.213161945343018,0.67,0.7,-0.34,1.02
30.223192930221558,0.51,0.83,-0.28,1.01
30.233383893966675,0.31,0.98,-0.22,1.05
30.49868416786194,0.1,1.14,-0.14,1.15
30.502978086471558,-0.03,1.2,-0.07,1.2
30.50377893447876,-0.27,1.15,0.0,1.18
30.504585027694702,-0.44,0.99,-0.08,1.08
