time,ax,ay,az,atotal
0.037016868591308594,0.12,-0.33,0.01,0.35
0.03761482238769531,-0.05,0.03,0.21,0.21
0.03829193115234375,-0.1,0.1,0.24,0.27
0.04171609878540039,-0.14,0.11,0.18,0.25
0.04365110397338867,-0.15,0.11,0.09,0.2
0.055214881896972656,-0.14,0.09,-0.02,0.16
0.06377291679382324,-0.13,0.05,-0.11,0.17
0.0736379623413086,-0.08,0.04,-0.15,0.17
0.08854293823242188,0.03,0.03,-0.12,0.12
0.09365701675415039,0.1,-0.02,-0.06,0.11
0.103759765625,0.15,-0.03,0.03,0.15
0.11361289024353027,0.13,-0.02,0.08,0.15
0.1237030029296875,0.11,-0.02,0.04,0.11
0.1389141082763672,0.06,-0.01,0.03,0.06
0.1437840461730957,0.01,-0.03,0.02,0.03
0.1536259651184082,0.0,-0.06,0.03,0.06
0.16354703903198242,0.01,-0.08,0.05,0.09
0.17363405227661133,0.01,-0.08,0.06,0.1
0.18870997428894043,0.01,-0.04,0.05,0.06
0.19370079040527344,0.04,0.01,0.01,0.04
0.20394277572631836,0.06,0.08,-0.04,0.1
0.21378183364868164,0.06,0.09,-0.05,0.11
0.22400808334350586,0.08,0.11,-0.01,0.13
0.24378395080566406,0.06,0.06,0.03,0.09
0.24451780319213867,0.08,0.01,0.05,0.09
0.2537989616394043,0.09,0.0,0.05,0.1
0.2638697624206543,0.08,-0.01,0.02,0.08
0.27460289001464844,0.07,-0.01,0.03,0.07
0.2918829917907715,0.08,-0.02,0.07,0.1
0.2937009334564209,0.09,-0.02,0.11,0.14
0.3039131164550781,0.07,0.0,0.11,0.13
0.31474876403808594,0.06,0.02,0.07,0.09
0.32471179962158203,0.05,0.02,0.04,0.06
0.3426549434661865,0.05,0.06,0.03,0.08
0.34382104873657227,0.05,0.05,0.04,0.08
0.35443592071533203,0.04,0.03,0.07,0.08
0.3645169734954834,0.04,0.07,0.04,0.09
0.3751099109649658,0.04,0.08,0.0,0.08
0.3916130065917969,0.04,0.04,-0.06,0.08
0.3938717842102051,0.07,-0.03,-0.11,0.13
0.4043760299682617,0.09,-0.06,-0.08,0.13
0.41457390785217285,0.08,-0.06,0.0,0.1
0.4249749183654785,0.06,-0.06,0.1,0.13
0.44165992736816406,0.07,-0.07,0.16,0.18
0.443911075592041,0.05,-0.06,0.18,0.19
0.45450305938720703,0.06,-0.03,0.15,0.16
0.46459484100341797,0.05,-0.01,0.08,0.09
0.47515392303466797,0.05,0.0,0.01,0.05
0.49369096755981445,0.03,0.03,-0.07,0.08
0.4944148063659668,0.04,0.06,-0.1,0.12
0.5038869380950928,0.05,0.1,-0.11,0.15
0.5145649909973145,0.03,0.1,-0.07,0.12
0.5248508453369141,0.02,0.07,0.01,0.07
0.5422019958496094,0.0,0.03,0.09,0.09
0.5439939498901367,-0.01,-0.01,0.13,0.13
0.5547549724578857,0.02,0.0,0.12,0.12
0.5645308494567871,0.01,0.0,0.08,0.08
0.5749788284301758,0.02,-0.02,0.02,0.03
0.5920419692993164,0.05,0.0,0.01,0.05
0.5938200950622559,0.03,0.0,0.02,0.03
0.603996992111206,0.03,0.0,0.02,0.03
0.614703893661499,0.04,-0.02,-0.01,0.04
0.6249837875366211,0.05,-0.03,-0.08,0.09
0.6417570114135742,0.04,-0.04,-0.08,0.09
0.6438651084899902,0.04,-0.04,-0.03,0.06
0.6546449661254883,0.04,-0.06,0.01,0.07
0.6646289825439453,0.05,-0.08,0.09,0.13
0.6751449108123779,0.04,-0.1,0.14,0.17
0.6921999454498291,0.04,-0.09,0.14,0.17
0.693850040435791,0.02,-0.11,0.13,0.17
0.7039570808410645,0.02,-0.13,0.07,0.14
0.714824914932251,0.04,-0.2,-0.01,0.2
0.7248499393463135,0.06,-0.23,-0.03,0.23
0.7420399188995361,0.11,-0.26,0.02,0.28
0.743994951248169,0.15,-0.32,0.16,0.38
0.753931999206543,0.2,-0.36,0.35,0.54
0.7648279666900635,0.25,-0.37,0.51,0.67
0.7750179767608643,0.33,-0.32,0.61,0.76
0.7922389507293701,0.41,-0.21,0.7,0.83
0.7939457893371582,0.48,-0.11,0.74,0.88
0.8048479557037354,0.51,-0.07,0.67,0.84
0.8146688938140869,0.52,0.0,0.53,0.74
0.8251619338989258,0.45,0.03,0.46,0.64
0.8421168327331543,0.34,-0.01,0.39,0.51
0.8440418243408203,0.25,-0.04,0.4,0.47
0.854017972946167,0.18,-0.12,0.47,0.51
0.8648710250854492,0.16,-0.17,0.58,0.62
0.8748641014099121,0.16,-0.24,0.67,0.72
0.8924129009246826,0.23,-0.29,0.75,0.83
0.8939669132232666,0.28,-0.32,0.84,0.94
0.9047861099243164,0.3,-0.31,0.88,0.98
0.914625883102417,0.24,-0.33,0.84,0.93
0.9251949787139893,0.25,-0.38,0.78,0.9
0.9425468444824219,0.29,-0.43,0.7,0.87
0.9439709186553955,0.29,-0.45,0.66,0.84
0.953977108001709,0.27,-0.48,0.66,0.85
0.9645869731903076,0.27,-0.48,0.65,0.85
0.9751439094543457,0.28,-0.49,0.64,0.85
0.992285966873169,0.28,-0.53,0.59,0.84
0.9939627647399902,0.3,-0.57,0.49,0.8
1.0041117668151855,0.27,-0.64,0.35,0.77
1.0148169994354248,0.27,-0.7,0.23,0.78
1.0248970985412598,0.24,-0.79,0.19,0.84
1.0426089763641357,0.14,-0.87,0.25,0.91
1.0441250801086426,-0.01,-0.91,0.39,0.99
1.0549728870391846,-0.19,-0.87,0.6,1.07
1.0645880699157715,-0.32,-0.73,0.84,1.15
1.0751619338989258,-0.45,-0.5,1.08,1.27
1.0921630859375,-0.57,-0.22,1.33,1.46
1.0940089225769043,-0.65,0.07,1.51,1.64
1.104741096496582,-0.63,0.31,1.56,1.71
1.1145758628845215,-0.61,0.45,1.46,1.64
1.125168800354004,-0.6,0.53,1.21,1.45
1.142502784729004,-0.52,0.6,0.95,1.23
1.144089937210083,-0.44,0.68,0.78,1.12
1.1549630165100098,-0.3,0.72,0.79,1.11
1.1646537780761719,-0.13,0.68,0.98,1.19
1.1751270294189453,0.05,0.59,1.22,1.35
1.192929983139038,0.16,0.43,1.39,1.46
1.193985939025879,0.27,0.18,1.38,1.41
1.2039868831634521,0.31,-0.16,1.21,1.25
1.2149667739868164,0.4,-0.34,1.02,1.14
1.2251698970794678,0.42,-0.45,0.89,1.08
1.243088960647583,0.38,-0.57,0.84,1.08
1.2441189289093018,0.29,-0.63,0.92,1.15
1.255073070526123,0.21,-0.7,1.02,1.25
1.2647628784179688,0.12,-0.72,1.04,1.27
1.2753159999847412,-0.04,-0.79,1.07,1.33
1.2932078838348389,-0.09,-0.79,1.16,1.4
1.294029951095581,-0.17,-0.79,1.2,1.44
1.3048930168151855,-0.21,-0.8,1.16,1.42
1.31477689743042,-0.24,-0.79,1.1,1.37
1.3250908851623535,-0.27,-0.74,0.99,1.26
1.3428668975830078,-0.26,-0.69,0.9,1.16
1.3440618515014648,-0.2,-0.69,0.86,1.12
1.3538799285888672,-0.2,-0.73,0.86,1.14
1.364926815032959,-0.17,-0.77,0.96,1.24
1.374959945678711,-0.17,-0.78,1.06,1.32
1.393165111541748,-0.19,-0.75,1.17,1.4
1.3940529823303223,-0.23,-0.72,1.3,1.5
1.4040029048919678,-0.23,-0.69,1.36,1.54
1.4147720336914062,-0.23,-0.6,1.38,1.52
1.425224781036377,-0.25,-0.48,1.36,1.46
1.443772792816162,-0.29,-0.39,1.36,1.44
1.444532871246338,-0.37,-0.3,1.37,1.45
1.4542608261108398,-0.4,-0.21,1.4,1.47
1.4650530815124512,-0.33,-0.11,1.47,1.51
1.4751029014587402,-0.28,-0.09,1.52,1.54
1.4936161041259766,-0.23,-0.06,1.6,1.61
1.494379997253418,-0.18,0.05,1.66,1.67
1.504072904586792,-0.15,0.18,1.62,1.63
1.5149219036102295,-0.13,0.27,1.49,1.51
1.5248899459838867,-0.1,0.37,1.4,1.45
1.543698787689209,-0.14,0.47,1.4,1.48
1.5444469451904297,-0.2,0.58,1.51,1.62
1.5542030334472656,-0.3,0.75,1.66,1.84
1.5649089813232422,-0.37,0.97,1.76,2.04
1.574765920639038,-0.4,1.25,1.76,2.19
1.5932729244232178,-0.37,1.68,1.82,2.5
1.5940790176391602,-0.33,2.01,1.9,2.78
1.6041488647460938,-0.34,2.11,1.77,2.77
1.6150388717651367,-0.17,2.4,1.44,2.8
1.6248159408569336,-0.05,2.88,1.08,3.07
1.6429529190063477,-0.08,3.19,0.68,3.26
1.6441519260406494,-0.08,3.11,0.14,3.11
1.6542389392852783,-0.02,2.84,-0.59,2.9
1.6649980545043945,-0.01,2.4,-1.58,2.87
1.6749730110168457,-0.02,1.82,-2.49,3.08
1.6944408416748047,-0.02,1.19,-3.09,3.31
1.6951770782470703,0.0,0.51,-3.11,3.15
1.7049739360809326,-0.1,-0.27,-2.54,2.55
1.714569091796875,-0.19,-1.08,-1.76,2.07
1.725275993347168,-0.21,-1.61,-0.89,1.85
1.7436180114746094,-0.23,-1.83,-0.09,1.84
1.7443649768829346,-0.19,-1.8,0.51,1.88
1.754288911819458,-0.1,-1.75,0.86,1.95
1.765136957168579,0.05,-1.71,0.87,1.91
1.7748770713806152,0.22,-1.64,0.63,1.77
1.7934019565582275,0.37,-1.48,0.2,1.53
1.7942039966583252,0.53,-1.26,-0.31,1.4
1.804250955581665,0.65,-0.97,-0.76,1.39
1.8150711059570312,0.67,-0.66,-0.96,1.34
1.8248159885406494,0.57,-0.45,-0.97,1.21
1.8434209823608398,0.35,-0.29,-0.82,0.93
1.844235897064209,0.12,-0.25,-0.61,0.67
1.854292869567871,-0.05,-0.31,-0.31,0.44
1.864832878112793,-0.17,-0.4,0.11,0.44
1.874866008758545,-0.19,-0.58,0.65,0.89
1.8931927680969238,-0.24,-0.82,1.22,1.48
1.8941218852996826,-0.29,-1.05,1.59,1.92
1.904308795928955,-0.3,-1.23,1.77,2.17
1.9151298999786377,-0.32,-1.39,1.73,2.24
1.9248638153076172,-0.25,-1.43,1.57,2.13
1.94382905960083,-0.16,-1.38,1.24,1.86
1.9445788860321045,0.0,-1.26,0.8,1.49
1.9543280601501465,0.15,-1.15,0.39,1.22
1.9651389122009277,0.29,-1.08,0.12,1.12
1.9748179912567139,0.42,-1.09,0.04,1.16
1.9925508499145508,0.56,-1.14,0.1,1.27
1.9942469596862793,0.64,-1.24,0.27,1.42
2.0043540000915527,0.65,-1.35,0.53,1.58
2.0151469707489014,0.67,-1.45,0.84,1.8
2.024888038635254,0.63,-1.56,1.14,2.03
2.0434629917144775,0.61,-1.56,1.39,2.17
2.044312000274658,0.52,-1.48,1.57,2.21
2.054302930831909,0.47,-1.36,1.66,2.19
2.0651588439941406,0.41,-1.22,1.62,2.06
2.0749120712280273,0.4,-1.06,1.44,1.83
2.0845980644226074,0.41,-0.84,1.22,1.53
2.09506893157959,0.39,-0.5,1.08,1.25
2.1043448448181152,0.34,-0.05,1.06,1.11
2.1151270866394043,0.18,0.42,1.19,1.27
2.125309944152832,-0.07,0.8,1.32,1.54
2.134615898132324,-0.27,1.07,1.42,1.79
2.1450510025024414,-0.17,1.6,1.52,2.21
2.1549110412597656,0.12,2.29,1.75,2.88
2.1644678115844727,0.39,2.91,2.26,3.7
2.1751480102539062,0.6,3.55,2.94,4.64
2.1844029426574707,0.36,3.91,3.02,4.95
2.1951589584350586,0.11,3.74,2.35,4.41
2.204373836517334,0.02,4.26,1.47,4.5
2.215179920196533,-0.14,4.94,0.4,4.95
2.224900960922241,-0.37,4.73,-1.1,4.87
2.2345080375671387,-0.66,3.72,-2.94,4.78
2.2445549964904785,-0.73,2.64,-4.6,5.35
2.254404067993164,-0.71,1.58,-5.67,5.92
2.2650399208068848,-0.63,0.73,-5.52,5.6
2.274850845336914,-0.65,0.31,-3.87,3.93
2.2845988273620605,-0.6,0.12,-1.07,1.23
2.2944960594177246,-0.47,-0.36,1.38,1.5
2.3043479919433594,-0.35,-0.91,2.73,2.89
2.3151979446411133,-0.06,-1.04,3.15,3.31
2.3252248764038086,0.0,-0.99,2.45,2.64
2.334533929824829,0.05,-0.87,1.02,1.34
2.3450307846069336,0.1,-0.62,-0.43,0.76
2.3542380332946777,0.1,-0.28,-1.47,1.49
2.3651790618896484,0.01,-0.22,-2.05,2.06
2.374988079071045,-0.09,-0.36,-2.26,2.29
2.3843908309936523,-0.15,-0.54,-2.22,2.28
2.3944320678710938,-0.17,-0.7,-1.99,2.11
2.4043660163879395,-0.2,-0.93,-1.62,1.87
2.415247917175293,-0.27,-1.29,-1.13,1.73
2.424971103668213,-0.28,-1.62,-0.54,1.73
2.4344868659973145,-0.3,-1.92,0.0,1.94
2.44451904296875,-0.24,-2.16,0.42,2.21
2.4543938636779785,-0.2,-2.36,0.59,2.44
2.465235948562622,-0.29,-2.5,0.47,2.56
2.4748449325561523,-0.29,-2.55,0.25,2.57
2.4845690727233887,-0.35,-2.52,0.1,2.54
2.4946439266204834,-0.42,-2.49,0.02,2.52
2.505270004272461,-0.46,-2.46,0.0,2.5
2.5147249698638916,-0.47,-2.38,-0.02,2.42
2.5249857902526855,-0.49,-2.3,-0.02,2.35
2.534672975540161,-0.54,-2.19,0.05,2.25
2.5449249744415283,-0.56,-2.01,0.26,2.1
2.5544469356536865,-0.6,-1.79,0.58,1.97
2.565025806427002,-0.61,-1.49,0.88,1.83
2.5749049186706543,-0.6,-1.16,1.05,1.67
2.584671974182129,-0.61,-0.93,1.05,1.52
2.595090866088867,-0.58,-0.74,0.95,1.33
2.604334831237793,-0.52,-0.55,0.87,1.15
2.6152288913726807,-0.51,-0.29,0.88,1.05
2.6249868869781494,-0.43,0.03,0.93,1.02
2.634659767150879,-0.38,0.41,1.01,1.15
2.6451640129089355,-0.33,0.92,1.15,1.5
2.654327869415283,-0.2,1.5,1.31,2.0
2.665256977081299,-0.01,2.06,1.4,2.49
2.675055980682373,0.2,2.61,1.32,2.93
2.684570789337158,0.16,2.95,1.09,3.14
2.694520950317383,0.06,2.92,0.78,3.02
2.704281806945801,0.02,2.71,0.37,2.73
2.7152838706970215,-0.1,2.69,0.2,2.69
2.7250139713287354,-0.26,3.2,0.84,3.31
2.734579086303711,-0.43,3.33,1.45,3.65
2.7446138858795166,-0.41,2.77,1.41,3.13
2.754377841949463,-0.15,3.08,1.09,3.27
2.7653188705444336,-0.01,3.95,0.66,4.0
2.7754499912261963,0.2,4.02,-0.35,4.04
2.784553050994873,0.84,3.05,-1.7,3.59
2.7947888374328613,1.46,2.14,-2.73,3.76
2.804370880126953,1.69,1.59,-3.14,3.9
2.815258026123047,1.81,0.91,-2.8,3.45
2.825089931488037,1.57,0.26,-1.92,2.49
2.834723949432373,1.25,-0.28,-0.77,1.49
2.844532012939453,0.8,-0.64,0.22,1.04
2.8543548583984375,0.27,-0.76,0.7,1.06
2.865324020385742,-0.17,-0.7,0.62,0.95
2.8750438690185547,-0.45,-0.72,0.2,0.87
2.8848180770874023,-0.54,-0.82,-0.33,1.03
2.8949029445648193,-0.55,-0.79,-0.84,1.27
2.9043688774108887,-0.44,-0.78,-1.19,1.48
2.91530179977417,-0.33,-0.91,-1.44,1.73
2.925421953201294,-0.13,-1.06,-1.52,1.85
2.934689998626709,-0.06,-1.23,-1.46,1.91
2.9446589946746826,0.02,-1.43,-1.26,1.9
2.954425811767578,0.12,-1.68,-0.87,1.89
2.965118885040283,0.08,-1.98,-0.45,2.03
2.9751200675964355,0.1,-2.23,0.04,2.23
2.98464298248291,0.04,-2.31,0.5,2.36
2.994558811187744,-0.06,-2.25,0.85,2.4
3.004528045654297,-0.07,-2.18,0.92,2.36
3.0152320861816406,0.02,-2.06,0.82,2.21
3.0250589847564697,0.12,-1.97,0.54,2.04
3.0347769260406494,0.2,-1.93,0.13,1.94
3.0447731018066406,0.31,-1.84,-0.4,1.9
3.05438494682312,0.35,-1.7,-0.87,1.94
3.0653719902038574,0.33,-1.56,-1.13,1.95
3.0750818252563477,0.28,-1.44,-1.02,1.78
3.084723949432373,0.26,-1.33,-0.55,1.46
3.0945229530334473,0.24,-1.24,0.03,1.26
3.10451602935791,0.28,-1.25,0.55,1.39
3.1152799129486084,0.27,-1.28,0.83,1.54
3.125153064727783,0.3,-1.21,0.94,1.56
3.1346540451049805,0.3,-1.0,0.98,1.43
3.1447999477386475,0.33,-0.63,1.12,1.32
3.1544060707092285,0.35,-0.22,1.23,1.29
3.1653308868408203,0.32,0.2,1.27,1.32
3.1752889156341553,0.27,0.59,1.26,1.41
3.1850857734680176,0.04,0.87,1.2,1.48
3.196046829223633,0.05,1.06,0.93,1.41
3.2049760818481445,-0.05,1.61,0.81,1.8
3.214977979660034,0.18,2.14,0.94,2.34
3.225243091583252,0.66,2.14,1.21,2.54
3.2345528602600098,0.93,2.09,1.58,2.78
3.2448830604553223,1.28,2.71,2.35,3.8
3.2544498443603516,1.25,3.1,2.71,4.3
3.2654128074645996,0.98,2.9,1.85,3.57
3.2752749919891357,0.45,3.29,0.36,3.34
3.284648895263672,-0.21,3.83,-1.23,4.02
3.294778823852539,-0.71,3.67,-2.72,4.62
3.3044281005859375,-1.11,3.3,-3.85,5.19
3.3153038024902344,-1.43,2.88,-3.95,5.09
3.3251259326934814,-1.54,2.46,-2.96,4.14
3.334667921066284,-1.46,1.87,-1.43,2.77
3.34478497505188,-1.17,1.28,-0.21,1.74
3.3544321060180664,-0.82,0.81,0.2,1.16
3.365180015563965,-0.38,0.5,-0.07,0.63
3.3752338886260986,0.07,0.18,-0.5,0.53
3.3846940994262695,0.17,0.13,-1.0,1.02
3.3947300910949707,0.48,-0.07,-1.15,1.24
3.4044458866119385,0.51,-0.24,-1.21,1.33
3.415165901184082,0.35,-0.52,-1.18,1.33
3.4252209663391113,0.12,-0.69,-1.13,1.32
3.4346818923950195,-0.15,-0.84,-1.15,1.43
3.444905996322632,-0.38,-0.99,-1.16,1.57
3.454479932785034,-0.52,-1.15,-1.09,1.66
3.46533203125,-0.61,-1.36,-0.93,1.75
3.4750449657440186,-0.61,-1.61,-0.58,1.81
3.4846620559692383,-0.57,-1.84,-0.12,1.93
3.494800090789795,-0.46,-2.05,0.33,2.12
3.504488945007324,-0.37,-2.28,0.57,2.37
3.5153918266296387,-0.26,-2.49,0.6,2.57
3.5252199172973633,-0.25,-2.64,0.47,2.69
3.5347659587860107,-0.28,-2.69,0.25,2.71
3.544935941696167,-0.36,-2.6,0.09,2.62
3.554500102996826,-0.43,-2.45,-0.08,2.48
3.5652549266815186,-0.47,-2.33,-0.24,2.38
3.575303077697754,-0.56,-2.1,-0.34,2.19
3.5847220420837402,-0.53,-2.15,-0.31,2.23
3.5947370529174805,-0.51,-2.16,-0.2,2.22
3.6045398712158203,-0.48,-2.13,0.05,2.18
3.615367889404297,-0.4,-1.92,0.43,2.0
3.625375986099243,-0.38,-1.77,0.76,1.96
3.634654998779297,-0.27,-1.44,1.1,1.83
3.6448140144348145,-0.26,-1.23,1.28,1.79
3.6545209884643555,-0.16,-0.92,1.4,1.68
3.665414810180664,-0.15,-0.43,1.43,1.5
3.6752519607543945,-0.12,0.0,1.31,1.31
3.6847479343414307,0.0,0.43,1.18,1.25
3.6947131156921387,0.07,0.92,1.06,1.4
3.704482078552246,0.1,1.49,0.84,1.71
3.7154197692871094,0.26,1.94,0.42,2.0
3.7252399921417236,0.29,2.27,-0.09,2.29
3.7346699237823486,0.16,2.56,-0.46,2.6
3.7447259426116943,-0.09,2.65,-0.75,2.75
3.754509925842285,-0.29,2.67,-0.8,2.8
3.7655038833618164,-0.45,2.99,-0.12,3.02
3.7752938270568848,-0.49,3.64,1.24,3.87
3.784991979598999,-0.32,3.48,1.83,3.94
3.7947120666503906,0.04,2.86,1.31,3.14
3.8045411109924316,0.43,3.26,0.49,3.32
3.8154659271240234,0.84,3.88,-0.37,3.98
3.8251757621765137,1.2,3.87,-1.38,4.28
3.834760904312134,1.79,3.16,-2.21,4.25
3.8447909355163574,2.19,2.3,-2.54,4.06
3.8551268577575684,2.05,1.17,-2.39,3.35
3.8650360107421875,1.82,0.25,-1.61,2.44
3.875485897064209,1.25,-0.24,-0.83,1.51
3.884881019592285,0.79,-0.43,-0.44,1.0
3.8947489261627197,0.2,-0.38,-0.46,0.62
3.9046099185943604,-0.24,-0.25,-0.54,0.64
3.9155287742614746,-0.5,-0.23,-0.6,0.81
3.925539970397949,-0.59,-0.29,-0.57,0.87
3.934908866882324,-0.62,-0.4,-0.77,1.06
3.9447760581970215,-0.5,-0.47,-1.02,1.22
3.9545698165893555,-0.25,-0.51,-1.12,1.25
3.965569019317627,0.01,-0.71,-1.11,1.31
3.975219964981079,0.15,-1.01,-0.99,1.42
3.9850969314575195,0.17,-1.25,-0.85,1.52
3.9949169158935547,0.28,-1.42,-0.71,1.61
4.004535913467407,0.34,-1.61,-0.63,1.76
4.013946056365967,0.39,-1.83,-0.45,1.92
4.023987770080566,0.22,-2.0,-0.04,2.01
4.033580780029297,-0.01,-2.1,0.4,2.13
4.044520854949951,-0.1,-2.14,0.73,2.26
4.0534348487854,-0.21,-2.21,0.76,2.34
4.064167022705078,-0.36,-2.32,0.46,2.39
4.074261903762817,-0.42,-2.36,0.08,2.39
4.0836169719696045,-0.37,-2.31,-0.22,2.34
4.094266891479492,-0.24,-2.21,-0.46,2.27
4.104635000228882,-0.09,-2.08,-0.6,2.16
4.114051818847656,0.03,-2.05,-0.58,2.13
4.124705791473389,0.11,-2.08,-0.25,2.09
4.133496999740601,0.16,-2.1,0.26,2.12
4.1441497802734375,0.12,-2.07,0.83,2.23
4.154624938964844,0.19,-1.94,1.35,2.37
4.163736820220947,0.24,-1.65,1.68,2.36
4.174113988876343,0.31,-1.27,1.79,2.21
4.1835548877716064,0.41,-0.85,1.74,1.97
4.195198059082031,0.44,-0.41,1.65,1.75
4.204251766204834,0.47,0.06,1.48,1.55
4.21406888961792,0.4,0.54,1.29,1.45
4.224267959594727,0.34,0.92,1.0,1.4
4.2335100173950195,0.19,1.22,0.65,1.39
4.244184970855713,0.04,1.78,0.62,1.88
4.254769802093506,0.15,2.46,0.98,2.65
4.263710975646973,0.5,2.71,1.25,3.02
4.2742719650268555,0.79,2.49,1.02,2.8
4.283468961715698,1.07,2.49,0.58,2.77
4.295162916183472,1.25,3.49,0.83,3.79
4.305105924606323,0.96,4.32,1.05,4.54
4.313875913619995,0.28,3.84,0.34,3.86
4.324754953384399,-0.26,3.52,-0.68,3.59
4.333794116973877,-0.78,3.86,-1.78,4.32
4.345192909240723,-1.14,3.84,-2.65,4.8
4.354729890823364,-1.61,2.8,-2.9,4.34
4.363919973373413,-1.8,1.82,-2.27,3.42
4.373857021331787,-1.78,1.43,-0.87,2.44
4.3835768699646,-1.47,1.09,0.47,1.88
4.397260904312134,-1.08,0.78,1.31,1.86
4.4077489376068115,-0.87,0.48,1.28,1.62
4.417684078216553,-0.38,0.41,0.68,0.88
4.428131103515625,0.13,0.68,-0.26,0.73
4.445717811584473,0.6,0.8,-1.38,1.7
4.447419881820679,0.8,0.71,-2.25,2.49
4.458080768585205,0.73,0.55,-2.56,2.71
4.467645883560181,0.59,0.23,-2.6,2.67
4.478355884552002,0.33,-0.11,-2.48,2.5
4.496629953384399,0.09,-0.51,-2.14,2.2
4.497501850128174,-0.09,-1.06,-1.64,1.95
4.507288932800293,-0.24,-1.6,-1.07,1.93
4.518160820007324,-0.34,-2.05,-0.48,2.13
4.528424978256226,-0.37,-2.5,0.04,2.52
4.547149896621704,-0.43,-2.87,0.46,2.93
4.547875881195068,-0.4,-3.09,0.77,3.2
4.557069778442383,-0.4,-3.22,0.78,3.33
4.568019866943359,-0.38,-3.27,0.58,3.34
4.5782318115234375,-0.32,-3.21,0.32,3.24
4.5952959060668945,-0.35,-3.1,0.04,3.11
4.597170829772949,-0.4,-2.95,-0.2,2.98
4.6072678565979,-0.44,-2.74,-0.35,2.79
4.618112087249756,-0.46,-2.54,-0.41,2.61
4.627880096435547,-0.44,-2.32,-0.38,2.39
4.645733833312988,-0.41,-2.07,-0.29,2.13
4.647342920303345,-0.42,-1.83,-0.1,1.88
4.657092094421387,-0.42,-1.51,0.22,1.58
4.668017864227295,-0.42,-1.2,0.58,1.39
4.6782519817352295,-0.43,-0.91,0.88,1.33
4.695964813232422,-0.4,-0.69,1.13,1.38
4.697195053100586,-0.4,-0.52,1.2,1.36
4.707391977310181,-0.43,-0.17,1.28,1.36
4.718199968338013,-0.45,0.25,1.25,1.35
4.728150844573975,-0.42,0.7,0.98,1.27
4.745604038238525,-0.28,1.22,0.75,1.45
4.747474908828735,-0.17,1.76,0.57,1.85
4.757286071777344,-0.03,2.18,0.39,2.21
4.768187046051025,0.09,2.5,0.11,2.5
4.778194904327393,-0.05,2.55,-0.36,2.57
4.796961784362793,-0.26,2.5,-0.8,2.63
4.797698974609375,-0.52,2.89,-0.52,2.98
4.807929992675781,-0.71,3.76,0.43,3.85
4.817575931549072,-0.87,3.85,0.95,4.05
4.828176975250244,-0.83,3.63,0.78,3.8
4.845969915390015,-0.36,4.22,0.68,4.28
4.8474509716033936,0.16,4.42,0.03,4.42
4.858072996139526,0.84,3.38,-1.58,3.82
4.867573976516724,1.57,2.33,-3.05,4.14
4.8784019947052,2.14,1.77,-3.62,4.56
4.895476818084717,2.36,1.23,-3.14,4.11
4.897284984588623,2.23,0.69,-1.63,2.84
4.907399892807007,1.92,0.09,0.07,1.92
4.918199062347412,1.6,-0.45,1.21,2.05
4.928299903869629,1.22,-0.54,1.55,2.04
4.945754051208496,0.88,-0.33,0.98,1.35
4.947478771209717,0.62,-0.11,-0.11,0.63
4.957398891448975,0.39,0.03,-1.08,1.14
4.968260765075684,0.18,0.09,-1.64,1.65
4.978213787078857,-0.08,0.05,-1.86,1.86
4.996120929718018,-0.28,-0.06,-1.85,1.87
4.9973320960998535,-0.46,-0.28,-1.77,1.85
5.0081048011779785,-0.52,-0.6,-1.59,1.77
5.017862796783447,-0.55,-0.89,-1.26,1.63
5.0285468101501465,-0.59,-1.21,-0.82,1.57
5.046502113342285,-0.62,-1.59,-0.32,1.73
5.047390937805176,-0.55,-2.0,0.16,2.08
5.057496070861816,-0.45,-2.33,0.52,2.42
5.068515777587891,-0.28,-2.58,0.59,2.66
5.078519821166992,-0.07,-2.7,0.52,2.75
5.097314834594727,0.05,-2.67,0.35,2.69
5.098021984100342,0.12,-2.55,0.14,2.55
5.107440948486328,0.17,-2.47,-0.08,2.47
5.1181488037109375,0.21,-2.34,-0.23,2.36
5.1283299922943115,0.2,-2.18,-0.3,2.2
5.14502477645874,0.14,-2.08,-0.36,2.11
5.147394895553589,0.09,-1.99,-0.33,2.01
5.157449960708618,0.03,-1.85,-0.24,1.86
5.168550968170166,-0.01,-1.69,-0.07,1.69
5.178674936294556,-0.05,-1.53,0.17,1.54
5.195915937423706,-0.05,-1.39,0.46,1.46
5.197390079498291,0.03,-1.21,0.7,1.39
5.208347797393799,0.19,-1.06,0.8,1.34
5.217922925949097,0.25,-0.88,0.93,1.3
5.228621959686279,0.34,-0.59,1.15,1.33
5.246148109436035,0.36,-0.3,1.32,1.4
5.247407913208008,0.37,0.06,1.43,1.47
5.258397102355957,0.35,0.38,1.48,1.56
5.267864942550659,0.15,0.69,1.32,1.49
5.278666973114014,-0.05,1.01,1.01,1.42
5.295608043670654,-0.16,1.61,0.99,1.89
5.297344923019409,-0.18,2.37,1.36,2.73
5.307355880737305,-0.12,2.54,1.41,2.9
5.318353891372681,0.11,2.49,1.22,2.77
5.3284759521484375,0.42,3.18,1.5,3.54
5.346462965011597,0.52,3.64,1.45,3.95
5.347465991973877,0.39,3.33,0.42,3.37
5.357564926147461,0.34,3.52,-0.59,3.58
5.368370056152344,0.1,3.97,-1.5,4.24
5.378818988800049,-0.24,3.85,-2.55,4.62
5.396480083465576,-0.64,3.35,-3.34,4.77
5.397349834442139,-0.95,2.81,-3.44,4.54
5.407608985900879,-1.17,2.35,-2.84,3.86
5.418317794799805,-1.14,1.96,-1.69,2.82
5.428102016448975,-1.19,1.46,-0.58,1.97
5.445101976394653,-1.11,1.01,0.22,1.51
5.447635889053345,-1.01,0.66,0.55,1.32
5.457563877105713,-0.8,0.4,0.44,0.99
5.468447923660278,-0.56,0.19,0.08,0.59
5.478338956832886,-0.34,-0.05,-0.42,0.54
5.4956560134887695,-0.17,-0.25,-0.84,0.89
5.497574806213379,-0.1,-0.38,-1.05,1.12
5.507659912109375,-0.13,-0.5,-1.19,1.29
5.518395900726318,-0.16,-0.64,-1.28,1.44
5.528393983840942,-0.13,-0.85,-1.24,1.5
5.54560399055481,-0.1,-1.13,-1.19,1.64
5.547662973403931,-0.13,-1.52,-1.12,1.89
5.557610988616943,-0.06,-1.91,-0.87,2.09
5.568557977676392,-0.05,-2.33,-0.53,2.39
5.578561782836914,0.08,-2.75,-0.16,2.75
5.596297979354858,0.17,-3.06,0.13,3.06
5.597592830657959,0.18,-3.31,0.36,3.33
5.607557773590088,0.19,-3.39,0.5,3.43
5.618404865264893,0.18,-3.34,0.53,3.38
5.628662109375,0.08,-3.26,0.39,3.28
5.6464128494262695,0.05,-3.05,0.15,3.05
5.64763879776001,0.0,-2.79,-0.05,2.79
5.657580852508545,-0.04,-2.5,-0.07,2.5
5.668461799621582,-0.14,-2.22,0.09,2.22
5.678384780883789,-0.29,-1.94,0.36,1.99
5.696919918060303,-0.4,-1.66,0.56,1.79
5.697655916213989,-0.47,-1.35,0.57,1.53
5.7076520919799805,-0.53,-0.99,0.44,1.2
5.718394994735718,-0.55,-0.62,0.27,0.87
5.728729963302612,-0.62,-0.3,0.19,0.71
5.746413946151733,-0.6,-0.03,0.26,0.65
5.7475669384002686,-0.59,0.21,0.44,0.76
5.7583839893341064,-0.65,0.44,0.74,1.07
5.767887115478516,-0.62,0.7,1.08,1.42
5.7784600257873535,-0.52,1.08,1.45,1.88
5.796544075012207,-0.39,1.48,1.7,2.28
5.797444820404053,-0.21,1.89,1.64,2.51
5.807378768920898,-0.07,2.26,1.28,2.59
5.81834077835083,-0.02,2.38,0.69,2.47
5.828165054321289,-0.07,2.24,0.08,2.24
5.846827983856201,-0.12,1.99,-0.35,2.02
5.847489833831787,-0.12,2.19,-0.22,2.2
5.857724905014038,-0.21,2.82,0.61,2.89
5.868428945541382,-0.33,2.76,1.02,2.96
5.8781890869140625,-0.09,2.39,0.74,2.5
5.897113800048828,0.2,2.83,0.44,2.87
5.897842884063721,0.45,3.05,-0.1,3.08
5.907576084136963,1.06,2.32,-1.25,2.84
5.918439865112305,1.55,1.58,-2.12,3.06
5.928179979324341,1.69,1.38,-2.14,3.05
5.946471929550171,1.85,1.09,-1.61,2.68
5.9476189613342285,1.73,0.8,-1.09,2.19
5.957767009735107,1.52,0.45,-0.58,1.68
5.968461990356445,1.11,0.3,-0.29,1.18
5.9782938957214355,0.62,0.29,-0.38,0.78
5.9965410232543945,0.23,0.32,-0.78,0.87
5.997484922409058,-0.09,0.33,-1.24,1.28
6.007670879364014,-0.3,0.41,-1.53,1.61
6.01854395866394,-0.44,0.49,-1.66,1.78
6.028148889541626,-0.48,0.48,-1.65,1.78
6.046441078186035,-0.44,0.27,-1.55,1.63
6.047735929489136,-0.33,-0.01,-1.41,1.44
6.057539939880371,-0.23,-0.32,-1.19,1.25
6.068473815917969,-0.13,-0.64,-0.95,1.15
6.078587055206299,-0.1,-0.93,-0.8,1.23
6.096613883972168,-0.09,-1.21,-0.53,1.32
6.097546100616455,-0.2,-1.53,-0.2,1.55
6.107607841491699,-0.32,-1.89,0.16,1.92
6.118308067321777,-0.35,-2.18,0.52,2.26
6.128168106079102,-0.37,-2.5,0.77,2.64
6.146450996398926,-0.38,-2.79,0.82,2.93
6.147660970687866,-0.3,-3.0,0.67,3.08
6.157524108886719,-0.25,-3.12,0.34,3.14
6.168348789215088,-0.12,-3.12,-0.03,3.12
6.178255081176758,0.03,-3.05,-0.36,3.07
6.197150945663452,0.27,-2.89,-0.52,2.94
6.1978819370269775,0.45,-2.68,-0.51,2.76
6.207672119140625,0.52,-2.5,-0.3,2.57
6.218249797821045,0.52,-2.3,0.08,2.35
6.228254795074463,0.49,-2.07,0.48,2.18
6.245937824249268,0.43,-1.76,0.81,1.98
6.247678995132446,0.38,-1.36,1.09,1.78
6.257621765136719,0.38,-0.92,1.3,1.63
6.268544912338257,0.35,-0.44,1.44,1.54
6.278601884841919,0.32,0.04,1.54,1.57
6.296280860900879,0.3,0.46,1.6,1.69
6.297565937042236,0.23,0.79,1.46,1.67
6.307764053344727,0.22,1.08,1.08,1.54
6.318547964096069,0.13,1.43,0.85,1.66
6.328248977661133,0.08,2.05,1.19,2.37
6.346880912780762,0.03,2.63,1.71,3.13
6.3477067947387695,0.11,2.73,1.93,3.34
6.357680797576904,0.37,2.45,1.59,2.94
6.368509769439697,0.78,2.43,0.98,2.73
6.37835693359375,1.21,3.3,1.05,3.66
6.396556854248047,1.12,4.18,1.22,4.49
6.3975419998168945,0.8,4.18,0.51,4.28
6.4077489376068115,0.52,4.04,-0.72,4.13
6.4185779094696045,-0.11,4.09,-2.18,4.63
6.428319931030273,-0.52,3.61,-3.68,5.18
6.4463911056518555,-1.04,2.77,-4.58,5.45
6.447768926620483,-1.43,1.99,-3.96,4.65
6.457727909088135,-1.79,1.47,-1.88,2.98
6.4685869216918945,-2.16,0.99,0.4,2.4
6.478668928146362,-2.11,0.21,2.07,2.96
6.497366905212402,-2.0,-0.37,2.55,3.26
6.498126983642578,-1.55,-0.52,2.07,2.63
6.507744789123535,-0.9,-0.44,0.77,1.26
6.51863694190979,-0.32,-0.27,-0.69,0.8
6.5283119678497314,0.16,-0.05,-1.9,1.9
6.5466461181640625,0.35,0.25,-2.57,2.6
6.547605991363525,0.35,0.3,-2.82,2.85
6.557653903961182,0.21,0.19,-2.76,2.77
6.568655014038086,0.1,0.05,-2.53,2.53
6.578490972518921,-0.05,-0.21,-2.27,2.28
6.596438884735107,-0.1,-0.53,-1.92,1.99
6.597557067871094,-0.26,-0.94,-1.46,1.75
6.6077189445495605,-0.31,-1.35,-0.89,1.64
6.618623971939087,-0.32,-1.8,-0.35,1.86
6.628446102142334,-0.26,-2.2,0.1,2.21
6.637849807739258,-0.26,-2.55,0.35,2.58
6.6480278968811035,-0.16,-2.77,0.43,2.8
6.657776832580566,-0.12,-2.95,0.3,2.96
6.668633937835693,-0.1,-3.02,0.13,3.02
6.678416967391968,-0.09,-2.98,-0.01,2.98
6.6880340576171875,-0.11,-2.87,-0.14,2.87
6.697825908660889,-0.06,-2.7,-0.19,2.7
6.707762956619263,-0.09,-2.54,-0.26,2.55
6.718656063079834,-0.15,-2.38,-0.27,2.39
6.728646993637085,-0.17,-2.21,-0.21,2.22
6.737850904464722,-0.17,-2.0,-0.08,2.0
6.7479047775268555,-0.16,-1.77,0.08,1.77
6.757796764373779,-0.21,-1.51,0.34,1.56
6.768621921539307,-0.24,-1.26,0.64,1.43
6.778439998626709,-0.25,-1.0,0.89,1.36
6.787986993789673,-0.28,-0.75,1.06,1.32
6.797873020172119,-0.31,-0.54,1.07,1.23
6.807679891586304,-0.39,-0.24,1.06,1.15
6.818653106689453,-0.4,0.22,1.13,1.21
6.828396797180176,-0.42,0.68,1.18,1.42
6.838054895401001,-0.32,1.08,1.05,1.53
6.847944974899292,-0.21,1.54,0.85,1.77
6.857783794403076,-0.17,2.04,0.81,2.2
6.86870002746582,-0.24,2.31,0.72,2.43
6.878258943557739,-0.47,2.36,0.38,2.43
6.888134956359863,-0.69,2.38,0.08,2.47
6.897894859313965,-0.86,2.63,0.2,2.77
6.9078569412231445,-0.96,3.26,1.18,3.59
6.918666839599609,-0.75,3.48,1.9,4.03
6.928343772888184,-0.32,2.95,1.62,3.38
6.938081979751587,0.19,3.06,1.03,3.23
6.948245048522949,0.55,3.75,0.39,3.81
6.957770824432373,0.81,3.72,-0.69,3.86
6.968745946884155,1.38,2.77,-1.99,3.67
6.978448867797852,1.59,2.14,-2.84,3.89
6.988080024719238,1.56,1.68,-2.96,3.74
6.997950077056885,1.38,1.01,-2.51,3.03
7.0077900886535645,0.83,0.35,-1.75,1.96
7.018646955490112,0.39,0.1,-0.81,0.9
7.028793811798096,0.28,0.09,-0.13,0.32
7.038121938705444,0.09,0.24,0.0,0.25
7.048079013824463,-0.03,0.34,-0.24,0.41
7.057754039764404,0.06,0.47,-0.47,0.66
7.068526983261108,0.02,0.47,-0.8,0.92
7.078423976898193,0.08,0.54,-1.06,1.19
7.088097095489502,0.13,0.55,-1.35,1.46
7.098154067993164,0.19,0.38,-1.65,1.7
7.108726978302002,0.26,0.15,-1.82,1.84
7.118149995803833,0.31,-0.13,-1.82,1.85
7.128684043884277,0.34,-0.51,-1.7,1.8
7.138422966003418,0.27,-0.98,-1.39,1.72
7.148392915725708,0.16,-1.52,-0.86,1.75
7.1576619148254395,-0.03,-2.12,-0.31,2.14
7.168747901916504,-0.2,-2.66,0.29,2.68
7.178442001342773,-0.37,-3.1,0.69,3.19
7.188077926635742,-0.48,-3.44,1.0,3.61
7.198193073272705,-0.58,-3.62,1.09,3.82
7.207687854766846,-0.49,-3.63,0.91,3.77
7.218708038330078,-0.37,-3.46,0.66,3.54
7.228511810302734,-0.28,-3.3,0.42,3.33
7.238133907318115,-0.13,-3.1,0.21,3.1
7.24810791015625,0.06,-2.81,0.01,2.81
7.257874011993408,0.24,-2.37,-0.21,2.39
7.268686771392822,0.36,-2.0,-0.43,2.07
7.278809070587158,0.44,-1.71,-0.38,1.8
7.288416862487793,0.48,-1.37,-0.03,1.45
7.298852920532227,0.43,-0.89,0.45,1.08
7.3086559772491455,0.43,-0.56,0.79,1.05
7.318202018737793,0.35,-0.32,0.87,0.99
7.328815937042236,0.23,-0.04,0.77,0.8
7.338091850280762,0.21,0.23,0.6,0.67
7.348559856414795,0.24,0.58,0.56,0.84
7.357868909835815,0.18,0.92,0.69,1.16
7.368768930435181,0.06,1.08,0.75,1.31
7.378360986709595,-0.1,1.23,0.82,1.48
7.388154983520508,-0.12,1.69,1.21,2.08
7.398711919784546,-0.05,2.2,1.73,2.79
7.407932996749878,0.17,2.22,1.88,2.91
7.418752908706665,0.54,2.0,1.68,2.66
7.4285078048706055,0.94,2.29,1.75,3.03
7.437964916229248,1.06,3.41,2.28,4.23
7.448050022125244,0.78,4.0,2.18,4.62
7.45789909362793,0.52,3.87,1.23,4.09
7.468548774719238,0.35,3.91,0.15,3.92
7.478503942489624,0.22,4.09,-1.21,4.27
7.488282918930054,0.0,3.8,-2.72,4.67
7.49829888343811,-0.23,3.16,-3.75,4.9
7.507876873016357,-0.57,2.59,-3.54,4.42
7.518861770629883,-1.01,1.99,-2.3,3.2
7.528533935546875,-1.38,1.3,-0.77,2.04
7.538233995437622,-1.55,0.82,0.57,1.84
7.548727035522461,-1.41,0.42,1.11,1.84
7.5577778816223145,-1.06,0.16,0.85,1.36
7.5688300132751465,-0.64,0.13,0.21,0.68
7.578433036804199,-0.28,0.13,-0.59,0.66
7.588120937347412,-0.07,0.09,-1.14,1.14
7.598038911819458,0.03,-0.06,-1.39,1.39
7.607878923416138,0.08,-0.3,-1.52,1.55
7.618603944778442,0.06,-0.54,-1.52,1.61
7.62866997718811,0.08,-0.82,-1.52,1.72
7.638008117675781,0.08,-1.24,-1.56,1.99
7.648391962051392,0.0,-1.64,-1.5,2.22
7.65792989730835,-0.13,-2.07,-1.25,2.42
7.668822765350342,-0.2,-2.43,-0.9,2.59
7.678472995758057,-0.2,-2.73,-0.48,2.77
7.68810510635376,-0.29,-3.04,-0.18,3.05
7.698277950286865,-0.45,-3.26,-0.04,3.29
7.707998991012573,-0.59,-3.36,0.26,3.42
7.71872091293335,-0.59,-3.38,0.53,3.47
7.7285449504852295,-0.6,-3.34,0.71,3.46
7.738133907318115,-0.62,-3.17,0.73,3.31
7.748166084289551,-0.71,-2.99,0.57,3.12
7.7578630447387695,-0.7,-2.73,0.29,2.83
7.768631935119629,-0.69,-2.42,-0.05,2.51
7.77863883972168,-0.66,-2.19,-0.49,2.33
7.788074016571045,-0.6,-1.84,-0.71,2.06
7.798030853271484,-0.51,-1.52,-0.75,1.77
7.807835102081299,-0.42,-1.24,-0.64,1.45
7.818824768066406,-0.36,-0.89,-0.4,1.04
7.828804969787598,-0.25,-0.58,-0.04,0.63
7.8381028175354,-0.21,-0.26,0.45,0.56
7.848484039306641,-0.18,0.08,1.03,1.04
7.857911109924316,-0.14,0.36,1.52,1.56
7.868801116943359,-0.1,0.67,1.79,1.91
7.8785459995269775,-0.02,1.0,1.81,2.06
7.888077974319458,0.12,1.3,1.67,2.11
7.898221015930176,0.32,1.61,1.48,2.21
7.907886028289795,0.58,1.97,1.4,2.48
7.918709993362427,0.6,2.27,1.24,2.65
7.928701877593994,0.47,2.24,0.64,2.37
7.938167095184326,0.28,2.0,-0.12,2.02
7.948225021362305,-0.19,2.01,-0.32,2.04
7.957928895950317,-0.65,2.54,0.5,2.66
7.969890117645264,-0.9,2.66,1.29,3.09
7.978710889816284,-0.72,2.1,1.29,2.56
7.988300800323486,-0.42,2.04,0.89,2.26
7.99824595451355,-0.12,2.98,0.68,3.05
8.008948802947998,0.09,3.47,-0.27,3.48
8.014801979064941,0.81,2.83,-1.84,3.47
8.024601936340332,1.41,2.38,-2.72,3.87
8.034494876861572,1.5,2.22,-2.55,3.69
8.047983884811401,1.33,1.71,-1.9,2.88
8.054195880889893,1.37,1.3,-1.01,2.14
8.064799785614014,1.47,0.91,-0.29,1.75
8.074601888656616,1.25,0.62,-0.28,1.42
8.08444595336914,0.85,0.66,-0.48,1.17
8.098084926605225,0.39,0.67,-0.9,1.18
8.104249954223633,-0.04,0.57,-1.25,1.37
8.11483383178711,-0.35,0.44,-1.3,1.41
8.124612808227539,-0.61,0.29,-1.23,1.4
8.13458776473999,-0.85,0.1,-1.16,1.44
8.148100852966309,-0.79,-0.19,-1.11,1.37
8.154143810272217,-0.7,-0.61,-1.15,1.47
8.164885997772217,-0.51,-0.97,-1.08,1.53
8.17484998703003,-0.3,-1.33,-0.94,1.65
8.184493064880371,-0.13,-1.73,-0.75,1.89
8.197888851165771,0.02,-2.14,-0.51,2.2
8.204577922821045,0.08,-2.46,-0.36,2.48
8.214954853057861,0.11,-2.6,-0.18,2.6
8.225038051605225,0.2,-2.71,0.15,2.72
8.23446798324585,0.24,-2.84,0.45,2.88
8.248579025268555,0.15,-2.96,0.57,3.01
8.254281997680664,0.04,-2.94,0.48,2.97
8.265048027038574,-0.04,-2.89,0.17,2.89
8.274596929550171,-0.05,-2.81,-0.19,2.81
8.284626007080078,-0.11,-2.67,-0.5,2.71
8.298072814941406,-0.1,-2.52,-0.8,2.64
8.304276943206787,-0.11,-2.35,-0.84,2.49
8.315233945846558,-0.14,-2.14,-0.54,2.21
8.326242923736572,-0.11,-1.89,0.0,1.89
8.334410905838013,-0.05,-1.66,0.56,1.75
8.347959995269775,-0.02,-1.4,1.03,1.73
8.354142904281616,0.06,-1.11,1.28,1.69
8.364962100982666,0.12,-0.75,1.34,1.54
8.374713897705078,0.2,-0.29,1.16,1.21
8.384558916091919,0.27,0.22,0.93,0.99
8.401713848114014,0.28,0.7,0.81,1.1
8.408033847808838,0.28,1.06,0.75,1.32
8.418742895126343,0.18,1.26,0.75,1.47
8.428716897964478,0.18,1.43,0.89,1.69
8.438294887542725,0.12,1.81,1.26,2.2
8.448866844177246,0.24,2.3,1.53,2.77
8.458037853240967,0.39,2.54,1.41,2.93
8.469016075134277,0.69,2.66,1.2,2.99
8.47878885269165,1.04,3.46,1.78,4.02
8.488293886184692,0.98,4.17,2.28,4.85
8.498837947845459,0.8,4.16,1.87,4.63
8.508702993392944,0.54,4.32,0.98,4.46
8.518661975860596,0.19,4.48,-0.58,4.52
8.529019832611084,-0.14,4.26,-2.47,4.92
8.538295984268188,-0.45,3.79,-4.13,5.62
8.54921579360962,-0.7,3.29,-4.72,5.79
8.558096885681152,-1.01,2.59,-4.1,4.95
8.569063901901245,-1.19,1.84,-2.72,3.49
8.578933954238892,-1.16,1.12,-1.29,2.06
8.588447093963623,-0.93,0.55,-0.21,1.1
8.598838806152344,-0.65,0.13,0.3,0.72
8.608053922653198,-0.29,-0.11,0.31,0.43
8.619025945663452,0.05,-0.26,0.07,0.27
8.628801822662354,0.23,-0.39,-0.2,0.49
8.638392925262451,0.15,-0.42,-0.35,0.56
8.648963928222656,-0.04,-0.5,-0.47,0.68
8.658053874969482,-0.17,-0.68,-0.7,0.99
8.669092893600464,-0.42,-0.78,-1.05,1.37
8.678891897201538,-0.52,-0.87,-1.43,1.75
8.68844199180603,-0.58,-1.14,-1.7,2.12
8.69939398765564,-0.7,-1.4,-1.81,2.39
8.708130836486816,-0.71,-1.69,-1.66,2.47
8.71915578842163,-0.67,-1.99,-1.21,2.42
8.72882890701294,-0.58,-2.4,-0.71,2.56
8.7382230758667,-0.47,-2.74,-0.24,2.79
8.748877048492432,-0.31,-2.97,0.12,2.98
8.758052825927734,-0.15,-3.07,0.3,3.08
8.768933773040771,-0.05,-3.08,0.32,3.09
8.778768062591553,-0.07,-2.99,0.25,3.0
8.788688898086548,-0.15,-2.81,0.16,2.81
8.798511981964111,-0.21,-2.6,0.12,2.61
8.808042049407959,-0.31,-2.32,0.12,2.34
8.819013118743896,-0.48,-2.06,0.14,2.11
8.828748941421509,-0.63,-1.72,0.31,1.85
8.838360786437988,-0.73,-1.39,0.52,1.65
8.849283933639526,-0.76,-1.09,0.61,1.46
8.858669996261597,-0.67,-0.85,0.63,1.25
8.868742942810059,-0.58,-0.65,0.61,1.06
8.878891944885254,-0.44,-0.55,0.63,0.94
8.888413906097412,-0.26,-0.54,0.64,0.87
8.899213790893555,-0.09,-0.44,0.62,0.76
8.908058881759644,0.07,-0.19,0.64,0.67
8.919125080108643,0.18,0.21,0.8,0.84
8.928825855255127,0.26,0.63,0.96,1.17
8.938463926315308,0.38,1.2,1.17,1.71
8.949533939361572,0.52,1.78,1.4,2.32
8.958780765533447,0.59,2.3,1.61,2.86
8.968687057495117,0.45,2.43,1.45,2.86
8.97887897491455,0.5,2.23,1.03,2.5
8.988389015197754,0.38,1.95,0.52,2.05
8.99931287765503,-0.03,2.14,0.28,2.15
9.008153915405273,-0.36,2.87,0.96,3.04
9.019143104553223,-0.69,2.66,1.01,2.92
9.028949975967407,-0.71,2.06,0.56,2.24
9.03841495513916,-0.51,2.46,0.54,2.56
9.049123764038086,-0.4,3.14,0.42,3.19
9.058121919631958,-0.05,2.88,-0.71,2.96
9.069178104400635,0.81,2.33,-1.97,3.15
9.078967094421387,1.51,2.05,-2.41,3.5
9.088504791259766,1.86,1.87,-2.11,3.37
9.099493980407715,2.03,1.6,-1.4,2.93
9.10814380645752,2.19,1.19,-0.72,2.59
9.118902921676636,2.19,0.68,-0.05,2.29
9.129071950912476,1.74,0.34,0.34,1.8
9.13844108581543,1.2,0.2,0.35,1.26
9.149055004119873,0.68,0.04,-0.08,0.68
9.157951831817627,0.23,-0.16,-0.62,0.68
9.169087886810303,-0.19,-0.41,-0.87,0.98
9.178926944732666,-0.57,-0.66,-0.87,1.23
9.188729763031006,-0.88,-1.05,-0.87,1.62
9.198791027069092,-1.07,-1.45,-0.98,2.05
9.208185911178589,-1.11,-1.81,-1.05,2.36
9.219217777252197,-1.03,-2.13,-1.03,2.58
9.228901863098145,-0.78,-2.31,-0.78,2.55
9.238540887832642,-0.54,-2.36,-0.45,2.46
9.249236106872559,-0.28,-2.44,-0.18,2.46
9.258265018463135,-0.08,-2.54,0.09,2.54
9.269168853759766,0.04,-2.6,0.36,2.62
9.278889894485474,0.07,-2.61,0.63,2.68
9.288614988327026,0.1,-2.61,0.74,2.71
9.298956871032715,0.03,-2.55,0.63,2.62
9.308137893676758,0.08,-2.44,0.34,2.46
9.319232940673828,0.12,-2.24,-0.03,2.24
9.328881978988647,0.08,-1.97,-0.34,2.0
9.338510036468506,0.13,-1.8,-0.55,1.88
9.349277019500732,0.11,-1.68,-0.54,1.76
9.358185768127441,0.1,-1.49,-0.24,1.51
9.369341850280762,0.08,-1.35,0.04,1.35
9.378917932510376,0.12,-1.27,0.27,1.3
9.388679027557373,0.2,-1.18,0.37,1.25
9.399816036224365,0.3,-1.05,0.5,1.2
9.40919303894043,0.39,-0.92,0.62,1.17
9.418773889541626,0.44,-0.68,0.81,1.14
9.429009914398193,0.39,-0.3,1.13,1.23
9.438545942306519,0.23,0.14,1.4,1.42
9.449624061584473,0.05,0.58,1.52,1.62
9.458157062530518,-0.04,1.08,1.5,1.84
9.469096899032593,-0.16,1.61,1.5,2.2
9.479000091552734,-0.22,2.22,1.77,2.84
9.488616943359375,-0.16,2.49,1.87,3.11
9.499594926834106,-0.01,2.41,1.69,2.94
9.508277893066406,0.53,2.81,1.72,3.33
9.519243955612183,0.95,3.63,2.03,4.26
9.52929401397705,1.09,3.79,1.43,4.19
9.538712978363037,1.23,3.9,0.5,4.11
9.550129890441895,1.15,4.33,-0.27,4.48
9.559389114379883,0.8,4.11,-1.7,4.51
9.56889295578003,0.34,3.53,-3.19,4.76
9.579012870788574,-0.22,3.1,-3.84,4.94
9.588643074035645,-0.97,2.78,-3.37,4.47
9.599301815032959,-1.67,2.22,-2.24,3.56
9.608323097229004,-2.07,1.66,-1.05,2.85
9.619369983673096,-1.97,1.15,-0.15,2.28
9.62890911102295,-1.65,0.77,0.06,1.82
9.638832092285156,-1.14,0.6,-0.39,1.34
9.650043964385986,-0.6,0.54,-1.14,1.39
9.65825605392456,-0.18,0.49,-1.53,1.61
9.669059991836548,-0.02,0.41,-1.43,1.48
9.67920207977295,0.01,0.28,-1.14,1.17
9.688751935958862,-0.01,-0.08,-0.94,0.94
9.699978828430176,-0.01,-0.48,-0.95,1.06
9.708305835723877,0.02,-0.85,-1.19,1.46
9.718848943710327,0.01,-1.27,-1.38,1.87
9.728909015655518,-0.05,-1.63,-1.44,2.17
9.738656044006348,-0.18,-2.07,-1.36,2.48
9.749907970428467,-0.23,-2.51,-1.1,2.75
9.758363962173462,-0.31,-2.96,-0.84,3.09
9.769100904464722,-0.36,-3.38,-0.48,3.43
9.779285907745361,-0.38,-3.7,-0.01,3.71
9.788546085357666,-0.39,-3.93,0.4,3.96
9.799543857574463,-0.39,-3.99,0.68,4.06
9.808307886123657,-0.38,-3.93,0.79,4.02
9.819132804870605,-0.36,-3.8,0.7,3.88
9.829054832458496,-0.34,-3.51,0.56,3.57
9.838647842407227,-0.31,-3.13,0.52,3.18
9.849689960479736,-0.31,-2.61,0.5,2.67
9.858370780944824,-0.34,-2.08,0.57,2.18
9.869234085083008,-0.35,-1.53,0.69,1.71
9.87907600402832,-0.36,-0.94,0.81,1.29
9.888649940490723,-0.32,-0.37,0.84,0.97
9.90058183670044,-0.26,0.05,0.64,0.69
9.90840482711792,-0.13,0.39,0.34,0.53
9.91923999786377,0.02,0.82,0.14,0.83
9.928934097290039,0.11,1.21,0.16,1.22
9.93862009048462,0.12,1.47,0.3,1.5
9.95040488243103,0.02,1.81,0.71,1.94
9.95852279663086,-0.2,2.05,1.25,2.4
9.96920108795166,-0.38,2.11,1.67,2.71
9.979217052459717,-0.44,2.23,1.94,2.98
9.988672971725464,-0.52,2.2,1.68,2.81
10.0004301071167,-0.67,1.97,0.96,2.29
10.008533000946045,-0.7,1.77,0.27,1.92
10.01913595199585,-0.67,1.96,0.07,2.07
10.028865814208984,-0.67,2.69,0.65,2.84
10.038670063018799,-0.71,2.71,0.87,2.93
10.050374031066895,-0.53,2.12,0.15,2.19
10.059587955474854,-0.08,2.45,-0.55,2.51
10.06903600692749,0.31,3.28,-1.01,3.44
10.078975915908813,0.87,3.09,-1.78,3.67
10.08876895904541,1.55,2.34,-2.48,3.74
10.100641965866089,2.12,1.87,-2.53,3.79
10.108695983886719,2.4,1.65,-1.9,3.47
10.11923885345459,2.41,1.36,-1.08,2.97
10.129027843475342,2.28,1.01,-0.25,2.5
10.138597011566162,1.95,0.7,0.31,2.09
10.149280071258545,1.36,0.43,0.33,1.46
10.158798933029175,0.69,0.3,-0.15,0.76
10.169168949127197,0.15,0.16,-0.7,0.73
10.1791090965271,-0.3,0.06,-1.12,1.16
10.188827991485596,-0.59,0.02,-1.28,1.4
10.199892044067383,-0.73,-0.03,-1.23,1.43
10.208708763122559,-0.7,-0.17,-1.2,1.39
10.219281911849976,-0.48,-0.39,-1.24,1.38
10.229167938232422,-0.22,-0.67,-1.19,1.38
10.238700866699219,0.01,-1.04,-1.12,1.52
10.25088095664978,0.16,-1.44,-0.95,1.73
10.258762836456299,0.23,-1.92,-0.7,2.05
10.269283771514893,0.26,-2.39,-0.45,2.44
10.279417991638184,0.3,-2.75,-0.23,2.77
10.288608074188232,0.3,-3.03,-0.17,3.04
10.300981044769287,0.27,-3.22,-0.08,3.23
10.308828830718994,0.15,-3.34,0.02,3.34
10.319459915161133,0.03,-3.43,0.12,3.43
10.329105854034424,-0.14,-3.35,0.25,3.36
10.33867883682251,-0.21,-3.16,0.35,3.18
10.350892066955566,-0.24,-2.95,0.3,2.97
10.358885765075684,-0.28,-2.67,0.21,2.69
10.369386911392212,-0.32,-2.34,0.11,2.36
10.379120826721191,-0.29,-1.98,0.09,2.0
10.3886559009552,-0.25,-1.63,0.14,1.65
10.400561809539795,-0.13,-1.29,0.26,1.32
10.408942937850952,-0.03,-0.99,0.27,1.02
10.419567108154297,0.09,-0.74,0.18,0.76
10.429059028625488,0.21,-0.52,0.15,0.58
10.438861846923828,0.29,-0.28,0.25,0.47
10.45127010345459,0.31,0.03,0.49,0.58
10.458967924118042,0.35,0.42,0.85,1.01
10.46947693824768,0.36,0.73,1.19,1.44
10.479110956192017,0.25,0.92,1.37,1.66
10.488752841949463,0.07,1.19,1.53,1.93
10.501518964767456,-0.09,1.74,1.81,2.51
10.50902509689331,0.02,2.11,1.93,2.85
10.519418954849243,0.32,2.24,1.74,2.85
10.529120922088623,0.75,2.29,1.27,2.72
10.538520812988281,1.2,3.1,1.32,3.57
10.551083087921143,1.13,4.1,1.51,4.51
10.55921196937561,0.83,4.06,0.87,4.23
10.569348812103271,0.75,3.78,-0.29,3.86
10.57908296585083,0.43,3.92,-1.6,4.25
10.588770866394043,-0.08,3.92,-2.67,4.74
10.601243019104004,-0.65,3.57,-3.09,4.76
10.609263896942139,-1.23,3.14,-2.44,4.16
10.619523048400879,-1.73,2.74,-1.24,3.46
10.629130840301514,-1.92,2.28,-0.18,2.98
10.638869762420654,-1.56,1.89,0.29,2.46
10.651360988616943,-1.01,1.58,0.21,1.88
10.659260988235474,-0.25,1.35,-0.29,1.4
10.669384002685547,0.34,1.01,-1.01,1.46
10.679447889328003,0.89,0.55,-1.52,1.84
10.689012050628662,1.04,0.18,-1.62,1.93
10.700646877288818,0.94,-0.09,-1.12,1.46
10.709377765655518,0.62,-0.59,-0.6,1.04
10.719456911087036,0.33,-1.12,-0.39,1.23
10.729168891906738,-0.03,-1.59,-0.55,1.68
10.738740921020508,-0.35,-1.91,-0.88,2.13
10.751178979873657,-0.5,-2.23,-0.98,2.48
10.760232925415039,-0.65,-2.48,-0.91,2.72
10.769234895706177,-0.7,-2.68,-0.72,2.86
10.779195785522461,-0.64,-2.87,-0.49,2.98
10.78891897201538,-0.52,-3.0,-0.19,3.05
10.801503896713257,-0.39,-3.1,0.04,3.12
10.809521913528442,-0.24,-3.14,0.18,3.15
10.818713903427124,-0.09,-3.1,0.23,3.1
10.829328060150146,-0.08,-3.09,0.12,3.09
10.838663101196289,0.02,-3.01,-0.05,3.01
10.850493907928467,0.05,-2.83,-0.26,2.84
10.859637975692749,-0.07,-2.71,-0.44,2.74
10.869385957717896,-0.2,-2.58,-0.43,2.62
10.879234790802002,-0.39,-2.41,-0.3,2.45
10.88899278640747,-0.56,-2.16,-0.03,2.23
10.900984764099121,-0.71,-1.89,0.35,2.04
10.909535884857178,-0.76,-1.57,0.73,1.89
10.919551849365234,-0.77,-1.24,0.91,1.72
10.929461002349854,-0.67,-0.87,0.91,1.42
10.938933849334717,-0.52,-0.45,0.82,1.07
10.951513767242432,-0.31,-0.04,0.67,0.73
10.959532976150513,-0.12,0.37,0.59,0.7
10.969578981399536,-0.04,0.81,0.67,1.05
10.979220867156982,0.03,1.2,0.8,1.44
10.989182949066162,0.13,1.55,0.88,1.78
11.003087043762207,0.28,1.88,0.98,2.13
11.010432958602905,0.42,2.18,1.14,2.49
11.019170999526978,0.37,2.38,1.16,2.67
11.029144763946533,0.18,2.43,0.88,2.59
11.038793087005615,-0.14,2.35,0.42,2.39
11.051796913146973,-0.51,2.62,0.45,2.7
11.059643983840942,-0.64,3.14,1.25,3.43
11.069604873657227,-0.53,2.78,1.62,3.26
11.079261779785156,-0.09,2.06,1.18,2.37
11.089215993881226,0.42,2.24,0.66,2.37
11.103770971298218,1.11,2.92,0.33,3.14
11.108608961105347,1.62,2.78,-0.31,3.23
11.11949896812439,2.28,2.11,-1.2,3.33
11.129294872283936,2.38,2.02,-1.68,3.54
11.139065980911255,1.86,2.18,-1.7,3.33
11.153337955474854,1.79,1.96,-1.43,3.01
11.159048080444336,1.35,1.82,-0.88,2.43
11.169472932815552,0.91,1.46,-0.55,1.8
11.179138898849487,0.44,1.13,-0.58,1.34
11.189109802246094,0.04,1.09,-0.67,1.28
11.201457023620605,-0.28,1.04,-0.94,1.42
11.210633993148804,-0.58,0.86,-1.29,1.65
11.219234943389893,-0.75,0.7,-1.47,1.79
11.2292160987854,-0.79,0.58,-1.35,1.66
11.239152908325195,-0.7,0.33,-1.22,1.44
11.251760959625244,-0.62,-0.07,-1.21,1.36
11.26075792312622,-0.37,-0.38,-1.21,1.32
11.269071102142334,-0.18,-0.65,-1.14,1.32
11.279217958450317,0.03,-0.99,-1.06,1.45
11.288896083831787,0.22,-1.36,-0.91,1.65
11.302098989486694,0.32,-1.75,-0.56,1.86
11.308618068695068,0.3,-2.32,-0.2,2.34
11.319350957870483,0.3,-2.84,0.18,2.86
11.329219818115234,0.21,-3.26,0.47,3.3
11.339035034179688,0.13,-3.5,0.63,3.55
11.351783990859985,0.04,-3.57,0.66,3.63
11.3595290184021,-0.01,-3.45,0.48,3.48
11.369425773620605,-0.09,-3.22,0.19,3.22
11.379573822021484,-0.15,-3.0,-0.15,3.0
11.389036893844604,-0.17,-2.74,-0.43,2.77
11.402029037475586,-0.11,-2.53,-0.75,2.64
11.40877389907837,-0.06,-2.38,-0.98,2.57
11.41950511932373,0.01,-2.17,-0.91,2.35
11.42927098274231,0.09,-1.96,-0.62,2.05
11.438965797424316,0.17,-1.78,-0.18,1.79
11.451683044433594,0.29,-1.57,0.33,1.63
11.458833932876587,0.36,-1.28,0.82,1.56
11.468907833099365,0.37,-0.94,1.24,1.59
11.479373931884766,0.39,-0.54,1.53,1.66
11.488972902297974,0.36,-0.14,1.69,1.73
11.501694917678833,0.29,0.32,1.7,1.75
11.508741855621338,0.23,0.82,1.55,1.76
11.518887042999268,0.14,1.11,1.19,1.63
11.529469013214111,0.1,1.47,0.67,1.61
11.53899598121643,0.13,2.18,0.39,2.21
11.551700115203857,0.21,2.74,0.51,2.79
11.55881404876709,0.36,2.93,0.79,3.05
11.569679975509644,0.56,3.19,1.42,3.53
11.57932710647583,1.0,3.63,2.46,4.49
11.588942050933838,0.83,3.62,2.53,4.49
11.602086067199707,0.69,3.65,1.73,4.09
11.608674049377441,0.5,4.29,0.76,4.38
11.619496822357178,-0.17,4.45,-0.91,4.54
11.629347801208496,-0.68,3.83,-2.87,4.83
11.639168977737427,-0.9,3.44,-4.16,5.47
11.652050971984863,-0.76,3.3,-4.22,5.41
11.658706903457642,-0.75,3.04,-3.1,4.4
11.669547080993652,-0.65,2.45,-1.46,2.92
11.679196834564209,-0.63,1.67,-0.29,1.8
11.689169883728027,-0.55,1.08,0.12,1.21
11.702544927597046,-0.12,0.68,-0.1,0.69
11.708611011505127,0.14,0.44,-0.48,0.66
11.719635009765625,0.18,0.1,-0.78,0.8
11.729312896728516,0.04,-0.26,-0.72,0.76
11.739006996154785,-0.21,-0.53,-0.39,0.69
11.752538919448853,-0.48,-0.88,-0.2,1.02
11.758826971054077,-0.67,-1.21,-0.32,1.41
11.769629955291748,-0.79,-1.58,-0.72,1.9
11.779326915740967,-0.84,-1.9,-1.15,2.37
11.789062976837158,-0.84,-2.17,-1.32,2.67
11.802428960800171,-0.83,-2.52,-1.36,2.98
11.808724880218506,-0.7,-2.8,-1.07,3.07
11.81958293914795,-0.47,-3.03,-0.55,3.11
11.829514980316162,-0.21,-3.28,-0.07,3.28
11.839302062988281,-0.03,-3.43,0.22,3.43
11.852273941040039,0.03,-3.5,0.26,3.5
11.858747959136963,0.03,-3.4,0.27,3.41
11.868948936462402,-0.05,-3.26,0.18,3.26
11.879508018493652,-0.11,-3.04,0.11,3.04
11.889058113098145,-0.18,-2.78,0.14,2.78
11.90271282196045,-0.35,-2.58,0.16,2.6
11.908737897872925,-0.49,-2.24,0.29,2.31
11.919749975204468,-0.51,-1.87,0.42,1.98
11.929245948791504,-0.48,-1.48,0.49,1.63
11.939250946044922,-0.35,-1.1,0.57,1.28
11.952220916748047,-0.27,-0.77,0.49,0.95
11.958745002746582,-0.15,-0.47,0.29,0.57
11.9699068069458,-0.11,-0.08,0.1,0.16
11.97939682006836,-0.12,0.19,-0.07,0.23
11.989290952682495,-0.06,0.38,-0.15,0.41
12.002882957458496,-0.13,0.57,0.05,0.58
12.009390830993652,-0.24,0.81,0.53,0.99
12.015592098236084,-0.28,1.06,1.07,1.53
12.025618076324463,-0.43,1.36,1.35,1.96
12.038350105285645,-0.51,1.64,1.26,2.13
12.044926881790161,-0.36,1.91,0.88,2.13
12.055558919906616,-0.04,1.98,0.33,2.0
12.065649032592773,0.13,1.85,-0.23,1.86
12.075891971588135,0.19,1.62,-0.52,1.71
12.088620901107788,0.13,1.7,-0.08,1.7
12.095001935958862,-0.08,2.53,1.29,2.84
12.105787992477417,-0.3,2.77,2.05,3.45
12.115545988082886,-0.09,2.26,1.59,2.76
12.125733852386475,0.27,2.79,1.1,3.01
12.138644933700562,0.59,3.65,0.27,3.7
12.144978046417236,1.06,3.53,-1.1,3.84
12.155524969100952,1.7,2.92,-2.18,4.02
12.165618896484375,2.08,2.52,-2.48,4.1
12.175551891326904,2.21,2.04,-2.15,3.69
12.189189910888672,2.06,1.38,-1.55,2.92
12.195067882537842,1.74,1.2,-0.57,2.18
12.20561695098877,1.3,0.75,-0.03,1.5
12.215637922286987,0.77,0.37,-0.1,0.86
12.225409030914307,0.19,0.24,-0.41,0.51
12.239317893981934,-0.17,0.14,-0.8,0.82
12.24505090713501,-0.39,0.08,-0.91,0.99
12.255824089050293,-0.48,0.05,-0.76,0.9
12.265687942504883,-0.58,-0.02,-0.53,0.78
12.275502920150757,-0.65,-0.14,-0.57,0.87
12.289450883865356,-0.61,-0.24,-0.91,1.12
12.295015811920166,-0.54,-0.34,-1.28,1.43
12.305917978286743,-0.43,-0.52,-1.52,1.66
12.315885066986084,-0.28,-0.93,-1.53,1.81
12.32628583908081,-0.2,-1.36,-1.24,1.85
12.340351104736328,-0.07,-1.74,-0.71,1.88
12.34512186050415,0.0,-2.19,-0.24,2.2
12.354950904846191,0.0,-2.61,0.08,2.61
12.365732908248901,0.04,-2.8,0.26,2.81
12.375658988952637,0.02,-2.93,0.34,2.94
12.388359069824219,0.02,-3.1,0.3,3.11
12.397685050964355,0.04,-3.15,0.28,3.16
12.408092021942139,-0.07,-3.15,0.25,3.16
12.418322086334229,-0.13,-3.13,0.27,3.14
12.429344892501831,-0.21,-3.07,0.26,3.08
12.43810510635376,-0.19,-2.89,0.21,2.9
12.453759908676147,-0.16,-2.68,0.17,2.69
12.45779299736023,-0.11,-2.35,0.24,2.36
12.468365907669067,-0.01,-2.07,0.24,2.08
12.479033946990967,0.1,-1.8,0.32,1.83
12.488189935684204,0.2,-1.43,0.46,1.51
12.503068923950195,0.24,-1.01,0.6,1.19
12.507771015167236,0.33,-0.59,0.71,0.98
12.518633842468262,0.36,-0.22,0.83,0.93
12.528901100158691,0.32,0.21,0.96,1.03
12.53845500946045,0.31,0.7,1.15,1.38
12.554073810577393,0.16,1.04,1.18,1.58
12.558377981185913,0.07,1.33,1.12,1.74
12.568418979644775,0.07,1.57,1.04,1.88
12.579258918762207,0.2,1.89,1.19,2.24
12.588167905807495,0.39,2.38,1.5,2.84
12.604079961776733,0.95,2.6,1.54,3.16
12.607781887054443,1.44,2.69,1.37,3.34
12.618649959564209,1.71,3.26,1.72,4.06
12.628972053527832,1.43,3.53,1.8,4.21
12.638197898864746,0.57,3.13,1.07,3.35
12.653206825256348,0.15,3.41,0.39,3.43
12.657817840576172,-0.48,3.83,-0.71,3.92
12.668625831604004,-1.3,3.34,-2.32,4.26
12.679311990737915,-1.91,2.65,-3.61,4.86
12.688291072845459,-2.2,2.38,-3.92,5.08
12.703023910522461,-2.17,2.3,-2.74,4.18
12.707864999771118,-2.1,1.87,-0.92,2.95
12.718442916870117,-1.94,1.15,0.3,2.27
12.729588985443115,-1.55,0.76,0.73,1.87
12.738241910934448,-1.03,0.67,0.56,1.35
12.753275871276855,-0.45,0.61,-0.12,0.76
12.757735967636108,0.1,0.77,-0.81,1.12
12.76844596862793,0.67,0.86,-1.21,1.62
12.779307842254639,0.83,0.85,-1.37,1.81
12.788311958312988,0.89,0.64,-1.38,1.76
12.802939891815186,0.78,0.36,-1.38,1.62
12.807836055755615,0.63,0.08,-1.46,1.59
12.818493843078613,0.59,-0.28,-1.66,1.78
12.8296480178833,0.4,-0.7,-1.69,1.87
12.838134765625,0.09,-1.18,-1.46,1.87
12.85271692276001,-0.16,-1.72,-1.05,2.02
12.857926845550537,-0.36,-2.21,-0.62,2.32
12.86857795715332,-0.48,-2.71,-0.13,2.75
12.879363059997559,-0.54,-3.11,0.41,3.18
12.888185024261475,-0.56,-3.46,0.84,3.6
12.90363097190857,-0.54,-3.69,1.0,3.86
12.9077889919281,-0.42,-3.73,0.84,3.84
12.918601036071777,-0.26,-3.57,0.5,3.61
12.929461002349854,-0.13,-3.39,0.14,3.39
12.938255786895752,-0.12,-3.14,-0.06,3.14
12.953508853912354,-0.19,-2.9,-0.17,2.91
12.957921981811523,-0.27,-2.65,-0.2,2.67
12.968568801879883,-0.43,-2.36,-0.12,2.4
12.98008394241333,-0.57,-2.1,0.02,2.17
12.988236904144287,-0.7,-1.88,0.2,2.01
13.004496097564697,-0.77,-1.65,0.44,1.87
13.007965087890625,-0.76,-1.37,0.69,1.71
13.018396854400635,-0.72,-1.09,0.86,1.56
13.029605865478516,-0.64,-0.75,0.92,1.34
13.038268089294434,-0.59,-0.38,0.84,1.09
13.054090023040771,-0.52,0.02,0.74,0.9
13.057923793792725,-0.43,0.48,0.74,0.98
13.06868600845337,-0.3,0.97,0.92,1.37
13.079644918441772,-0.12,1.56,1.26,2.0
13.08816909790039,0.04,2.11,1.57,2.63
13.104158878326416,0.14,2.6,1.75,3.13
13.10777997970581,-0.01,2.78,1.63,3.22
13.11856985092163,-0.27,2.7,1.13,2.93
13.129668951034546,-0.55,2.83,0.58,2.94
13.138189792633057,-0.76,3.65,0.72,3.79
13.153175830841064,-0.85,4.43,1.13,4.65
13.15781307220459,-0.73,4.11,0.66,4.22
13.168633937835693,-0.26,3.93,0.13,3.94
13.17974591255188,0.09,4.61,0.03,4.61
13.187818050384521,0.47,4.51,-0.73,4.59
13.202981948852539,1.09,3.22,-2.2,4.04
13.207894802093506,1.49,2.23,-3.09,4.09
13.217992782592773,1.52,1.67,-2.99,3.74
13.229919910430908,1.25,1.06,-1.86,2.47
13.237887859344482,0.95,0.38,-0.19,1.04
13.253769874572754,0.92,-0.38,0.94,1.36
13.25801706314087,0.78,-0.65,1.16,1.54
13.268066883087158,0.66,-0.39,0.72,1.05
13.280200004577637,0.57,-0.12,-0.23,0.62
13.288336992263794,0.41,-0.01,-1.09,1.16
13.304282903671265,0.24,0.06,-1.55,1.56
13.30798888206482,0.04,-0.03,-1.7,1.7
13.318863868713379,-0.15,-0.24,-1.66,1.68
13.330084800720215,-0.25,-0.46,-1.59,1.67
13.33804988861084,-0.33,-0.7,-1.59,1.76
13.354424953460693,-0.35,-0.97,-1.46,1.78
13.35804295539856,-0.4,-1.34,-1.21,1.84
13.368024826049805,-0.45,-1.78,-0.73,1.97
13.380265951156616,-0.52,-2.2,-0.18,2.26
13.3883638381958,-0.47,-2.62,0.23,2.67
13.404354095458984,-0.37,-2.89,0.5,2.95
13.407957077026367,-0.3,-3.08,0.55,3.14
13.418874979019165,-0.23,-3.18,0.54,3.23
13.429844856262207,-0.1,-3.22,0.57,3.27
13.438050985336304,-0.04,-3.1,0.51,3.14
13.45432996749878,0.01,-2.88,0.41,2.9
13.458089828491211,0.09,-2.66,0.26,2.67
13.46800184249878,0.1,-2.43,0.01,2.43
13.480382919311523,0.11,-2.16,-0.19,2.17
13.488225936889648,0.1,-1.91,-0.33,1.94
13.504602909088135,0.14,-1.69,-0.4,1.74
13.507962942123413,0.18,-1.47,-0.34,1.51
13.51871109008789,0.22,-1.29,-0.11,1.31
13.529913902282715,0.27,-1.18,0.28,1.24
13.538012981414795,0.25,-1.06,0.62,1.25
13.554504871368408,0.25,-0.9,0.83,1.24
13.558043003082275,0.21,-0.7,0.96,1.2
13.567835807800293,0.21,-0.31,1.18,1.23
13.58034610748291,0.22,0.15,1.37,1.39
13.587965965270996,0.15,0.57,1.44,1.55
13.603811979293823,0.0,0.83,1.24,1.49
13.60789680480957,-0.13,1.21,1.15,1.67
13.618000030517578,-0.1,2.06,1.66,2.64
13.630127906799316,-0.01,2.68,2.25,3.49
13.637969017028809,0.26,2.72,2.45,3.66
13.653943061828613,0.75,2.98,2.63,4.04
13.657923936843872,1.06,3.96,2.9,5.02
13.6680269241333,0.97,4.29,1.92,4.79
13.680226802825928,0.97,4.46,0.37,4.57
13.688250064849854,0.69,5.07,-0.98,5.2
13.704246997833252,0.18,5.05,-2.79,5.77
13.708117961883545,-0.4,4.12,-4.93,6.43
13.718793869018555,-0.63,3.46,-5.74,6.73
13.728384971618652,-0.96,2.94,-4.93,5.81
13.741850852966309,-1.21,2.18,-2.74,3.7
13.747929096221924,-1.37,1.33,-0.3,1.93
13.757977962493896,-1.3,0.58,1.36,1.96
13.768731117248535,-0.98,0.11,1.75,2.0
13.778556823730469,-0.53,0.05,1.19,1.3
13.79206395149231,-0.1,-0.02,0.01,0.1
13.797938823699951,0.26,-0.05,-0.98,1.01
13.807905912399292,0.35,-0.05,-1.45,1.49
13.818667888641357,0.27,-0.18,-1.49,1.52
13.828423023223877,0.1,-0.38,-1.32,1.37
13.84212589263916,-0.03,-0.53,-1.24,1.34
13.847962856292725,-0.11,-0.67,-1.33,1.49
13.858645915985107,-0.12,-0.95,-1.4,1.69
13.868664979934692,-0.17,-1.27,-1.24,1.78
13.878464937210083,-0.2,-1.65,-0.92,1.89
13.893596887588501,-0.14,-2.13,-0.52,2.19
13.898050785064697,-0.13,-2.54,-0.06,2.54
13.908024787902832,-0.04,-2.93,0.28,2.94
13.918759822845459,-0.02,-3.27,0.4,3.29
13.92858099937439,0.0,-3.49,0.43,3.51
13.942647933959961,-0.03,-3.59,0.37,3.6
13.948009967803955,-0.11,-3.6,0.24,3.6
13.958047866821289,-0.19,-3.52,0.17,3.52
13.968801975250244,-0.28,-3.41,0.05,3.42
13.97837781906128,-0.37,-3.15,0.02,3.17
13.991962909698486,-0.44,-2.85,0.09,2.88
13.997999906539917,-0.54,-2.53,0.25,2.59
14.008120059967041,-0.52,-2.12,0.45,2.22
14.018641948699951,-0.51,-1.73,0.54,1.88
14.028668880462646,-0.45,-1.37,0.57,1.55
14.042789936065674,-0.41,-1.1,0.55,1.29
14.048082828521729,-0.34,-0.85,0.41,1.0
14.058011054992676,-0.25,-0.42,0.42,0.64
14.068572998046875,-0.22,0.03,0.52,0.56
14.07851791381836,-0.24,0.47,0.69,0.86
14.092294931411743,-0.3,0.93,0.92,1.34
14.098031044006348,-0.27,1.48,1.32,2.0
14.108045101165771,-0.14,2.05,1.66,2.64
14.118882894515991,-0.05,2.5,1.76,3.05
14.128493785858154,-0.07,2.6,1.27,2.89
14.14220380783081,-0.13,2.41,0.27,2.42
14.148067951202393,-0.48,2.58,-0.52,2.67
14.157992839813232,-0.82,3.05,-0.55,3.2
14.168483972549438,-1.12,3.63,0.21,3.8
14.1785888671875,-1.18,3.79,0.99,4.09
14.192325115203857,-0.77,3.19,0.85,3.38
14.197886943817139,-0.08,3.3,0.64,3.36
14.208028793334961,0.25,3.67,0.5,3.71
14.21875,0.81,3.23,-0.3,3.34
14.228609085083008,1.66,2.59,-1.1,3.26
14.242410898208618,2.04,2.07,-1.71,3.37
14.2480788230896,1.96,1.51,-1.75,3.03
14.25805377960205,1.6,1.07,-1.21,2.27
14.268759965896606,1.55,0.69,-0.66,1.82
14.27853798866272,1.29,0.41,-0.5,1.44
14.292439937591553,0.66,0.06,-0.89,1.1
14.298123836517334,0.12,0.13,-1.05,1.06
14.308852910995483,-0.32,0.23,-1.19,1.25
14.318712949752808,-0.63,0.15,-1.36,1.5
14.328999042510986,-0.78,0.01,-1.4,1.6
14.342719078063965,-0.86,-0.02,-1.23,1.5
14.348104000091553,-0.76,-0.13,-1.12,1.35
14.35883092880249,-0.54,-0.29,-1.19,1.33
14.368820905685425,-0.21,-0.46,-1.18,1.28
14.378666877746582,0.04,-0.83,-1.18,1.44
14.392514944076538,0.19,-1.37,-1.0,1.7
14.397998809814453,0.39,-1.9,-0.63,2.03
14.408115863800049,0.45,-2.41,-0.28,2.46
14.41875696182251,0.47,-2.84,0.01,2.87
14.428585052490234,0.38,-3.23,0.34,3.27
14.442298889160156,0.24,-3.56,0.6,3.61
14.448104858398438,0.14,-3.76,0.85,3.85
14.458047866821289,0.08,-3.76,1.0,3.89
14.468763828277588,0.07,-3.64,0.98,3.77
14.478891849517822,0.08,-3.4,0.82,3.49
14.493204116821289,0.08,-3.12,0.48,3.15
14.498135089874268,-0.01,-2.75,0.09,2.75
14.508318901062012,-0.02,-2.36,-0.19,2.36
14.518809795379639,-0.06,-1.97,-0.31,1.99
14.528633117675781,-0.15,-1.59,-0.32,1.62
14.543542861938477,-0.27,-1.15,-0.2,1.19
14.548254013061523,-0.32,-0.71,-0.05,0.78
14.558173894882202,-0.31,-0.4,0.13,0.52
14.568692922592163,-0.25,-0.18,0.38,0.48
14.578635931015015,-0.12,-0.08,0.72,0.73
14.592458963394165,0.05,0.04,1.09,1.09
14.598026990890503,0.22,0.27,1.54,1.57
14.608207941055298,0.35,0.52,1.94,2.03
14.618155002593994,0.39,0.73,2.16,2.31
14.628893852233887,0.31,0.98,2.14,2.37
14.642508029937744,0.25,1.41,2.1,2.54
14.648114919662476,0.31,1.98,2.14,2.93
14.658198833465576,0.4,2.35,1.87,3.02
14.66898798942566,0.87,2.68,1.6,3.24
14.678489923477173,1.19,3.71,1.89,4.33
14.692352771759033,1.34,4.32,1.48,4.75
14.698071002960205,1.47,4.62,0.26,4.85
14.708230018615723,1.37,5.4,-0.71,5.61
14.718163967132568,1.01,5.67,-2.12,6.13
14.729099988937378,0.56,4.92,-3.89,6.29
14.742361068725586,0.05,3.86,-4.82,6.17
14.7481107711792,-0.64,2.94,-4.36,5.29
14.758225917816162,-1.4,1.99,-2.69,3.62
14.76905107498169,-1.85,0.96,-0.68,2.19
14.778629779815674,-1.9,-0.03,0.78,2.05
14.792378902435303,-1.57,-0.63,1.34,2.15
14.798176765441895,-1.09,-0.73,0.99,1.64
14.808221817016602,-0.43,-0.6,0.18,0.75
14.818994998931885,0.13,-0.47,-0.58,0.75
14.828738927841187,0.47,-0.34,-0.86,1.03
14.842480897903442,0.52,-0.3,-0.78,0.98
14.848186016082764,0.36,-0.36,-0.6,0.78
14.858267784118652,0.19,-0.38,-0.66,0.78
14.868813037872314,0.13,-0.38,-1.08,1.15
14.879034042358398,-0.02,-0.4,-1.64,1.68
14.89310598373413,-0.13,-0.53,-1.89,1.96
14.898251056671143,-0.33,-0.96,-1.77,2.04
14.908247947692871,-0.44,-1.55,-1.27,2.05
14.918889999389648,-0.54,-2.06,-0.61,2.21
14.928469896316528,-0.47,-2.55,0.01,2.59
14.941942930221558,-0.45,-2.99,0.42,3.05
14.948293924331665,-0.36,-3.37,0.64,3.44
14.958272933959961,-0.22,-3.65,0.67,3.71
14.968897819519043,-0.18,-3.69,0.66,3.75
14.978477954864502,-0.17,-3.61,0.6,3.66
14.991878986358643,-0.19,-3.51,0.43,3.54
14.998162984848022,-0.28,-3.31,0.23,3.32
15.008222103118896,-0.4,-3.0,0.12,3.02
15.018937110900879,-0.56,-2.58,0.13,2.64
15.02860403060913,-0.65,-2.11,0.31,2.22
15.042243003845215,-0.72,-1.68,0.51,1.89
15.048201084136963,-0.76,-1.28,0.72,1.65
15.05821704864502,-0.81,-0.87,0.84,1.45
15.068758964538574,-0.82,-0.47,0.86,1.27
15.078636884689331,-0.79,-0.17,0.75,1.1
15.092323780059814,-0.7,0.09,0.6,0.92
15.098047971725464,-0.61,0.48,0.6,0.98
15.108200073242188,-0.58,0.89,0.74,1.29
15.118937015533447,-0.44,1.38,1.05,1.78
15.128452777862549,-0.31,1.84,1.34,2.29
15.142237901687622,-0.09,2.44,1.66,2.95
15.148165941238403,0.17,2.79,1.51,3.17
15.158966064453125,0.2,2.92,0.75,3.02
15.168888092041016,0.16,2.97,-0.05,2.97
15.17919397354126,0.19,3.18,-0.58,3.23
15.192786931991577,-0.14,3.9,-0.04,3.9
15.198162078857422,-0.37,4.3,0.52,4.34
15.208308935165405,-0.19,3.62,0.03,3.62
15.21865177154541,0.42,3.58,-0.39,3.62
15.22862195968628,0.67,4.33,-0.12,4.38
15.242178916931152,1.02,4.02,-0.56,4.18
15.248283863067627,1.71,2.68,-1.72,3.61
15.258256912231445,2.22,1.81,-2.18,3.59
15.269056797027588,2.27,1.23,-1.95,3.23
15.278579950332642,2.12,0.6,-1.22,2.51
15.291998863220215,1.68,0.04,-0.3,1.7
15.29822301864624,1.32,-0.39,0.17,1.38
15.30837106704712,0.99,-0.52,0.02,1.11
15.319046974182129,0.61,-0.38,-0.57,0.91
15.328632831573486,0.4,-0.25,-1.13,1.22
15.3420090675354,0.17,-0.27,-1.48,1.51
15.34818696975708,0.0,-0.37,-1.37,1.41
15.35901689529419,-0.16,-0.47,-0.93,1.05
15.368999004364014,-0.27,-0.6,-0.57,0.87
15.378994941711426,-0.29,-0.76,-0.45,0.92
15.393265962600708,-0.24,-0.88,-0.44,1.01
15.398178100585938,0.02,-0.98,-0.44,1.07
15.40900707244873,0.1,-1.21,-0.34,1.26
15.418962001800537,0.18,-1.48,-0.17,1.5
15.42879581451416,0.49,-1.79,0.02,1.85
15.442813873291016,0.35,-2.22,0.04,2.24
15.448244094848633,0.24,-2.6,0.11,2.61
15.458276987075806,0.17,-2.86,0.19,2.87
15.468822002410889,0.01,-3.1,0.37,3.12
15.478675842285156,-0.14,-3.26,0.53,3.3
15.492053031921387,-0.31,-3.35,0.56,3.41
15.498183965682983,-0.4,-3.28,0.5,3.34
15.508359909057617,-0.31,-3.04,0.22,3.06
15.51915192604065,-0.15,-2.72,-0.28,2.73
15.528841018676758,0.0,-2.27,-0.76,2.39
15.542273998260498,0.04,-1.74,-0.84,1.93
15.548268795013428,-0.04,-1.39,-0.6,1.51
15.55834698677063,0.0,-1.13,-0.18,1.14
15.568885803222656,0.04,-0.78,0.33,0.84
15.578742027282715,0.07,-0.47,0.86,0.98
15.592284917831421,0.1,-0.23,1.14,1.16
15.598331928253174,0.12,0.09,1.29,1.29
15.608430862426758,0.06,0.37,1.26,1.31
15.618969917297363,0.03,0.59,1.22,1.35
15.62883186340332,-0.06,0.75,1.15,1.37
15.642258882522583,-0.08,0.85,0.77,1.14
15.648268938064575,-0.08,1.11,0.52,1.22
15.658361911773682,-0.16,1.68,0.75,1.84
15.669248104095459,-0.2,2.09,1.14,2.38
15.678674936294556,-0.1,2.17,1.42,2.59
15.69175100326538,0.16,2.59,1.88,3.2
15.698348999023438,0.23,3.24,2.26,3.95
15.709142923355103,0.54,3.45,1.69,3.87
15.719043970108032,0.96,3.65,0.55,3.81
15.729043006896973,1.0,4.07,-0.57,4.22
15.742549896240234,0.93,3.98,-2.2,4.64
15.748283863067627,0.88,3.55,-3.77,5.25
15.758398056030273,0.51,3.34,-4.3,5.46
15.769067764282227,-0.16,3.15,-3.4,4.63
15.778877973556519,-0.97,2.59,-1.64,3.21
15.792234897613525,-1.55,2.01,0.27,2.55
15.798264980316162,-1.85,1.42,1.41,2.72
15.80830693244934,-1.75,0.8,1.35,2.35
15.819011926651001,-1.4,0.36,0.62,1.57
15.828989028930664,-0.92,0.04,-0.33,0.97
15.842681884765625,-0.4,-0.25,-1.01,1.11
15.848361015319824,0.0,-0.39,-1.16,1.22
15.858337879180908,0.24,-0.58,-1.07,1.24
15.869205951690674,0.42,-0.8,-0.95,1.31
15.879296779632568,0.45,-1.05,-0.94,1.47
15.893036842346191,0.47,-1.29,-1.13,1.77
15.898326873779297,0.44,-1.54,-1.35,2.09
15.909204959869385,0.35,-1.76,-1.29,2.21
15.91905689239502,0.15,-2.16,-0.93,2.35
15.929172039031982,-0.12,-2.57,-0.48,2.61
15.943481922149658,-0.37,-2.87,-0.01,2.89
15.948527812957764,-0.51,-3.07,0.32,3.12
15.958448886871338,-0.62,-3.14,0.51,3.24
15.968998908996582,-0.66,-3.15,0.51,3.25
15.979321956634521,-0.67,-3.08,0.44,3.18
15.992968082427979,-0.67,-2.97,0.33,3.06
15.998378992080688,-0.65,-2.84,0.18,2.91
16.009161949157715,-0.67,-2.71,-0.05,2.79
16.016334056854248,-0.71,-2.52,-0.22,2.62
16.026911973953247,-0.73,-2.28,-0.19,2.4
16.039647102355957,-0.79,-2.05,0.01,2.19
16.045654773712158,-0.79,-1.82,0.24,1.99
16.0558979511261,-0.72,-1.58,0.3,1.76
16.06642198562622,-0.62,-1.25,0.35,1.43
16.076749801635742,-0.54,-0.92,0.49,1.17
16.089459896087646,-0.47,-0.66,0.69,1.06
16.095762968063354,-0.43,-0.37,0.83,1.0
16.10662078857422,-0.39,-0.01,0.99,1.06
16.11628007888794,-0.38,0.48,1.17,1.32
16.1266188621521,-0.22,0.96,1.49,1.78
16.140739917755127,-0.12,1.33,1.61,2.09
16.14583992958069,0.03,1.73,1.65,2.39
16.156474113464355,0.26,2.04,1.54,2.56
16.166507959365845,0.4,2.35,1.28,2.7
16.176389932632446,0.42,2.49,0.72,2.62
16.191876888275146,0.16,2.37,-0.38,2.4
16.196005821228027,0.01,2.5,-1.2,2.77
16.2066068649292,-0.31,3.14,-1.13,3.35
16.216384887695312,-0.69,4.02,-0.05,4.07
16.227057933807373,-0.67,4.15,0.82,4.28
16.24074077606201,-0.26,3.37,0.41,3.4
16.24591088294983,0.37,3.48,-0.16,3.5
16.256539821624756,0.89,4.04,-0.23,4.14
16.266413927078247,1.47,3.24,-0.88,3.66
16.276381969451904,2.05,1.93,-1.38,3.13
16.290477991104126,2.11,1.09,-1.19,2.65
16.295753002166748,2.12,0.56,-0.39,2.22
16.30703592300415,1.63,0.22,0.41,1.69
16.316431045532227,1.35,-0.34,0.75,1.58
16.327327966690063,0.92,-0.58,0.54,1.21
16.341858863830566,0.44,-0.43,0.14,0.63
16.345955848693848,-0.04,-0.26,-0.32,0.41
16.355970859527588,-0.51,-0.29,-0.68,0.89
16.36643099784851,-0.87,-0.38,-0.82,1.25
16.3762309551239,-1.04,-0.33,-0.85,1.38
16.38881492614746,-0.98,-0.2,-1.1,1.48
16.399776935577393,-0.75,-0.15,-1.45,1.63
16.410762786865234,-0.41,-0.3,-1.61,1.68
16.42076301574707,-0.01,-0.54,-1.63,1.71
16.430252075195312,0.2,-1.08,-1.53,1.88
16.445140838623047,0.28,-1.65,-1.01,1.95
16.449842929840088,0.22,-2.21,-0.33,2.24
16.46066689491272,0.03,-2.7,0.2,2.7
16.47047710418701,-0.19,-3.09,0.48,3.13
16.480520963668823,-0.3,-3.28,0.58,3.34
16.49688482284546,-0.37,-3.38,0.54,3.44
16.499751091003418,-0.39,-3.4,0.39,3.44
16.509812831878662,-0.38,-3.32,0.17,3.34
16.520537853240967,-0.26,-3.13,-0.14,3.14
16.53049898147583,-0.15,-2.91,-0.49,2.95
16.544656991958618,-0.11,-2.61,-0.54,2.66
16.54974389076233,-0.05,-2.29,-0.29,2.3
16.55984592437744,0.04,-1.96,0.07,1.96
16.570600032806396,0.14,-1.59,0.39,1.64
16.580109119415283,0.21,-1.23,0.74,1.45
16.593521118164062,0.3,-0.97,0.9,1.35
16.599751949310303,0.37,-0.72,0.85,1.17
16.610547065734863,0.4,-0.39,0.78,0.95
16.620446920394897,0.43,0.02,0.89,0.98
16.630588054656982,0.44,0.48,1.16,1.33
16.64464497566223,0.46,0.85,1.37,1.67
16.649842977523804,0.38,1.05,1.49,1.86
16.660510063171387,0.28,1.35,1.69,2.18
16.67046093940735,0.29,1.98,2.09,2.89
16.680488109588623,0.45,2.52,2.4,3.5
16.695164918899536,0.67,2.62,2.2,3.48
16.69980478286743,1.03,2.73,1.64,3.34
16.709832906723022,1.44,3.56,1.46,4.1
16.720523834228516,1.51,4.31,1.21,4.72
16.730531930923462,1.42,4.39,0.12,4.61
16.746227979660034,1.23,4.74,-1.01,5.0
16.749950885772705,0.86,5.19,-2.06,5.64
16.759758949279785,0.12,4.54,-3.49,5.72
16.770416975021362,-0.6,3.42,-3.95,5.25
16.779980897903442,-1.37,2.61,-3.4,4.49
16.79385495185852,-1.69,2.17,-2.24,3.54
16.799810886383057,-1.78,1.84,-0.99,2.74
16.810560941696167,-1.62,1.54,0.05,2.23
16.82050609588623,-1.35,1.02,0.4,1.73
16.83032989501953,-0.96,0.64,0.3,1.19
16.844911098480225,-0.52,0.34,-0.28,0.68
16.85002088546753,-0.06,0.13,-0.93,0.94
16.8606059551239,0.23,-0.11,-1.23,1.25
16.870539903640747,0.27,-0.45,-1.05,1.17
16.880589962005615,0.17,-0.78,-0.67,1.04
16.895576000213623,0.13,-1.18,-0.36,1.24
16.899874925613403,0.0,-1.6,-0.4,1.64
16.910572052001953,-0.06,-2.08,-0.52,2.14
16.920562982559204,-0.24,-2.5,-0.55,2.57
16.9304039478302,-0.42,-2.83,-0.35,2.88
16.94494104385376,-0.58,-3.16,-0.23,3.22
16.949827909469604,-0.7,-3.4,-0.19,3.47
16.959877967834473,-0.72,-3.52,0.09,3.59
16.97050905227661,-0.6,-3.64,0.37,3.7
16.980135917663574,-0.42,-3.69,0.28,3.72
16.993690967559814,-0.17,-3.61,-0.07,3.61
16.999831914901733,0.15,-3.41,-0.41,3.43
17.010662078857422,0.24,-3.35,-0.63,3.41
17.020549774169922,0.26,-3.23,-0.64,3.3
17.030396938323975,0.25,-3.03,-0.51,3.08
17.0453999042511,0.12,-2.82,-0.26,2.83
17.050026893615723,-0.09,-2.59,0.02,2.59
17.060616970062256,-0.37,-2.3,0.29,2.34
17.0705668926239,-0.57,-1.86,0.55,2.02
17.08057689666748,-0.66,-1.35,0.76,1.68
17.09484100341797,-0.62,-0.82,0.84,1.32
17.099886894226074,-0.67,-0.34,0.89,1.16
17.110431909561157,-0.67,0.05,0.93,1.14
17.12046480178833,-0.54,0.52,1.0,1.24
17.13066792488098,-0.31,1.16,1.07,1.6
17.145668029785156,-0.05,1.73,1.11,2.05
17.150012016296387,0.05,2.23,1.14,2.5
17.160502910614014,0.15,2.62,1.08,2.83
17.17061495780945,0.31,3.05,1.03,3.23
17.180696964263916,0.33,3.22,0.83,3.34
17.194264888763428,0.0,3.05,0.37,3.07
17.199826955795288,-0.3,2.89,-0.13,2.9
17.20996379852295,-0.81,2.94,-0.42,3.07
17.22063684463501,-1.07,3.57,0.11,3.72
17.23044776916504,-1.02,3.95,0.72,4.14
17.244903087615967,-0.71,3.32,0.16,3.39
17.25005793571472,0.07,2.95,-0.47,2.98
17.260694980621338,0.83,3.29,-0.8,3.48
17.270742893218994,1.42,2.94,-1.43,3.56
17.28097677230835,2.27,1.88,-1.84,3.47
17.29534888267517,2.83,0.96,-1.76,3.46
17.299916982650757,2.87,0.49,-1.22,3.15
17.3099308013916,2.87,0.09,-0.39,2.89
17.32063579559326,2.68,-0.25,0.25,2.7
17.330202102661133,2.08,-0.51,0.64,2.23
17.343862056732178,1.44,-0.48,0.9,1.76
17.349881887435913,0.6,-0.34,0.81,1.06
17.360650062561035,-0.14,-0.25,0.46,0.54
17.370601892471313,-0.68,-0.2,0.04,0.7
17.380448818206787,-1.22,0.04,-0.47,1.3
17.394968032836914,-1.52,0.13,-1.18,1.92
17.399887084960938,-1.79,0.1,-1.96,2.65
17.410658836364746,-1.78,0.17,-2.36,2.96
17.42070198059082,-1.49,0.13,-2.37,2.8
17.430718898773193,-1.18,-0.28,-2.01,2.34
17.44546389579773,-0.74,-0.69,-1.38,1.71
17.450073957443237,-0.4,-1.18,-0.57,1.37
17.460658073425293,-0.32,-1.82,0.25,1.86
17.470688819885254,-0.29,-2.44,0.91,2.62
17.480452060699463,-0.27,-2.93,1.26,3.2
17.494354963302612,-0.22,-3.21,1.28,3.46
17.499886989593506,-0.19,-3.34,1.09,3.51
17.51002597808838,-0.16,-3.29,0.88,3.4
17.520683765411377,-0.09,-3.11,0.71,3.19
17.53058099746704,-0.04,-2.8,0.54,2.85
17.544692993164062,0.11,-2.46,0.34,2.48
17.54989004135132,0.18,-2.1,0.02,2.1
17.559968948364258,0.19,-1.73,-0.31,1.76
17.570497035980225,0.19,-1.41,-0.51,1.51
17.580656051635742,0.21,-1.06,-0.39,1.14
17.59433603286743,0.33,-0.74,-0.07,0.81
17.599874019622803,0.42,-0.56,0.21,0.73
17.610787868499756,0.43,-0.39,0.65,0.87
17.62070393562317,0.42,-0.24,1.06,1.16
17.6307110786438,0.49,-0.06,1.34,1.42
17.64515495300293,0.56,0.23,1.66,1.76
17.650064945220947,0.56,0.49,1.81,1.95
17.660030841827393,0.55,0.63,1.76,1.94
17.67053198814392,0.51,0.67,1.5,1.72
17.68021297454834,0.44,1.03,1.49,1.86
17.693418979644775,0.42,1.6,1.78,2.42
17.699955940246582,0.49,1.9,1.95,2.76
17.710782051086426,0.51,2.03,1.71,2.7
17.720633029937744,0.66,2.66,1.52,3.13
17.73048686981201,0.81,3.68,1.48,4.04
17.744719982147217,0.63,3.97,0.73,4.08
17.749889850616455,0.44,4.04,-0.37,4.08
17.760693073272705,0.3,4.5,-1.41,4.72
17.7706561088562,0.09,4.59,-2.66,5.3
17.7806978225708,-0.31,4.03,-3.65,5.44
17.795342922210693,-0.87,3.21,-3.8,5.04
17.80004596710205,-1.37,2.46,-2.99,4.1
17.81076693534851,-1.56,1.98,-1.53,2.94
17.82063388824463,-1.62,1.36,-0.2,2.12
17.83046007156372,-1.55,0.68,0.56,1.78
17.84553289413452,-1.19,0.2,0.71,1.4
17.850173950195312,-0.65,-0.09,0.22,0.69
17.86004400253296,-0.17,-0.26,-0.43,0.53
17.870728969573975,0.21,-0.41,-0.9,1.01
17.88063907623291,0.29,-0.52,-0.9,1.07
17.894170999526978,0.22,-0.67,-0.78,1.05
17.900105953216553,0.03,-0.92,-0.73,1.17
17.910236835479736,0.0,-1.12,-0.65,1.29
17.920665979385376,-0.08,-1.35,-0.79,1.56
17.93049383163452,-0.12,-1.69,-1.08,2.0
17.9441978931427,-0.25,-1.84,-1.2,2.21
17.950029850006104,-0.35,-2.04,-1.19,2.38
17.960094928741455,-0.41,-2.3,-1.02,2.54
17.970909118652344,-0.46,-2.52,-0.7,2.65
17.9805109500885,-0.4,-2.73,-0.43,2.79
17.99390697479248,-0.4,-2.89,-0.17,2.92
18.0000319480896,-0.38,-3.02,0.11,3.04
18.010179042816162,-0.36,-3.14,0.26,3.17
18.020628929138184,-0.32,-3.14,0.22,3.16
18.030808925628662,-0.28,-3.04,0.1,3.05
18.044534921646118,-0.26,-2.87,-0.08,2.88
18.050092935562134,-0.16,-2.62,-0.16,2.62
18.060627937316895,-0.16,-2.32,-0.12,2.32
18.070841789245605,-0.22,-2.11,-0.05,2.12
18.080749988555908,-0.26,-1.87,0.04,1.88
18.095115900039673,-0.36,-1.58,0.17,1.62
18.100106954574585,-0.47,-1.32,0.34,1.44
18.11010980606079,-0.54,-0.99,0.53,1.24
18.120851039886475,-0.5,-0.58,0.77,1.08
18.130631923675537,-0.44,-0.21,1.02,1.13
18.145704984664917,-0.4,0.23,1.12,1.21
18.150235891342163,-0.38,0.64,1.03,1.27
18.16008186340332,-0.26,1.07,0.8,1.36
18.170809984207153,-0.11,1.5,0.44,1.56
18.180781841278076,0.1,2.0,0.13,2.0
18.19454288482666,0.37,2.51,-0.07,2.53
18.200098037719727,0.52,2.88,-0.16,2.93
18.210887908935547,0.4,3.03,-0.21,3.06
18.220841884613037,0.27,2.85,-0.47,2.9
18.230754852294922,0.08,2.8,-0.6,2.86
18.245357036590576,-0.34,3.35,0.15,3.37
18.25027084350586,-0.48,3.71,1.07,3.89
18.260161876678467,-0.29,2.91,0.6,2.98
18.270875930786133,0.1,2.39,-0.27,2.4
18.280823945999146,0.44,2.9,-0.35,2.95
18.29525899887085,0.65,3.2,-0.32,3.28
18.300132989883423,1.27,2.34,-0.71,2.75
18.310134887695312,1.66,1.72,-0.79,2.51
18.320860862731934,1.8,1.39,-0.59,2.34
18.330780029296875,1.75,1.01,-0.35,2.05
18.344922065734863,1.52,0.68,-0.02,1.66
18.350167989730835,1.25,0.3,0.12,1.29
18.360768795013428,0.86,0.12,-0.06,0.87
18.37075185775757,0.47,0.25,-0.5,0.73
18.380558013916016,0.25,0.3,-0.9,0.98
18.394423961639404,0.0,0.25,-1.04,1.06
18.400125980377197,-0.29,0.17,-1.08,1.13
18.410831928253174,-0.45,0.04,-1.04,1.13
18.42073678970337,-0.51,-0.16,-1.07,1.19
18.430694103240967,-0.42,-0.37,-1.18,1.3
18.445129871368408,-0.21,-0.66,-1.22,1.4
18.450210094451904,-0.02,-1.01,-1.11,1.5
18.46089792251587,0.14,-1.44,-0.87,1.68
18.47088098526001,0.08,-2.03,-0.53,2.09
18.48083782196045,0.18,-2.48,0.0,2.48
18.494618892669678,0.09,-2.85,0.33,2.87
18.500196933746338,0.01,-3.17,0.47,3.2
18.510889053344727,-0.04,-3.24,0.55,3.28
18.520846843719482,-0.06,-3.27,0.59,3.32
18.530885934829712,-0.19,-3.26,0.57,3.31
18.545700073242188,-0.31,-3.2,0.48,3.25
18.55032205581665,-0.35,-3.0,0.32,3.03
18.560961961746216,-0.3,-2.77,0.11,2.78
18.570717811584473,-0.23,-2.53,-0.1,2.54
18.580687046051025,-0.2,-2.22,-0.32,2.25
18.594449043273926,-0.08,-1.85,-0.49,1.91
18.60020089149475,0.04,-1.51,-0.56,1.61
18.61022710800171,0.1,-1.23,-0.37,1.28
18.62089991569519,0.21,-1.0,0.11,1.02
18.630862951278687,0.3,-0.81,0.66,1.08
18.64542007446289,0.27,-0.65,1.04,1.25
18.650296926498413,0.36,-0.45,1.23,1.35
18.660229921340942,0.37,-0.06,1.29,1.34
18.670892000198364,0.28,0.51,1.34,1.46
18.68088388442993,0.41,0.93,1.33,1.67
18.6947078704834,0.36,1.25,1.17,1.74
18.700195789337158,0.27,1.7,1.29,2.15
18.711029052734375,0.24,2.03,1.42,2.48
18.72089195251465,0.21,2.47,1.58,2.93
18.730823040008545,0.28,2.79,1.56,3.2
18.745184898376465,0.61,2.86,1.16,3.14
18.75042200088501,1.09,3.19,0.92,3.49
18.760252952575684,1.47,4.04,1.43,4.53
18.77087688446045,1.51,4.37,1.36,4.81
18.780980110168457,1.45,4.16,0.57,4.44
18.794804096221924,1.29,4.17,-0.33,4.37
18.800117015838623,0.88,4.1,-1.6,4.48
18.81101083755493,0.34,3.58,-2.89,4.61
18.820878982543945,-0.21,2.67,-3.58,4.47
18.830721855163574,-0.87,1.93,-3.26,3.88
18.844878911972046,-1.29,1.39,-2.06,2.79
18.85039186477661,-1.64,0.79,-0.58,1.91
18.8608660697937,-1.67,0.22,0.45,1.74
18.87085199356079,-1.34,-0.27,0.52,1.46
18.880844116210938,-0.93,-0.34,0.09,0.99
18.895755767822266,-0.47,-0.4,-0.6,0.86
18.90023398399353,-0.14,-0.41,-1.07,1.15
18.911190032958984,0.22,-0.4,-1.04,1.13
18.920724868774414,0.52,-0.38,-0.78,1.01
18.930448055267334,0.67,-0.47,-0.6,1.01
18.944189071655273,0.82,-0.48,-0.59,1.11
18.950210094451904,0.84,-0.51,-0.96,1.37
18.960336923599243,0.88,-0.52,-1.44,1.76
18.970984935760498,0.7,-0.65,-1.87,2.09
18.981000900268555,0.36,-0.97,-1.91,2.17
18.99535894393921,-0.02,-1.56,-1.63,2.25
19.000277996063232,-0.45,-2.1,-1.1,2.41
19.01100993156433,-0.85,-2.55,-0.46,2.72
19.02102494239807,-1.02,-2.96,0.1,3.13
19.031028985977173,-1.13,-3.36,0.53,3.58
19.04493808746338,-1.18,-3.59,0.73,3.84
19.050331115722656,-1.08,-3.71,0.71,3.92
19.060897827148438,-0.97,-3.77,0.51,3.92
19.071005821228027,-0.82,-3.71,0.26,3.8
19.080899000167847,-0.64,-3.5,-0.01,3.55
19.09523105621338,-0.47,-3.17,-0.22,3.21
19.100255012512207,-0.27,-2.86,-0.12,2.87
19.111149787902832,-0.23,-2.54,0.11,2.55
19.12093210220337,-0.26,-2.22,0.25,2.24
19.131010055541992,-0.23,-1.78,0.42,1.84
19.146034955978394,-0.22,-1.29,0.42,1.37
19.150430917739868,-0.31,-0.85,0.32,0.95
19.160990953445435,-0.44,-0.46,0.28,0.69
19.17089080810547,-0.55,-0.12,0.3,0.63
19.18090796470642,-0.54,0.34,0.51,0.81
19.19566798210144,-0.44,0.87,0.81,1.26
19.200255870819092,-0.32,1.35,1.09,1.76
19.210376977920532,-0.2,1.82,1.37,2.28
19.221065998077393,-0.01,2.2,1.56,2.69
19.23107099533081,0.08,2.52,1.72,3.05
19.244462966918945,0.15,2.71,1.65,3.17
19.250345945358276,0.13,2.72,1.12,2.94
19.26102590560913,-0.05,2.72,0.29,2.73
19.27101993560791,-0.34,2.93,-0.17,2.95
19.28093695640564,-0.77,3.56,0.15,3.64
19.295387983322144,-0.87,4.28,1.14,4.51
19.300309896469116,-0.64,4.22,1.36,4.47
19.311100006103516,-0.09,3.98,0.78,4.05
19.320941925048828,0.47,4.33,0.24,4.36
19.330986976623535,0.99,4.47,-0.6,4.61
19.34489893913269,1.52,3.59,-1.66,4.23
19.350368976593018,1.8,2.27,-2.28,3.68
19.36112093925476,1.59,1.28,-2.24,3.03
19.370929956436157,1.32,0.5,-1.51,2.06
19.38102889060974,0.93,-0.26,-0.5,1.08
19.394651889801025,0.61,-0.84,0.4,1.11
19.400288105010986,0.35,-1.08,0.6,1.28
19.41116690635681,0.15,-0.97,0.27,1.01
19.420909881591797,0.07,-0.74,-0.33,0.81
19.43106985092163,0.14,-0.56,-0.83,1.01
19.444690942764282,0.15,-0.48,-1.1,1.2
19.45038080215454,0.19,-0.4,-1.04,1.13
19.46120595932007,0.28,-0.32,-0.85,0.95
19.47102403640747,0.31,-0.31,-0.79,0.9
19.480978965759277,0.19,-0.33,-1.0,1.07
19.494646072387695,0.08,-0.36,-1.33,1.38
19.500401973724365,0.03,-0.41,-1.54,1.59
19.51054286956787,-0.14,-0.62,-1.62,1.74
19.521119117736816,-0.26,-0.89,-1.24,1.54
19.53110408782959,-0.47,-1.33,-0.84,1.64
19.544091939926147,-0.72,-1.88,-0.37,2.04
19.550457000732422,-0.82,-2.36,0.0,2.49
19.560529947280884,-0.71,-2.76,0.29,2.86
19.571091890335083,-0.62,-3.03,0.49,3.13
19.581073999404907,-0.5,-3.14,0.61,3.23
19.594554901123047,-0.36,-3.19,0.58,3.26
19.60042905807495,-0.25,-3.08,0.48,3.12
19.61049795150757,-0.05,-2.84,0.3,2.85
19.621084928512573,0.15,-2.59,0.11,2.59
19.631058931350708,0.29,-2.33,-0.07,2.34
19.644953966140747,0.34,-2.08,-0.12,2.11
19.650460958480835,0.32,-1.84,-0.01,1.86
19.660505771636963,0.23,-1.61,0.25,1.64
19.671191930770874,0.15,-1.42,0.62,1.55
19.680729866027832,0.05,-1.22,0.96,1.55
19.69395089149475,0.01,-1.0,1.13,1.5
19.700459957122803,0.05,-0.77,1.16,1.39
19.710497856140137,0.06,-0.47,1.16,1.25
19.720841884613037,0.13,0.0,1.23,1.23
19.730722904205322,0.29,0.45,1.29,1.39
19.74486494064331,0.39,0.71,1.24,1.48
19.750475883483887,0.26,1.12,1.31,1.74
19.76123595237732,0.2,1.7,1.71,2.41
19.771081924438477,0.24,2.21,2.14,3.08
19.781054973602295,0.49,2.41,2.08,3.22
19.794708967208862,1.04,2.64,1.64,3.27
19.800538063049316,1.65,3.57,1.72,4.29
19.81058979034424,1.88,4.28,1.25,4.83
19.821176052093506,1.88,4.3,-0.41,4.71
19.831567764282227,1.62,4.92,-1.44,5.37
19.84521794319153,0.9,5.57,-2.12,6.02
19.850632905960083,0.11,4.88,-3.31,5.89
19.860513925552368,-0.8,3.74,-3.9,5.46
19.871144771575928,-1.6,2.63,-3.48,4.64
19.88100290298462,-2.31,1.64,-2.18,3.57
19.89531183242798,-2.68,1.0,-0.29,2.87
19.90054702758789,-2.76,0.25,0.92,2.92
19.911262035369873,-2.03,-0.4,1.01,2.3
19.921081066131592,-1.24,-0.42,0.6,1.44
19.93116283416748,-0.37,-0.34,-0.21,0.54
19.946306943893433,0.31,-0.21,-0.89,0.96
19.95066499710083,0.82,-0.05,-0.98,1.27
19.961201906204224,0.91,-0.08,-0.79,1.2
19.971155881881714,0.82,-0.22,-0.56,1.01
19.980937957763672,0.68,-0.31,-0.5,0.89
19.996301889419556,0.47,-0.37,-0.7,0.92
20.00079107284546,0.3,-0.56,-1.13,1.29
20.01082181930542,0.06,-0.93,-1.38,1.66
20.018540859222412,-0.22,-1.41,-1.18,1.85
20.027551889419556,-0.51,-1.91,-0.75,2.11
20.041050910949707,-0.63,-2.32,-0.32,2.42
20.0465669631958,-0.58,-2.66,0.03,2.72
20.057191848754883,-0.52,-2.92,0.2,2.97
20.06827688217163,-0.45,-3.12,0.26,3.16
20.07732582092285,-0.42,-3.2,0.28,3.23
20.091851949691772,-0.39,-3.2,0.18,3.22
20.096603870391846,-0.39,-3.14,0.07,3.16
20.107374906539917,-0.35,-2.97,0.12,2.99
20.11957097053528,-0.35,-2.79,0.16,2.81
20.12754988670349,-0.34,-2.54,0.13,2.56
20.143390893936157,-0.35,-2.22,0.17,2.25
20.146721839904785,-0.32,-2.0,0.37,2.05
20.157114028930664,-0.33,-1.77,0.7,1.93
20.16875982284546,-0.23,-1.42,1.18,1.86
20.177134037017822,-0.14,-1.18,1.49,1.9
20.191844940185547,0.0,-0.85,1.78,1.97
20.196549892425537,0.15,-0.55,1.99,2.07
20.207304000854492,0.18,-0.19,1.89,1.9
20.218930959701538,0.24,0.11,1.45,1.47
20.22753381729126,0.26,0.56,0.96,1.14
20.241853952407837,0.26,1.09,0.55,1.24
20.2466778755188,0.19,1.56,0.37,1.61
20.257102012634277,0.08,2.01,0.44,2.05
20.268513917922974,0.02,2.29,0.47,2.33
20.27746891975403,-0.04,2.41,0.21,2.41
20.292335987091064,-0.26,2.55,-0.17,2.56
20.296751976013184,-0.57,2.79,-0.57,2.9
20.30745506286621,-0.85,3.15,-0.63,3.32
20.318835973739624,-1.24,3.69,0.18,3.89
20.327655792236328,-1.3,3.58,0.71,3.87
20.341871976852417,-0.97,2.79,-0.13,2.95
20.346755981445312,-0.38,2.7,-1.01,2.9
20.35680389404297,0.14,3.19,-1.16,3.39
20.369028091430664,0.79,2.72,-1.11,3.04
20.377182006835938,1.59,1.69,-0.9,2.48
20.391750812530518,2.07,1.06,-0.38,2.35
20.4006028175354,2.25,0.62,-0.15,2.33
20.41137981414795,2.14,0.33,-0.09,2.16
20.421257972717285,1.82,0.22,0.25,1.85
20.431395053863525,1.29,0.07,0.38,1.34
20.44572877883911,0.69,0.01,0.07,0.69
20.451240062713623,0.38,-0.06,-0.4,0.55
20.460681915283203,0.11,-0.07,-0.97,0.97
20.471319913864136,-0.04,0.09,-1.36,1.36
20.481525897979736,-0.13,0.38,-1.73,1.77
20.496506929397583,0.0,0.47,-2.05,2.1
20.50106906890869,0.06,0.61,-2.11,2.19
20.510782957077026,0.14,0.5,-1.91,1.97
20.52106285095215,0.17,0.23,-1.53,1.55
20.531243801116943,0.13,-0.2,-1.12,1.14
20.544907093048096,0.06,-0.77,-0.77,1.09
20.551122903823853,-0.1,-1.43,-0.42,1.49
20.560728073120117,-0.35,-2.0,-0.03,2.03
20.57115888595581,-0.59,-2.51,0.33,2.59
20.581214904785156,-0.77,-2.99,0.58,3.14
20.594605922698975,-0.89,-3.33,0.82,3.54
20.601144790649414,-0.99,-3.52,0.93,3.77
20.6107120513916,-0.98,-3.52,0.92,3.76
20.621100902557373,-0.86,-3.32,0.83,3.52
20.63129496574402,-0.76,-3.07,0.65,3.22
20.645139932632446,-0.56,-2.78,0.44,2.86
20.65142583847046,-0.35,-2.49,0.21,2.52
20.660732984542847,-0.16,-2.24,-0.01,2.24
20.671313762664795,-0.07,-2.03,-0.24,2.04
20.681302070617676,-0.01,-1.76,-0.34,1.79
20.695316791534424,-0.02,-1.47,-0.24,1.48
20.701337814331055,-0.01,-1.27,-0.07,1.27
20.710763931274414,0.03,-1.09,0.39,1.15
20.72126579284668,0.08,-0.92,1.0,1.36
20.731197834014893,0.16,-0.66,1.37,1.52
20.74498987197876,0.27,-0.23,1.57,1.6
20.751346111297607,0.38,0.19,1.64,1.69
20.760615825653076,0.5,0.48,1.49,1.64
20.771466970443726,0.57,0.83,1.25,1.6
20.781341075897217,0.49,1.07,0.98,1.53
20.794724941253662,0.44,1.41,1.04,1.8
20.801525115966797,0.54,1.68,1.22,2.14
20.81108283996582,0.83,1.77,1.13,2.25
20.821375846862793,1.24,2.36,1.52,3.06
20.831653118133545,1.46,3.41,2.25,4.33
20.845194816589355,1.41,3.66,1.77,4.3
20.851439952850342,1.56,3.8,0.7,4.16
20.860829830169678,1.45,4.53,-0.04,4.75
20.871328830718994,1.1,4.57,-1.48,4.92
20.881135940551758,0.76,4.14,-3.05,5.19
20.894339084625244,0.1,3.76,-3.9,5.41
20.90145492553711,-0.75,3.38,-3.87,5.19
20.910865783691406,-1.7,3.0,-2.97,4.55
20.921184062957764,-2.08,2.41,-1.44,3.49
20.931087970733643,-1.98,1.69,-0.08,2.6
20.945395946502686,-1.6,1.04,0.45,1.96
20.951459884643555,-1.02,0.62,0.28,1.22
20.961589813232422,-0.36,0.39,-0.05,0.53
20.971377849578857,0.16,0.22,-0.34,0.43
20.981260776519775,0.36,0.05,-0.57,0.67
20.996474981307983,0.45,-0.11,-0.72,0.85
21.001458883285522,0.49,-0.22,-0.95,1.09
21.010917901992798,0.42,-0.38,-1.3,1.41
21.021451950073242,0.34,-0.62,-1.62,1.76
21.031324863433838,0.11,-0.96,-1.83,2.06
21.045955896377563,-0.04,-1.31,-1.72,2.16
21.05154299736023,-0.29,-1.75,-1.36,2.23
21.061520099639893,-0.5,-2.16,-0.8,2.35
21.071351051330566,-0.58,-2.56,-0.3,2.64
21.081514835357666,-0.6,-2.93,0.1,2.99
21.09664487838745,-0.57,-3.17,0.42,3.24
21.10154390335083,-0.51,-3.42,0.51,3.49
21.111577033996582,-0.47,-3.52,0.54,3.59
21.12130880355835,-0.46,-3.47,0.5,3.53
21.131457805633545,-0.48,-3.32,0.38,3.37
21.146145820617676,-0.47,-3.06,0.25,3.1
21.151519775390625,-0.47,-2.77,0.15,2.81
21.16157293319702,-0.55,-2.51,0.09,2.57
21.171230792999268,-0.54,-2.22,0.09,2.28
21.181297779083252,-0.48,-1.88,0.03,1.94
21.19682788848877,-0.35,-1.45,0.06,1.49
21.201542854309082,-0.25,-1.04,0.22,1.09
21.21177911758423,-0.24,-0.78,0.42,0.91
21.221373081207275,-0.27,-0.68,0.7,1.01
21.23143196105957,-0.33,-0.54,0.93,1.12
21.24733591079712,-0.37,-0.31,0.97,1.08
21.25169086456299,-0.35,-0.08,0.89,0.95
21.2616069316864,-0.32,0.13,0.74,0.81
21.271216869354248,-0.25,0.41,0.67,0.82
21.281529903411865,-0.15,0.81,0.89,1.21
21.296088933944702,-0.05,1.25,1.19,1.72
21.301724910736084,0.02,1.76,1.52,2.32
21.311553955078125,0.01,2.06,1.45,2.51
21.321407794952393,-0.18,2.01,0.76,2.15
21.33143186569214,-0.43,2.07,0.04,2.11
21.34603786468506,-0.73,2.56,-0.03,2.66
21.352041959762573,-0.97,3.53,1.03,3.8
21.361592769622803,-0.72,3.68,1.2,3.93
21.37123394012451,-0.17,2.87,0.05,2.87
21.38139581680298,0.4,3.29,-0.12,3.31
21.396947860717773,0.62,4.1,0.1,4.14
21.40187692642212,1.05,3.69,-0.61,3.88
21.411734104156494,1.7,2.58,-1.22,3.32
21.421228885650635,1.77,2.07,-0.9,2.86
21.431777954101562,1.74,1.6,-0.24,2.37
21.44714093208313,1.57,1.09,0.44,1.96
21.45184588432312,1.37,0.69,1.08,1.87
21.461694955825806,1.16,0.34,1.07,1.61
21.471810817718506,0.79,0.07,0.75,1.09
21.481203079223633,0.54,0.05,0.35,0.64
21.497058868408203,0.36,0.02,-0.27,0.45
21.50089693069458,0.2,-0.03,-1.07,1.08
21.512014865875244,0.13,0.02,-1.69,1.69
21.521181106567383,0.2,0.1,-1.97,1.98
21.531707763671875,0.25,0.03,-2.25,2.26
21.547507762908936,0.26,-0.16,-2.35,2.36
21.551875114440918,0.3,-0.45,-2.13,2.19
21.56161403656006,0.16,-0.82,-1.82,2.0
21.571574926376343,0.04,-1.35,-1.42,1.95
21.58149290084839,-0.21,-1.98,-0.88,2.17
21.59729790687561,-0.42,-2.43,-0.18,2.47
21.60086488723755,-0.55,-2.88,0.37,2.95
21.611830949783325,-0.65,-3.3,0.65,3.42
21.621229887008667,-0.81,-3.57,0.66,3.71
21.631772994995117,-0.88,-3.66,0.41,3.78
21.64537286758423,-0.84,-3.61,0.09,3.7
21.65208101272583,-0.76,-3.42,-0.05,3.5
21.661519050598145,-0.6,-3.22,-0.14,3.27
21.671453952789307,-0.38,-3.0,-0.22,3.03
21.6813907623291,-0.16,-2.7,-0.19,2.71
21.69630479812622,0.04,-2.39,-0.06,2.39
21.700740814208984,0.13,-2.06,0.07,2.06
21.711781978607178,0.15,-1.68,0.36,1.72
21.721303939819336,0.18,-1.26,0.82,1.51
21.73148798942566,0.2,-0.93,1.25,1.57
21.74532699584961,0.25,-0.62,1.6,1.73
21.751008987426758,0.41,-0.32,1.82,1.89
21.76148796081543,0.6,0.0,1.79,1.88
21.77148699760437,0.72,0.4,1.49,1.7
21.78158688545227,0.75,0.85,1.16,1.62
21.794826984405518,0.81,1.09,0.85,1.6
21.80074191093445,0.52,1.34,0.69,1.59
21.811030864715576,0.34,1.73,0.99,2.02
21.821288108825684,0.33,2.08,1.34,2.49
21.831427097320557,0.61,2.18,1.23,2.57
21.844664096832275,1.1,2.26,0.88,2.66
21.8507559299469,1.61,2.99,1.06,3.55
21.860960006713867,1.79,4.0,1.58,4.65
21.871359825134277,1.58,4.07,0.9,4.45
21.881268978118896,1.26,4.13,-0.46,4.34
21.895543098449707,0.69,4.53,-1.74,4.9
21.900804042816162,-0.05,4.33,-3.19,5.37
21.911745071411133,-0.72,3.49,-4.09,5.42
21.921287059783936,-1.48,2.68,-3.76,4.84
21.931667804718018,-1.92,2.01,-2.49,3.73
21.94612193107605,-1.87,1.52,-0.76,2.52
21.95082688331604,-1.52,0.95,0.52,1.86
21.96096897125244,-1.11,0.55,1.03,1.61
21.97154998779297,-0.58,0.31,0.8,1.03
21.98170495033264,-0.04,0.19,0.15,0.24
21.99522304534912,0.42,0.13,-0.69,0.81
22.000776767730713,0.57,0.07,-1.28,1.4
22.011032104492188,0.48,0.07,-1.3,1.38
22.021387100219727,0.28,0.09,-0.99,1.03
22.031413078308105,0.14,-0.05,-0.97,0.98
22.0447039604187,-0.04,-0.1,-1.06,1.06
22.051083087921143,-0.08,-0.29,-1.27,1.3
22.06105399131775,-0.09,-0.68,-1.37,1.53
22.071383953094482,-0.19,-1.08,-1.26,1.67
22.081520080566406,-0.2,-1.7,-0.96,1.96
22.09487795829773,-0.26,-2.13,-0.51,2.2
22.100761890411377,-0.33,-2.56,-0.14,2.58
22.111178874969482,-0.38,-2.91,0.09,2.93
22.12135076522827,-0.36,-3.17,0.27,3.2
22.13148307800293,-0.29,-3.32,0.35,3.35
22.144450902938843,-0.24,-3.37,0.49,3.41
22.150920867919922,-0.24,-3.46,0.53,3.5
22.160966873168945,-0.19,-3.38,0.6,3.43
22.171678066253662,-0.17,-3.24,0.47,3.27
22.181529998779297,-0.15,-3.03,0.23,3.04
22.194670915603638,-0.14,-2.75,0.11,2.75
22.200942993164062,-0.21,-2.52,0.09,2.53
22.211164951324463,-0.28,-2.3,0.19,2.32
22.22164487838745,-0.37,-2.07,0.37,2.13
22.231750965118408,-0.46,-1.82,0.61,1.97
22.245556831359863,-0.55,-1.57,0.87,1.87
22.250977993011475,-0.54,-1.22,1.13,1.74
22.261046886444092,-0.47,-0.79,1.31,1.6
22.271556854248047,-0.39,-0.34,1.38,1.47
22.281357765197754,-0.37,0.16,1.51,1.56
22.295302867889404,-0.36,0.54,1.6,1.72
22.300836086273193,-0.39,0.89,1.71,1.96
22.311129093170166,-0.26,1.2,1.66,2.06
22.321392059326172,-0.04,1.63,1.47,2.19
22.331264972686768,0.06,1.99,1.0,2.22
22.34522795677185,0.03,2.28,0.44,2.32
22.350981950759888,-0.13,2.45,-0.19,2.46
22.361165046691895,-0.4,2.75,-0.59,2.84
22.37135887145996,-0.79,3.44,-0.09,3.53
22.38146209716797,-1.13,4.22,1.29,4.55
22.394866943359375,-1.12,4.2,1.89,4.73
22.401062965393066,-0.69,3.85,1.31,4.12
22.411072969436646,-0.22,4.36,1.07,4.49
22.42143201828003,0.37,4.69,0.5,4.73
22.431407928466797,1.24,3.83,-1.23,4.2
22.44513702392578,2.14,2.65,-2.81,4.41
22.451040983200073,2.24,1.95,-3.11,4.3
22.461137771606445,2.11,1.37,-2.44,3.5
22.471436977386475,1.86,0.72,-1.51,2.5
22.481446981430054,1.87,-0.05,-0.8,2.03
22.494959831237793,1.34,-0.35,-0.69,1.54
22.50107192993164,0.76,-0.07,-1.04,1.29
22.51120090484619,0.34,0.39,-1.5,1.58
22.521504878997803,0.07,0.64,-1.48,1.61
22.53150701522827,-0.2,0.53,-1.12,1.25
22.544861793518066,-0.57,0.27,-0.73,0.96
22.55106496810913,-0.77,0.03,-0.35,0.84
22.561125993728638,-0.89,-0.24,-0.26,0.95
22.57169198989868,-0.92,-0.48,-0.3,1.08
22.581363916397095,-0.91,-0.7,-0.43,1.22
22.594847917556763,-0.84,-0.99,-0.61,1.43
22.601101875305176,-0.72,-1.25,-0.66,1.58
22.611162900924683,-0.6,-1.52,-0.55,1.72
22.62099289894104,-0.53,-1.87,-0.46,1.99
22.63196611404419,-0.46,-2.29,-0.37,2.36
22.64518976211548,-0.38,-2.65,-0.28,2.69
22.65104389190674,-0.25,-2.91,-0.22,2.92
22.661306858062744,-0.17,-3.1,-0.14,3.1
22.671013832092285,-0.05,-3.2,-0.02,3.2
22.682034015655518,0.11,-3.24,0.06,3.24
22.69494390487671,0.23,-3.15,0.15,3.16
22.70112180709839,0.34,-3.05,0.2,3.07
22.71114993095398,0.4,-2.9,0.24,2.93
22.72183895111084,0.38,-2.76,0.23,2.79
22.731472969055176,0.29,-2.62,0.07,2.63
22.745369911193848,0.15,-2.43,0.01,2.43
22.75103187561035,0.0,-2.29,0.06,2.29
22.761201858520508,-0.11,-2.11,0.31,2.13
22.77157998085022,-0.16,-1.77,0.8,1.94
22.78156590461731,-0.18,-1.42,1.3,1.93
22.795207977294922,-0.09,-1.04,1.74,2.02
22.800992012023926,0.01,-0.52,2.11,2.17
22.811171054840088,0.05,0.04,2.27,2.27
22.821696996688843,0.16,0.48,2.07,2.13
22.831716060638428,0.3,0.87,1.57,1.81
22.845573902130127,0.38,1.36,1.24,1.87
22.851009845733643,0.46,1.98,1.32,2.42
22.861062049865723,0.58,2.62,1.52,3.08
22.871859073638916,0.93,2.85,1.15,3.21
22.881792068481445,1.35,3.6,1.22,4.03
22.896235942840576,1.65,4.82,1.84,5.41
22.901072025299072,1.55,5.35,1.07,5.67
22.91197109222412,1.21,5.61,-0.58,5.76
22.921638011932373,0.65,6.47,-1.61,6.69
22.931771993637085,0.04,6.32,-3.25,7.1
22.946805000305176,-0.54,5.1,-5.14,7.26
22.950982093811035,-1.16,3.82,-5.5,6.79
22.96181893348694,-1.98,2.67,-3.88,5.1
22.971637964248657,-2.0,1.42,-1.2,2.73
22.98165798187256,-2.21,0.0,1.01,2.42
22.997511863708496,-2.05,-1.07,2.06,3.09
23.001215934753418,-1.44,-1.25,1.95,2.72
23.011040925979614,-0.73,-0.92,1.1,1.6
23.02151584625244,-0.02,-0.54,-0.03,0.54
23.031827926635742,0.53,-0.32,-0.91,1.1
23.04557180404663,0.69,-0.24,-1.17,1.37
23.05131196975708,0.64,-0.39,-1.09,1.32
23.061222076416016,0.37,-0.61,-1.04,1.26
23.071752071380615,0.12,-0.64,-1.12,1.29
23.081421852111816,-0.07,-0.53,-1.36,1.46
23.094883918762207,-0.18,-0.63,-1.56,1.69
23.10115909576416,-0.35,-0.85,-1.52,1.77
23.111917972564697,-0.45,-1.25,-1.3,1.85
23.1215500831604,-0.44,-1.7,-0.96,2.0
23.131475925445557,-0.25,-2.2,-0.64,2.3
23.145927906036377,-0.15,-2.69,-0.27,2.7
23.151211977005005,-0.12,-3.11,0.04,3.11
23.16195583343506,-0.11,-3.44,0.22,3.44
23.171520948410034,-0.09,-3.56,0.41,3.58
23.181551933288574,-0.09,-3.58,0.56,3.62
23.19615888595581,-0.14,-3.51,0.63,3.56
23.20105290412903,-0.23,-3.33,0.67,3.4
23.211869955062866,-0.3,-3.02,0.62,3.09
23.221633911132812,-0.39,-2.67,0.48,2.74
23.231513023376465,-0.42,-2.25,0.38,2.32
23.24591302871704,-0.45,-1.85,0.41,1.94
23.2512149810791,-0.46,-1.51,0.52,1.66
23.2618670463562,-0.44,-1.19,0.69,1.44
23.271548986434937,-0.39,-0.86,0.89,1.29
23.281734943389893,-0.36,-0.52,1.04,1.21
23.29542088508606,-0.4,-0.19,1.14,1.22
23.301201820373535,-0.43,0.16,1.11,1.2
23.31123995780945,-0.45,0.5,0.86,1.09
23.321696996688843,-0.46,0.85,0.71,1.19
23.3317129611969,-0.48,1.12,0.54,1.33
23.345263957977295,-0.37,1.51,0.6,1.66
23.35108184814453,-0.15,1.93,0.86,2.11
23.36197280883789,0.04,2.26,0.96,2.45
23.37156891822815,0.02,2.36,0.49,2.41
23.381750106811523,-0.11,2.48,-0.2,2.49
23.39530086517334,-0.36,3.1,-0.03,3.12
23.401213884353638,-0.68,3.94,1.12,4.15
23.411251068115234,-0.68,3.38,1.1,3.61
23.42177104949951,-0.44,2.86,0.45,2.92
23.431700944900513,-0.15,3.64,0.81,3.73
23.445076942443848,0.36,4.25,0.87,4.35
23.45116090774536,0.79,3.7,-0.72,3.85
23.461280822753906,1.24,2.94,-2.0,3.76
23.47180700302124,1.47,2.68,-2.05,3.68
23.481712818145752,1.68,2.08,-1.64,3.13
23.495030879974365,1.75,1.25,-1.09,2.41
23.501288890838623,1.63,0.52,-0.71,1.85
23.511343955993652,1.51,0.11,-0.87,1.74
23.521883964538574,1.27,0.33,-1.22,1.79
23.531579971313477,1.0,0.58,-1.62,1.99
23.545268058776855,0.65,0.56,-1.76,1.95
23.551153898239136,0.33,0.43,-1.56,1.65
23.56131410598755,0.07,0.23,-1.32,1.34
23.571929931640625,-0.13,0.06,-1.17,1.17
23.581862926483154,-0.22,-0.28,-1.25,1.29
23.595367908477783,-0.3,-0.5,-1.3,1.42
23.601157903671265,-0.24,-0.78,-1.29,1.52
23.6112859249115,-0.14,-1.23,-1.16,1.69
23.62207293510437,-0.03,-1.65,-0.82,1.84
23.631651878356934,0.05,-2.05,-0.42,2.09
23.6457359790802,0.11,-2.43,-0.09,2.43
23.651335954666138,0.11,-2.74,0.11,2.74
23.662072896957397,0.05,-2.98,0.17,2.98
23.671827793121338,0.02,-3.06,0.17,3.06
23.68197011947632,-0.04,-3.02,0.13,3.02
23.696279048919678,-0.12,-3.04,0.11,3.04
23.701173782348633,-0.24,-3.11,0.06,3.11
23.711208820343018,-0.33,-3.08,0.02,3.09
23.722357988357544,-0.36,-2.96,0.0,2.98
23.731812953948975,-0.34,-2.76,-0.02,2.78
23.746062994003296,-0.35,-2.59,-0.13,2.61
23.751387119293213,-0.24,-2.44,-0.21,2.46
23.761116981506348,-0.18,-2.13,-0.01,2.13
23.772406101226807,-0.11,-1.98,0.11,1.98
23.781890869140625,-0.06,-1.82,0.38,1.86
23.795517921447754,0.03,-1.6,0.82,1.79
23.80138897895813,0.06,-1.39,1.25,1.87
23.812084913253784,0.11,-1.09,1.6,1.93
23.82197594642639,0.17,-0.76,1.8,1.96
23.83183002471924,0.38,-0.34,1.93,1.99
23.84518003463745,0.45,0.1,1.92,1.97
23.851131916046143,0.59,0.59,1.79,1.97
23.862066984176636,0.46,1.06,1.35,1.77
23.872082948684692,0.31,1.53,1.2,1.96
23.88160800933838,0.17,2.06,1.3,2.44
23.895930767059326,0.16,2.43,1.34,2.77
23.901412963867188,0.32,2.6,1.32,2.93
23.91183590888977,0.52,3.38,1.94,3.93
23.922080039978027,0.68,4.36,2.51,5.07
23.93198585510254,0.93,4.5,1.41,4.8
23.94774103164673,0.89,4.98,0.17,5.06
23.951143980026245,0.51,5.66,-0.95,5.76
23.961877822875977,0.18,5.4,-3.1,6.22
23.972386837005615,-0.16,4.76,-5.0,6.9
23.982205867767334,-0.37,4.02,-5.44,6.77
23.997323036193848,-0.71,3.19,-4.21,5.32
24.001473903656006,-0.96,2.22,-2.0,3.13
24.012104034423828,-1.03,1.15,-0.02,1.54
24.022239923477173,-0.96,0.18,1.11,1.47
24.03208088874817,-0.74,-0.28,1.42,1.62
24.047391891479492,-0.36,-0.47,0.81,1.0
24.051444053649902,0.0,-0.51,-0.18,0.54
24.062159061431885,0.24,-0.6,-0.93,1.13
24.07232689857483,0.26,-0.85,-1.21,1.5
24.081960916519165,0.07,-0.94,-1.01,1.38
24.096703052520752,-0.08,-0.92,-0.8,1.22
24.101775884628296,-0.15,-0.95,-0.94,1.34
24.112108945846558,-0.25,-0.96,-1.29,1.62
24.122404098510742,-0.31,-1.12,-1.56,1.94
24.13192892074585,-0.25,-1.3,-1.49,1.99
24.145565032958984,-0.14,-1.56,-1.3,2.03
24.15131711959839,-0.01,-1.87,-1.0,2.12
24.162168979644775,0.11,-2.17,-0.54,2.23
24.172420978546143,0.13,-2.49,-0.13,2.49
24.18251085281372,0.1,-2.74,0.19,2.74
24.197633981704712,0.01,-2.9,0.44,2.93
24.201241970062256,-0.1,-3.03,0.63,3.09
24.212158918380737,-0.26,-3.11,0.71,3.2
24.222445964813232,-0.43,-3.07,0.73,3.18
24.23198390007019,-0.58,-2.93,0.54,3.03
24.245842933654785,-0.68,-2.74,0.31,2.84
24.251354932785034,-0.75,-2.51,0.13,2.62
24.26205587387085,-0.82,-2.27,0.09,2.41
24.272555828094482,-0.85,-2.06,0.12,2.23
24.282188892364502,-0.81,-1.8,0.27,1.99
24.297849893569946,-0.72,-1.44,0.48,1.68
24.301476001739502,-0.66,-1.09,0.75,1.47
24.312357902526855,-0.59,-0.78,0.98,1.38
24.3225839138031,-0.54,-0.51,1.13,1.35
24.332355976104736,-0.48,-0.25,1.15,1.27
24.347099781036377,-0.45,0.02,1.02,1.11
24.351490020751953,-0.31,0.27,0.86,0.95
24.362030029296875,-0.19,0.58,0.75,0.96
24.372634887695312,-0.01,1.02,0.76,1.27
24.38198184967041,0.15,1.44,0.84,1.67
24.396584033966064,0.31,1.81,0.92,2.05
24.40169095993042,0.33,2.24,1.11,2.52
24.412182807922363,0.23,2.53,1.08,2.76
24.42270588874817,-0.01,2.54,0.57,2.6
24.43226194381714,-0.34,2.61,-0.01,2.63
24.44721293449402,-0.74,2.95,-0.1,3.04
24.4512357711792,-1.03,3.7,0.82,3.92
24.462053775787354,-0.82,3.79,1.34,4.1
24.47292709350586,-0.23,3.03,0.54,3.08
24.48233699798584,0.37,3.25,0.28,3.28
24.498069763183594,0.59,4.01,0.41,4.07
24.5016508102417,1.13,3.54,-0.57,3.75
24.512136936187744,1.85,2.24,-2.0,3.52
24.522846937179565,2.11,1.37,-2.38,3.46
24.532049894332886,1.89,0.94,-1.76,2.74
24.547111988067627,1.54,0.56,-0.78,1.81
24.551737785339355,1.22,0.16,0.11,1.23
24.562204837799072,1.01,-0.25,0.51,1.15
24.572847843170166,0.6,-0.25,0.33,0.72
24.58237600326538,0.12,-0.07,-0.4,0.42
24.597723960876465,-0.11,0.07,-0.89,0.89
24.601842880249023,-0.22,0.32,-1.05,1.11
24.6120548248291,-0.43,0.12,-1.3,1.37
24.623056888580322,-0.61,0.03,-1.25,1.39
24.631916046142578,-0.61,0.01,-1.31,1.44
24.64629888534546,-0.36,-0.06,-1.61,1.65
24.651721954345703,-0.07,-0.21,-1.81,1.82
24.661510944366455,0.19,-0.52,-1.67,1.75
24.67326593399048,0.37,-0.96,-1.35,1.69
24.682135105133057,0.48,-1.41,-0.92,1.75
24.696703910827637,0.31,-1.99,-0.43,2.05
24.701422929763794,0.1,-2.52,-0.1,2.52
24.7123019695282,-0.08,-2.9,0.11,2.9
24.723073959350586,-0.22,-3.18,0.26,3.19
24.731993913650513,-0.38,-3.44,0.36,3.47
24.745805978775024,-0.48,-3.57,0.43,3.62
24.7514910697937,-0.41,-3.5,0.47,3.55
24.762160778045654,-0.23,-3.27,0.34,3.29
24.773035049438477,-0.01,-2.96,0.13,2.96
24.78238296508789,0.13,-2.61,0.0,2.61
24.797492027282715,0.23,-2.26,0.01,2.27
24.80168104171753,0.27,-1.99,0.1,2.01
24.812259912490845,0.32,-1.72,0.35,1.78
24.823015928268433,0.32,-1.42,0.73,1.62
24.8318190574646,0.29,-1.14,1.04,1.57
24.84694790840149,0.26,-0.86,1.24,1.53
24.851859092712402,0.29,-0.61,1.27,1.43
24.861512899398804,0.34,-0.34,1.15,1.24
24.873610019683838,0.38,-0.02,1.01,1.07
24.881964921951294,0.4,0.28,0.86,0.98
24.897006034851074,0.4,0.61,0.79,1.07
24.901508808135986,0.33,0.95,0.89,1.34
24.912045001983643,0.2,1.23,0.96,1.57
24.923266887664795,0.01,1.53,1.05,1.85
24.932015895843506,-0.21,1.96,1.36,2.39
24.947443962097168,-0.19,2.41,1.6,2.89
24.951612949371338,0.09,2.61,1.35,2.93
24.962339878082275,0.56,2.94,0.95,3.14
24.973390102386475,1.05,3.76,1.0,4.02
24.982412815093994,1.34,4.58,1.33,4.95
24.99899697303772,1.44,4.52,0.51,4.77
25.00171995162964,1.38,4.65,-0.46,4.87
25.0123610496521,0.97,5.0,-1.36,5.27
25.023422956466675,0.45,4.47,-2.86,5.32
25.032161951065063,-0.22,3.39,-4.19,5.39
25.047754764556885,-0.9,2.58,-4.32,5.11
25.051552772521973,-1.57,1.83,-3.62,4.34
25.062386989593506,-1.72,1.06,-2.22,3.0
25.07349395751953,-1.65,0.39,-0.9,1.91
25.08196997642517,-1.41,-0.24,-0.28,1.45
25.0965518951416,-0.92,-0.55,-0.02,1.07
25.101475954055786,-0.45,-0.69,-0.26,0.86
25.112255096435547,-0.02,-0.79,-0.65,1.02
25.12364888191223,0.25,-0.89,-0.86,1.26
25.13202691078186,0.29,-0.89,-0.72,1.18
25.147335052490234,0.19,-0.79,-0.38,0.89
25.152328968048096,0.1,-0.75,-0.22,0.78
25.162147998809814,-0.05,-0.62,-0.39,0.73
25.17389988899231,-0.08,-0.64,-0.73,0.97
25.182353019714355,-0.17,-0.67,-1.01,1.22
25.199018001556396,-0.16,-0.85,-1.23,1.5
25.202198028564453,-0.09,-1.17,-1.14,1.63
25.212238788604736,-0.02,-1.47,-0.83,1.68
25.224044799804688,0.15,-1.8,-0.51,1.87
25.23247003555298,0.38,-2.21,-0.24,2.25
25.24893283843994,0.49,-2.6,0.03,2.64
25.251686096191406,0.46,-2.72,0.36,2.78
25.262348890304565,0.48,-2.84,0.57,2.93
25.27414608001709,0.34,-2.95,0.56,3.02
25.28254199028015,0.28,-2.92,0.6,2.99
25.298338890075684,0.17,-2.87,0.46,2.91
25.301759958267212,0.02,-2.8,0.23,2.8
25.31222677230835,-0.08,-2.73,-0.04,2.73
25.323524951934814,-0.28,-2.52,-0.14,2.53
25.33230209350586,-0.3,-2.33,-0.14,2.35
25.347623825073242,-0.35,-2.19,0.02,2.21
25.351605892181396,-0.44,-1.9,0.35,1.98
25.362371921539307,-0.54,-1.59,0.65,1.8
25.37194585800171,-0.59,-1.13,1.08,1.67
25.382159948349,-0.59,-0.78,1.37,1.68
25.397722959518433,-0.62,-0.54,1.48,1.69
25.401672840118408,-0.53,-0.35,1.49,1.61
25.41141390800476,-0.4,-0.14,1.49,1.54
25.423978805541992,-0.33,0.24,1.42,1.47
25.43247079849243,-0.12,0.73,1.4,1.58
25.44785189628601,0.18,1.27,1.4,1.89
25.45179796218872,0.49,1.88,1.37,2.37
25.462440013885498,0.57,2.55,1.43,2.97
25.471820831298828,0.57,3.17,1.45,3.53
25.482327938079834,0.35,3.25,1.05,3.43
25.498020887374878,0.2,3.2,0.68,3.27
25.50181794166565,-0.06,3.48,0.76,3.56
25.512199878692627,-0.18,4.23,1.31,4.43
25.521960973739624,-0.18,4.17,1.13,4.32
25.532270908355713,-0.22,3.58,0.13,3.58
25.548500061035156,-0.03,3.86,0.0,3.86
25.551665782928467,0.14,4.71,0.55,4.74
25.562392950057983,0.42,4.01,-0.44,4.05
25.57194709777832,0.73,2.7,-2.21,3.56
25.582504987716675,1.29,1.87,-3.2,3.92
25.597958087921143,1.59,1.34,-3.19,3.8
25.601797103881836,1.71,0.81,-2.42,3.07
25.61225700378418,1.64,0.07,-1.34,2.11
25.62188696861267,1.49,-0.49,-0.31,1.59
25.632451057434082,1.53,-0.87,0.42,1.8
25.648519039154053,1.42,-0.93,0.57,1.79
25.65175199508667,1.19,-0.79,0.37,1.47
25.66241693496704,0.93,-0.66,0.08,1.14
25.671842098236084,0.68,-0.77,-0.31,1.07
25.682682037353516,0.43,-0.89,-0.65,1.18
25.696850776672363,0.2,-0.93,-0.96,1.35
25.70157480239868,-0.03,-0.98,-1.33,1.65
25.712373971939087,-0.2,-1.04,-1.65,1.96
25.72203493118286,-0.36,-1.15,-1.79,2.15
25.732326984405518,-0.49,-1.33,-1.66,2.18
25.7479190826416,-0.59,-1.48,-1.22,2.0
25.751637935638428,-0.71,-1.75,-0.65,1.99
25.761763095855713,-0.85,-2.16,0.01,2.32
25.7725248336792,-0.9,-2.53,0.63,2.75
25.782288074493408,-0.92,-2.86,0.91,3.13
25.79826307296753,-0.84,-3.08,0.85,3.3
25.801873922348022,-0.69,-3.14,0.61,3.27
25.812484979629517,-0.48,-3.02,0.36,3.07
25.822054862976074,-0.27,-2.83,0.16,2.84
25.83237886428833,-0.13,-2.58,0.06,2.58
25.848114013671875,0.0,-2.3,-0.03,2.3
25.851819038391113,0.1,-1.99,-0.05,1.99
25.86253786087036,0.18,-1.65,0.1,1.66
25.872132778167725,0.19,-1.39,0.22,1.42
25.882314920425415,0.14,-1.1,0.32,1.15
25.898210048675537,0.11,-0.86,0.39,0.95
25.901814937591553,0.15,-0.74,0.28,0.8
25.911552906036377,0.19,-0.59,0.18,0.64
25.922558784484863,0.21,-0.42,0.34,0.57
25.932403087615967,0.25,-0.21,0.76,0.82
25.948182106018066,0.26,0.08,1.29,1.31
25.951782941818237,0.25,0.38,1.72,1.77
25.962556838989258,0.19,0.66,1.95,2.06
25.97202491760254,0.04,1.02,2.01,2.25
25.982604026794434,-0.11,1.49,2.13,2.6
25.998353958129883,-0.27,2.12,2.4,3.21
26.001746892929077,-0.29,2.52,2.4,3.49
26.01235795021057,-0.01,2.83,2.37,3.69
26.02223777770996,0.38,3.4,2.6,4.29
26.03238582611084,0.72,3.66,2.07,4.26
26.049149990081787,0.86,3.84,0.92,4.04
26.051853895187378,0.88,4.74,0.03,4.82
26.06226682662964,0.88,5.51,-1.12,5.69
26.07233476638794,0.92,5.27,-3.12,6.19
26.082837104797363,0.87,4.38,-5.02,6.71
26.097999095916748,0.5,3.48,-5.75,6.73
26.101907968521118,-0.35,2.34,-5.18,5.69
26.111764907836914,-1.18,1.35,-3.69,4.1
26.12273097038269,-1.72,0.66,-1.71,2.51
26.132751941680908,-1.88,-0.04,-0.08,1.88
26.14823889732361,-1.77,-0.59,0.73,2.0
26.15180778503418,-1.49,-0.71,0.82,1.84
26.162450790405273,-1.15,-0.64,0.2,1.33
26.172019958496094,-0.7,-0.67,-0.76,1.23
26.182914972305298,-0.26,-0.66,-1.29,1.47
26.19729495048523,0.02,-0.64,-1.36,1.5
26.201697826385498,0.19,-0.66,-1.24,1.41
26.212517976760864,0.32,-0.68,-1.14,1.36
26.22200584411621,0.43,-0.67,-1.21,1.44
26.23253583908081,0.46,-0.65,-1.29,1.51
26.24909996986389,0.38,-0.79,-1.31,1.57
26.251909971237183,0.23,-1.02,-1.11,1.52
26.26251983642578,0.11,-1.35,-0.76,1.55
26.272247791290283,-0.12,-1.76,-0.4,1.8
26.282931804656982,-0.26,-2.21,-0.13,2.22
26.29870080947876,-0.41,-2.54,0.15,2.57
26.301920890808105,-0.55,-2.85,0.34,2.92
26.311638832092285,-0.6,-3.1,0.44,3.18
26.322750091552734,-0.56,-3.11,0.5,3.19
26.332725048065186,-0.52,-3.02,0.41,3.09
26.348701000213623,-0.39,-2.88,0.32,2.92
26.351945877075195,-0.31,-2.67,0.28,2.7
26.362457990646362,-0.25,-2.45,0.28,2.47
26.372131824493408,-0.22,-2.17,0.3,2.2
26.38287091255188,-0.2,-1.87,0.28,1.9
26.39875888824463,-0.2,-1.64,0.2,1.66
26.402018070220947,-0.23,-1.4,0.28,1.44
26.4118070602417,-0.24,-1.22,0.34,1.28
26.42276692390442,-0.29,-0.95,0.48,1.1
26.432745933532715,-0.47,-0.75,0.72,1.14
26.449098110198975,-0.64,-0.65,1.03,1.37
26.451937913894653,-0.78,-0.51,1.33,1.62
26.462392807006836,-0.88,-0.35,1.45,1.73
26.472229957580566,-0.93,-0.15,1.42,1.7
26.482857942581177,-0.83,0.21,1.36,1.6
26.497716903686523,-0.68,0.59,1.34,1.61
26.50169610977173,-0.44,1.02,1.47,1.84
26.511909008026123,-0.28,1.61,1.65,2.32
26.522732973098755,-0.29,2.07,1.48,2.56
26.53254199028015,-0.27,2.18,0.82,2.34
26.547650814056396,-0.37,2.35,0.13,2.38
26.551715850830078,-0.58,2.9,-0.07,2.95
26.56265687942505,-0.82,3.79,0.21,3.88
26.572318077087402,-0.63,3.83,-0.08,3.88
26.5829439163208,-0.25,3.87,-0.31,3.89
26.598347902297974,0.27,4.74,0.28,4.75
26.601975917816162,0.69,5.35,0.51,5.41
26.611807823181152,1.33,4.64,-0.68,4.87
26.62278985977173,1.92,3.4,-2.4,4.58
26.63288688659668,2.06,2.57,-3.36,4.7
26.64934992790222,1.98,1.99,-3.43,4.43
26.651948928833008,1.8,1.17,-2.71,3.45
26.662553787231445,1.5,0.27,-1.52,2.15
26.672525882720947,1.31,-0.55,-0.41,1.47
26.68295907974243,1.01,-0.98,0.15,1.41
26.69908905029297,0.69,-0.96,0.11,1.18
26.702030897140503,0.49,-0.68,-0.36,0.91
26.712475776672363,0.26,-0.46,-0.98,1.11
26.7221999168396,0.19,-0.46,-1.42,1.5
26.73282289505005,0.09,-0.4,-1.36,1.42
26.748584985733032,-0.09,-0.4,-1.23,1.29
26.751851081848145,-0.28,-0.37,-1.05,1.14
26.761950969696045,-0.42,-0.33,-1.02,1.15
26.77272391319275,-0.47,-0.31,-1.13,1.26
26.782557010650635,-0.51,-0.32,-1.16,1.3
26.7989239692688,-0.6,-0.58,-1.19,1.45
26.802048921585083,-0.64,-0.91,-1.06,1.53
26.8117618560791,-0.7,-1.36,-0.79,1.72
26.822680950164795,-0.7,-1.81,-0.47,1.99
26.832700967788696,-0.66,-2.29,-0.04,2.38
26.8487389087677,-0.56,-2.68,0.33,2.75
26.8520929813385,-0.49,-2.91,0.55,3.0
26.86243486404419,-0.39,-3.03,0.57,3.1
26.872157096862793,-0.28,-3.01,0.4,3.04
26.883121013641357,-0.17,-2.83,0.22,2.84
26.901713848114014,-0.13,-2.61,-0.08,2.61
26.90263295173645,-0.08,-2.36,-0.29,2.37
26.91235589981079,-0.04,-2.1,-0.37,2.13
26.922310829162598,-0.03,-1.83,-0.14,1.83
26.93285894393921,-0.02,-1.51,0.35,1.55
26.951098918914795,0.08,-1.11,0.84,1.39
26.951820850372314,0.24,-0.79,1.19,1.44
26.962467908859253,0.44,-0.58,1.29,1.48
26.972235918045044,0.62,-0.49,1.1,1.35
26.983086109161377,0.78,-0.39,0.85,1.21
27.001049995422363,0.83,-0.31,0.66,1.1
27.001948833465576,0.8,-0.26,0.6,1.03
27.012518882751465,0.66,-0.11,0.65,0.93
27.022186994552612,0.61,0.01,0.86,1.05
27.033080101013184,0.43,0.04,1.09,1.17
27.050996780395508,0.07,0.16,1.34,1.35
27.052007913589478,-0.07,0.52,1.72,1.79
27.062664031982422,-0.09,0.96,2.05,2.26
27.072258949279785,0.11,1.21,1.83,2.19
27.082742929458618,0.55,1.35,1.06,1.8
27.09926986694336,1.1,1.8,0.33,2.13
27.10212802886963,1.64,2.89,0.72,3.4
27.11269998550415,1.57,3.61,1.08,4.08
27.122336864471436,1.31,3.39,0.3,3.64
27.13290786743164,1.24,3.41,-0.64,3.68
27.150725841522217,1.03,4.07,-1.16,4.35
27.152094841003418,0.77,4.39,-1.71,4.77
27.16260004043579,0.37,3.95,-2.26,4.56
27.172257900238037,-0.21,3.01,-2.59,3.97
27.182048797607422,-0.87,2.2,-2.53,3.46
27.19780683517456,-1.41,1.61,-2.19,3.06
27.202012062072754,-1.59,1.23,-1.44,2.47
27.2120680809021,-1.66,0.75,-0.57,1.9
27.221933841705322,-1.62,0.28,0.05,1.64
27.232760906219482,-1.4,0.02,0.41,1.45
27.248146057128906,-1.19,-0.03,0.37,1.24
27.25202989578247,-0.85,0.0,-0.07,0.85
27.262014865875244,-0.58,0.05,-0.58,0.82
27.272945880889893,-0.33,0.04,-1.06,1.11
27.282590866088867,-0.08,0.07,-1.32,1.32
27.298676013946533,0.08,0.01,-1.57,1.57
27.301925897598267,0.27,-0.14,-1.82,1.84
27.31201696395874,0.33,-0.35,-2.03,2.08
27.32292079925537,0.37,-0.65,-2.0,2.13
27.33267593383789,0.34,-1.07,-1.62,1.97
27.348766803741455,0.29,-1.62,-1.1,1.97
27.35195302963257,0.32,-2.22,-0.51,2.3
27.362055778503418,0.23,-2.75,-0.02,2.75
27.3730309009552,0.15,-3.16,0.39,3.18
27.383023977279663,0.02,-3.52,0.63,3.57
27.40046787261963,-0.03,-3.71,0.94,3.82
27.402127981185913,-0.07,-3.68,1.19,3.86
27.413074016571045,-0.19,-3.62,1.23,3.82
27.422375917434692,-0.25,-3.3,1.16,3.5
27.43313503265381,-0.34,-2.89,1.05,3.09
27.450345993041992,-0.44,-2.49,0.96,2.7
27.45216989517212,-0.53,-2.06,0.9,2.3
27.463046073913574,-0.56,-1.58,0.83,1.87
27.472209930419922,-0.53,-1.08,0.67,1.37
27.48331093788147,-0.49,-0.67,0.47,0.95
27.501567840576172,-0.48,-0.38,0.24,0.65
27.502394914627075,-0.43,-0.22,0.04,0.48
27.512794017791748,-0.41,-0.09,-0.03,0.42
27.522587776184082,-0.43,-0.12,-0.02,0.44
27.533167839050293,-0.47,-0.23,-0.01,0.52
27.552184104919434,-0.49,-0.24,0.19,0.57
27.553085803985596,-0.5,-0.07,0.57,0.76
27.56260108947754,-0.5,0.22,1.0,1.13
27.57223391532898,-0.49,0.59,1.36,1.56
27.583213806152344,-0.43,1.09,1.59,1.97
27.60169792175293,-0.36,1.57,1.6,2.27
27.602502822875977,-0.14,1.87,1.48,2.38
27.612637996673584,0.02,1.96,1.11,2.25
27.62257194519043,0.1,2.0,0.44,2.05
27.633183002471924,0.04,2.14,-0.25,2.15
27.65198278427124,-0.09,2.73,-0.09,2.73
27.652774810791016,-0.2,3.2,0.4,3.23
27.66278100013733,-0.1,2.97,0.28,2.98
27.672566890716553,0.12,2.87,-0.02,2.87
27.683238983154297,0.3,3.58,0.49,3.62
27.70061492919922,0.42,4.25,1.19,4.43
27.702176094055176,0.81,3.53,0.52,3.65
27.712867975234985,1.45,2.37,-1.05,2.97
27.722310066223145,1.9,1.73,-2.4,3.51
27.733171939849854,2.05,1.36,-2.92,3.81
27.751628875732422,1.96,0.91,-2.47,3.28
27.752380847930908,1.78,0.3,-1.46,2.32
27.76276683807373,1.71,-0.21,-0.45,1.78
27.772715091705322,1.66,-0.47,0.05,1.72
27.78331184387207,1.48,-0.51,-0.18,1.57
27.800496101379395,1.29,-0.3,-0.75,1.52
27.802207946777344,1.09,-0.15,-1.46,1.82
27.812939882278442,0.89,-0.04,-1.82,2.02
27.822345972061157,0.56,-0.09,-2.08,2.15
27.833046913146973,0.26,-0.06,-2.2,2.21
27.84955596923828,-0.02,0.03,-2.18,2.18
27.852197885513306,-0.22,0.08,-2.18,2.19
27.862156867980957,-0.4,0.06,-2.1,2.13
27.87300992012024,-0.6,-0.17,-1.9,1.99
27.882983922958374,-0.77,-0.51,-1.33,1.61
27.899878978729248,-1.04,-1.01,-0.75,1.63
27.902287006378174,-1.18,-1.46,-0.12,1.88
27.912662029266357,-1.23,-1.86,0.3,2.25
27.92248797416687,-1.19,-2.29,0.42,2.61
27.933273792266846,-1.04,-2.56,0.54,2.81
27.952239990234375,-0.88,-2.71,0.53,2.89
27.95317792892456,-0.64,-2.74,0.43,2.84
27.962711811065674,-0.41,-2.66,0.39,2.71
27.972368955612183,-0.23,-2.49,0.38,2.52
27.98325204849243,-0.01,-2.25,0.37,2.28
28.001840114593506,0.15,-1.94,0.34,1.97
28.00259304046631,0.23,-1.63,0.37,1.68
28.012841939926147,0.25,-1.38,0.46,1.47
28.022689819335938,0.31,-1.14,0.53,1.29
28.033299922943115,0.36,-0.91,0.58,1.13
28.05246877670288,0.32,-0.81,0.57,1.04
28.053372859954834,0.28,-0.83,0.49,1.0
28.062674045562744,0.31,-0.83,0.4,0.97
28.07236099243164,0.38,-0.86,0.21,0.96
28.08326292037964,0.48,-0.88,0.09,1.0
28.102431774139404,0.56,-0.86,0.21,1.04
28.103328943252563,0.63,-0.74,0.61,1.14
28.112661838531494,0.64,-0.55,1.05,1.34
28.122452974319458,0.61,-0.32,1.4,1.56
28.13332986831665,0.6,-0.04,1.67,1.77
28.149781942367554,0.53,0.3,1.76,1.86
28.15227699279785,0.39,0.52,1.55,1.68
28.162153959274292,0.21,0.87,1.36,1.62
28.17308282852173,0.04,1.38,1.42,1.98
28.183021068572998,0.01,1.84,1.47,2.35
28.201647996902466,0.19,2.03,1.3,2.41
28.202367782592773,0.53,2.16,1.0,2.43
28.212689876556396,0.91,2.77,1.1,3.11
28.22224998474121,1.15,3.32,1.1,3.68
28.23335886001587,1.23,3.3,0.33,3.53
28.250534057617188,1.14,3.57,-0.28,3.75
28.252334117889404,0.9,4.27,-0.41,4.38
28.26267385482788,0.5,4.51,-0.73,4.59
28.272429943084717,0.09,3.76,-1.63,4.09
28.28336000442505,-0.33,2.72,-2.64,3.8
28.302859783172607,-0.81,1.82,-3.28,3.83
28.303650856018066,-1.33,1.04,-3.19,3.6
28.312671899795532,-1.65,0.32,-2.46,2.97
28.32260298728943,-1.77,-0.32,-1.34,2.24
28.333291053771973,-1.72,-0.75,-0.47,1.93
28.350830078125,-1.46,-0.89,-0.01,1.7
28.352333068847656,-1.17,-0.8,-0.06,1.41
28.362284898757935,-0.78,-0.67,-0.55,1.16
28.373115062713623,-0.38,-0.47,-1.15,1.29
28.382976055145264,0.08,-0.31,-1.71,1.73
28.402012825012207,0.39,-0.21,-2.03,2.07
28.402732849121094,0.55,-0.04,-2.13,2.2
28.412787914276123,0.63,0.14,-2.2,2.29
28.422302961349487,0.74,0.36,-2.2,2.34
28.433250904083252,0.83,0.51,-2.18,2.38
28.45063877105713,0.78,0.42,-2.08,2.26
28.452043056488037,0.81,0.17,-1.65,1.84
28.462116956710815,0.7,-0.26,-1.1,1.32
28.473045825958252,0.64,-0.8,-0.5,1.14
28.483160972595215,0.57,-1.33,0.15,1.45
28.50058603286743,0.38,-1.84,0.55,1.95
28.502349853515625,0.11,-2.22,0.75,2.34
28.512276887893677,-0.09,-2.38,0.79,2.5
28.523088932037354,-0.22,-2.43,0.63,2.51
28.532833099365234,-0.33,-2.38,0.44,2.44
28.549996852874756,-0.45,-2.24,0.33,2.3
28.552324771881104,-0.53,-2.09,0.23,2.16
28.562277793884277,-0.55,-1.91,0.13,1.99
28.573128938674927,-0.58,-1.6,0.05,1.7
28.582887887954712,-0.52,-1.33,0.1,1.43
28.600703954696655,-0.56,-1.13,0.19,1.27
28.602377891540527,-0.58,-0.96,0.37,1.18
28.613110065460205,-0.59,-0.86,0.53,1.16
28.622618913650513,-0.52,-0.89,0.6,1.19
28.63295078277588,-0.61,-0.89,0.62,1.24
28.65092396736145,-0.64,-0.93,0.63,1.29
28.652349948883057,-0.66,-0.98,0.61,1.32
28.663213968276978,-0.72,-1.02,0.72,1.44
28.67259979248047,-0.75,-1.08,0.93,1.61
28.68305206298828,-0.75,-1.05,1.09,1.68
28.70059585571289,-0.73,-0.87,1.3,1.72
28.702452898025513,-0.59,-0.64,1.48,1.71
28.712219953536987,-0.46,-0.31,1.65,1.74
28.723145008087158,-0.33,0.03,1.89,1.91
28.73313593864441,-0.24,0.24,1.92,1.94
28.750597953796387,-0.02,0.47,1.81,1.87
28.75218391418457,0.09,0.77,1.45,1.64
28.762255907058716,0.16,1.05,1.01,1.46
28.77314805984497,0.03,1.26,0.58,1.38
28.78300189971924,-0.21,1.37,0.11,1.39
28.800840854644775,-0.51,1.45,-0.26,1.55
28.802374839782715,-0.75,1.54,-0.35,1.74
28.812145948410034,-0.9,1.7,-0.12,1.92
28.823155879974365,-0.83,2.21,0.82,2.49
28.83286690711975,-0.58,2.91,2.0,3.57
28.850820064544678,-0.18,2.84,1.86,3.39
28.852389812469482,0.42,2.94,1.11,3.17
28.86233377456665,0.9,3.89,0.76,4.06
28.873190879821777,1.11,4.47,0.29,4.61
28.883202075958252,1.36,3.98,-0.74,4.27
28.900536060333252,1.48,3.06,-2.24,4.07
28.90242099761963,1.61,2.24,-3.6,4.53
28.912261962890625,1.6,1.61,-4.18,4.75
28.92322301864624,1.27,0.87,-3.68,3.98
28.933022022247314,0.96,-0.02,-2.4,2.58
28.95056390762329,0.84,-0.73,-1.06,1.53
28.95233988761902,0.67,-1.22,-0.32,1.42
28.962174892425537,0.5,-1.38,-0.19,1.48
28.97312593460083,0.41,-1.31,-0.61,1.5
28.98306179046631,0.34,-0.99,-1.11,1.52
29.00088405609131,0.25,-0.64,-1.53,1.67
29.00236701965332,0.06,-0.4,-1.83,1.87
29.01232099533081,-0.16,-0.29,-1.93,1.95
29.02322793006897,-0.4,-0.07,-1.81,1.85
29.033139944076538,-0.58,0.14,-1.92,2.01
29.053149938583374,-0.64,0.4,-2.11,2.24
29.053852081298828,-0.69,0.52,-2.1,2.27
29.06317377090454,-0.81,0.32,-1.76,1.96
29.07284188270569,-0.99,-0.15,-1.08,1.47
29.083261013031006,-1.11,-0.77,-0.34,1.39
29.10113286972046,-0.98,-1.24,0.26,1.6
29.102495908737183,-0.79,-1.64,0.52,1.89
29.113125801086426,-0.57,-1.95,0.61,2.12
29.122787952423096,-0.35,-2.09,0.63,2.21
29.13330602645874,-0.15,-2.1,0.59,2.18
29.150739908218384,-0.02,-1.96,0.43,2.0
29.152470111846924,0.06,-1.75,0.18,1.76
29.162110805511475,0.06,-1.51,0.01,1.51
29.173285961151123,0.04,-1.21,-0.14,1.21
29.183271884918213,-0.03,-0.94,-0.23,0.96
29.200809001922607,-0.16,-0.79,-0.21,0.83
29.202466011047363,-0.27,-0.73,-0.19,0.8
29.21220898628235,-0.37,-0.69,-0.19,0.8
29.223325967788696,-0.39,-0.68,-0.27,0.82
29.233032941818237,-0.33,-0.67,-0.42,0.85
29.250929832458496,-0.19,-0.71,-0.51,0.89
29.25246810913086,0.04,-0.76,-0.48,0.89
29.262253999710083,0.33,-0.81,-0.34,0.93
29.273221015930176,0.55,-0.81,-0.13,0.98
29.283504962921143,0.74,-0.8,0.15,1.1
29.30070400238037,0.85,-0.65,0.56,1.2
29.302370071411133,0.85,-0.55,0.83,1.3
29.31229591369629,0.82,-0.36,0.97,1.32
29.323348999023438,0.75,-0.13,0.99,1.24
29.33327579498291,0.63,0.13,0.91,1.11
29.35084581375122,0.46,0.41,0.78,0.99
29.352454900741577,0.28,0.61,0.64,0.92
29.362432956695557,0.16,0.84,0.59,1.03
29.37331199645996,0.1,1.16,0.84,1.43
29.38312578201294,0.15,1.37,1.26,1.86
29.401350021362305,0.35,1.32,1.41,1.96
29.402509927749634,0.63,1.1,1.09,1.67
29.412306785583496,1.0,1.2,0.75,1.73
29.423260927200317,1.15,1.76,0.87,2.27
29.43329381942749,0.98,2.47,1.61,3.1
29.451011896133423,0.63,2.72,1.89,3.37
29.452545881271362,0.2,2.59,0.96,2.76
29.46230411529541,-0.15,2.99,-0.2,3.0
29.47339677810669,-0.38,3.91,-0.89,4.02
29.483367919921875,-0.5,4.03,-1.82,4.45
29.50096607208252,-0.51,3.36,-2.76,4.37
29.502548933029175,-0.54,2.64,-3.23,4.2
29.512516021728516,-0.45,2.22,-2.92,3.69
29.523367881774902,-0.43,1.91,-1.95,2.76
29.5330867767334,-0.5,1.2,-0.99,1.63
29.55127477645874,-0.63,0.36,-0.64,0.96
29.552613973617554,-0.88,-0.26,-0.63,1.11
29.56238889694214,-0.94,-0.34,-0.96,1.38
29.573276042938232,-0.94,-0.3,-1.64,1.91
29.58327007293701,-0.89,-0.37,-2.39,2.57
29.602152824401855,-0.79,-0.42,-2.91,3.04
29.602882862091064,-0.7,-0.45,-3.19,3.29
29.612438917160034,-0.68,-0.49,-3.25,3.35
29.623302936553955,-0.65,-0.54,-3.2,3.3
29.633116960525513,-0.64,-0.58,-3.02,3.14
29.650968074798584,-0.63,-0.49,-2.63,2.74
29.652544021606445,-0.55,-0.41,-2.01,2.12
29.662503957748413,-0.46,-0.45,-1.44,1.57
29.673376083374023,-0.33,-0.55,-1.06,1.23
29.683490991592407,-0.22,-0.65,-0.95,1.17
29.701400995254517,-0.16,-0.65,-1.01,1.21
29.702523946762085,-0.19,-0.63,-1.12,1.29
29.71239995956421,-0.24,-0.6,-1.12,1.29
29.723270893096924,-0.42,-0.6,-0.99,1.23
29.73290991783142,-0.51,-0.5,-0.71,1.0
29.751587867736816,-0.66,-0.25,-0.38,0.8
29.752497911453247,-0.75,-0.14,-0.33,0.83
29.76255702972412,-0.73,0.02,-0.29,0.78
29.77347707748413,-0.67,0.17,-0.35,0.77
29.78310799598694,-0.55,0.27,-0.52,0.8
29.801498889923096,-0.42,0.37,-0.76,0.94
29.802597045898438,-0.34,0.46,-1.02,1.16
29.812469005584717,-0.29,0.55,-1.29,1.43
29.823412895202637,-0.23,0.64,-1.51,1.65
29.833387851715088,-0.27,0.67,-1.77,1.91
29.851435899734497,-0.32,0.62,-2.16,2.26
29.852592945098877,-0.34,0.47,-2.4,2.46
29.86251401901245,-0.38,0.29,-2.48,2.52
29.87336301803589,-0.49,0.08,-2.57,2.61
29.883187770843506,-0.6,-0.12,-2.58,2.65
29.901288986206055,-0.67,-0.18,-2.46,2.55
29.902554035186768,-0.74,-0.28,-2.39,2.51
29.91264009475708,-0.82,-0.44,-2.32,2.49
29.92343497276306,-0.92,-0.25,-1.75,1.99
29.933154106140137,-0.86,0.43,-0.38,1.03
29.95140790939331,-0.73,0.73,0.64,1.21
29.95246696472168,-0.48,0.28,0.42,0.69
29.962422847747803,-0.14,0.2,-0.1,0.26
29.973480939865112,0.16,0.45,-0.92,1.03
29.983330965042114,0.48,0.45,-1.79,1.9
30.00104808807373,0.6,0.14,-2.12,2.2
30.002573013305664,0.52,-0.11,-1.83,1.9
30.012396812438965,0.26,-0.43,-1.12,1.22
30.041804790496826,0.06,-0.68,0.01,0.68
30.044111967086792,-0.23,-0.96,1.02,1.41
30.048784971237183,-0.45,-1.05,1.64,1.99
30.052921772003174,-0.38,-1.01,1.71,2.02
30.069468021392822,-0.28,-0.72,1.29,1.5
30.072600841522217,-0.13,-0.33,0.65,0.74
30.083202838897705,0.02,-0.02,0.0,0.02
30.100263118743896,0.1,0.22,-0.48,0.53
30.102649927139282,0.12,0.48,-1.01,1.12
30.112578868865967,0.05,0.65,-1.58,1.7
30.123467922210693,0.01,0.95,-1.81,2.04
30.133358001708984,-0.06,1.2,-1.76,2.13
30.152538776397705,-0.18,1.18,-1.38,1.82
30.153295040130615,-0.31,0.93,-0.66,1.18
30.16264796257019,-0.4,0.52,0.07,0.65
30.17336392402649,-0.38,0.18,0.4,0.58
30.183243989944458,-0.29,0.01,0.32,0.43
30.202369928359985,-0.15,0.0,0.0,0.15
30.203103065490723,-0.08,0.06,-0.4,0.41
30.212804794311523,-0.03,0.17,-0.75,0.76
30.223625898361206,-0.02,0.3,-1.01,1.05
30.233852863311768,-0.03,0.41,-1.19,1.25
30.25294780731201,-0.16,0.44,-1.3,1.38
30.25404405593872,-0.23,0.52,-1.2,1.32
