time,ax,ay,az,atotal
0.012478828430175781,0.05,0.08,0.14,0.16
0.01439809799194336,-0.08,0.08,-0.05,0.12
0.02773904800415039,-0.06,0.19,-0.25,0.31
0.031723976135253906,0.0,0.18,-0.14,0.22
0.04162406921386719,0.04,0.13,-0.04,0.14
0.05139899253845215,-0.01,0.12,-0.13,0.17
0.06154990196228027,0.01,0.02,-0.15,0.15
0.07976102828979492,-0.11,-0.09,0.01,0.14
0.08128786087036133,-0.08,-0.04,-0.04,0.09
0.09154295921325684,-0.06,-0.02,-0.09,0.11
0.10150694847106934,-0.1,0.0,-0.03,0.1
0.11168193817138672,-0.05,0.09,-0.05,0.11
0.13001298904418945,-0.04,0.11,-0.23,0.25
0.1314067840576172,-0.07,0.1,-0.21,0.24
0.1416478157043457,-0.02,0.12,-0.08,0.14
0.1515650749206543,0.06,0.14,-0.07,0.16
0.16168880462646484,0.0,0.15,-0.01,0.15
0.18073701858520508,-0.03,0.11,-0.03,0.11
0.18140411376953125,-0.07,0.05,0.02,0.08
0.19174480438232422,-0.1,-0.01,0.05,0.11
0.2015368938446045,-0.06,-0.03,-0.13,0.14
0.21160292625427246,-0.06,-0.05,-0.29,0.3
0.2327289581298828,0.07,-0.03,-0.23,0.24
0.23309898376464844,0.13,0.03,0.12,0.17
0.24164581298828125,0.08,0.04,0.3,0.31
0.2514958381652832,0.03,0.04,0.08,0.09
0.2616448402404785,-0.03,0.05,-0.18,0.18
0.2805180549621582,-0.08,0.08,-0.11,0.15
0.2813529968261719,-0.07,0.08,-0.06,0.12
0.2916989326477051,-0.01,0.06,-0.11,0.12
0.3014650344848633,-0.01,0.1,-0.07,0.12
0.31168699264526367,0.04,0.13,-0.01,0.13
0.33074498176574707,0.13,0.08,-0.1,0.18
0.3314638137817383,0.09,0.07,-0.14,0.18
0.34177494049072266,0.01,0.12,-0.11,0.16
0.3515479564666748,0.06,0.05,-0.18,0.19
0.3617520332336426,-0.01,-0.03,-0.16,0.16
0.38141798973083496,-0.05,0.01,0.0,0.05
0.3818020820617676,0.07,0.06,-0.06,0.11
0.3917980194091797,0.11,0.04,-0.07,0.13
0.4015519618988037,-0.01,0.0,0.07,0.07
0.4117729663848877,-0.06,-0.08,0.03,0.1
0.4312448501586914,-0.08,-0.03,0.03,0.09
0.4316067695617676,-0.08,0.04,0.09,0.12
0.4418931007385254,-0.02,0.02,-0.04,0.04
0.45156097412109375,-0.07,0.05,-0.06,0.1
0.46178102493286133,-0.08,0.02,-0.03,0.08
0.4815058708190918,0.01,-0.01,0.07,0.07
0.4818899631500244,0.07,0.0,0.11,0.13
0.491790771484375,0.1,-0.05,0.03,0.11
0.5016069412231445,0.07,-0.04,0.1,0.12
0.5117619037628174,0.15,-0.06,0.1,0.19
0.5320439338684082,0.17,-0.11,0.2,0.28
0.5324959754943848,0.14,-0.1,0.27,0.32
0.5417289733886719,0.08,-0.12,0.19,0.23
0.551616907119751,0.08,-0.08,0.18,0.21
0.561837911605835,0.11,-0.02,0.19,0.22
0.5822920799255371,0.07,0.01,0.25,0.25
0.582726001739502,0.02,0.02,0.31,0.31
0.5918259620666504,0.18,0.05,0.33,0.37
0.6016318798065186,0.29,0.05,0.45,0.53
0.6121649742126465,0.29,-0.03,0.5,0.57
0.6320281028747559,0.28,-0.15,0.43,0.53
0.6324689388275146,0.3,-0.24,0.41,0.56
0.6417241096496582,0.31,-0.25,0.41,0.57
0.6520299911499023,0.27,-0.28,0.35,0.52
0.6617031097412109,0.22,-0.32,0.3,0.49
0.6828188896179199,0.32,-0.32,0.37,0.58
0.6832759380340576,0.53,-0.27,0.48,0.76
0.6917519569396973,0.63,-0.26,0.55,0.87
0.7019510269165039,0.62,-0.22,0.59,0.88
0.711899995803833,0.62,-0.12,0.64,0.89
0.7315568923950195,0.67,-0.12,0.56,0.88
0.7320148944854736,0.61,-0.24,0.44,0.78
0.7419190406799316,0.5,-0.36,0.43,0.75
0.7520599365234375,0.52,-0.45,0.56,0.88
0.7620511054992676,0.6,-0.52,0.39,0.88
0.7828130722045898,0.51,-0.45,0.27,0.73
0.7832579612731934,0.44,-0.38,0.33,0.66
0.7917938232421875,0.58,-0.4,0.29,0.76
0.8021678924560547,0.75,-0.36,0.49,0.96
0.8119368553161621,0.85,-0.23,0.76,1.16
0.8326919078826904,0.91,-0.04,0.9,1.28
0.8331360816955566,0.89,0.02,0.83,1.21
0.8420059680938721,0.56,-0.01,0.76,0.94
0.8522248268127441,0.21,0.04,0.63,0.66
0.862109899520874,0.01,0.04,0.54,0.54
0.8828299045562744,-0.16,0.03,0.44,0.46
0.8832979202270508,-0.24,0.05,0.42,0.48
0.8920440673828125,-0.08,0.05,0.52,0.52
0.902184009552002,0.07,-0.1,0.69,0.7
0.9117770195007324,-0.02,-0.56,0.79,0.96
0.9327869415283203,-0.99,-1.71,0.83,2.14
0.9332249164581299,-2.13,-2.59,0.55,3.39
0.9418540000915527,-0.04,-0.72,-0.43,0.83
0.9523940086364746,0.85,-0.21,-0.24,0.9
0.9620637893676758,-0.66,-1.07,0.64,1.41
0.9829819202423096,-2.16,-1.35,0.52,2.59
0.9834270477294922,-2.62,-1.06,0.07,2.82
0.9919989109039307,-2.28,-0.64,0.3,2.38
1.0018157958984375,-1.71,-0.22,0.6,1.82
1.0178139209747314,-1.41,0.25,0.66,1.57
1.0219309329986572,-1.19,0.6,0.61,1.46
1.0318748950958252,-0.99,0.72,0.57,1.35
1.0419049263000488,-0.83,0.67,0.85,1.36
1.0518360137939453,-0.73,0.51,1.08,1.39
1.0675129890441895,-0.67,0.37,1.14,1.37
1.0719149112701416,-0.72,0.15,1.09,1.31
1.0819110870361328,-0.81,0.0,0.94,1.24
1.0919849872589111,-0.82,-0.09,0.81,1.15
1.1018800735473633,-0.62,-0.17,0.97,1.16
1.1172280311584473,-0.36,-0.22,1.16,1.23
1.1218857765197754,-0.21,-0.34,1.22,1.28
1.1318578720092773,-0.27,-0.43,1.16,1.26
1.1420550346374512,-0.4,-0.59,1.05,1.26
1.1521668434143066,-0.41,-0.82,0.95,1.32
1.168342113494873,-0.42,-1.02,0.94,1.44
1.1717758178710938,-0.55,-1.11,1.03,1.61
1.1819539070129395,-0.54,-1.25,1.06,1.72
1.1921091079711914,-0.48,-1.16,0.98,1.59
1.2018780708312988,-0.43,-0.94,1.0,1.43
1.2173800468444824,-0.51,-0.88,1.23,1.59
1.2219300270080566,-0.56,-0.92,1.44,1.79
1.2319369316101074,-0.56,-0.9,1.44,1.78
1.242067813873291,-0.74,-0.84,1.39,1.78
1.252065896987915,-0.92,-0.81,1.5,1.93
1.2684907913208008,-0.94,-0.84,1.58,2.02
1.271927833557129,-0.87,-0.86,1.56,1.98
1.2819838523864746,-0.97,-0.9,1.51,2.0
1.2920770645141602,-1.04,-0.86,1.53,2.04
1.3020710945129395,-0.73,-0.52,1.61,1.84
1.318288803100586,-0.42,-0.36,1.79,1.87
1.321903944015503,-0.48,-0.45,1.88,1.99
1.3319449424743652,-0.73,-0.48,1.71,1.92
1.342000961303711,-0.94,-0.4,1.59,1.88
1.3519458770751953,-1.03,-0.43,1.6,1.95
1.367300033569336,-1.04,-0.48,1.64,2.0
1.3717870712280273,-1.04,-0.47,1.83,2.15
1.3820137977600098,-0.73,-0.32,1.99,2.14
1.3921129703521729,-0.52,-0.18,2.21,2.27
1.4019219875335693,-0.65,-0.14,2.13,2.23
1.4172229766845703,-0.73,-0.14,2.12,2.24
1.4220190048217773,-0.77,-0.09,2.02,2.16
1.432008981704712,-0.88,-0.01,1.93,2.12
1.4420490264892578,-0.93,0.31,1.97,2.2
1.4521260261535645,-0.86,0.8,1.95,2.27
1.4687480926513672,-0.9,1.0,1.84,2.27
1.472012996673584,-0.98,1.3,1.66,2.32
1.4820570945739746,-1.01,1.59,1.62,2.48
1.4921259880065918,-1.15,1.82,1.53,2.64
1.5021710395812988,-1.39,2.02,1.58,2.91
1.5189099311828613,-1.53,2.24,1.99,3.36
1.5220279693603516,-1.32,2.55,2.19,3.61
1.5321130752563477,-0.96,2.9,1.7,3.49
1.542090892791748,-0.61,3.23,0.97,3.42
1.552164077758789,-0.36,3.58,0.52,3.63
1.5681788921356201,-0.11,3.82,-0.02,3.82
1.5719969272613525,0.16,3.83,-0.5,3.86
1.5820398330688477,0.25,3.47,-0.7,3.54
1.5921449661254883,0.18,2.66,-0.88,2.8
1.6020419597625732,0.17,1.87,-1.4,2.34
1.6183578968048096,0.3,0.98,-1.29,1.64
1.6219539642333984,0.53,0.04,-0.85,1.0
1.6321420669555664,0.87,-0.71,-0.6,1.27
1.642076015472412,1.29,-1.47,-0.52,2.02
1.6522297859191895,1.49,-1.92,-0.55,2.49
1.6682898998260498,1.53,-2.07,-0.48,2.61
1.6719560623168945,1.37,-2.16,-0.44,2.59
1.6820778846740723,0.94,-2.11,-0.5,2.36
1.6921429634094238,0.5,-1.94,-0.39,2.04
1.702178955078125,0.31,-1.61,-0.26,1.66
1.718209981918335,0.33,-1.24,0.02,1.28
1.7220830917358398,0.4,-0.85,0.32,0.99
1.7321069240570068,0.42,-0.44,0.59,0.84
1.7420940399169922,0.54,-0.18,0.69,0.89
1.752213954925537,0.65,-0.21,0.67,0.95
1.7679767608642578,0.76,-0.47,0.68,1.12
1.7720799446105957,0.84,-0.82,0.55,1.29
1.782106876373291,0.75,-1.22,0.44,1.49
1.7921829223632812,0.59,-1.61,0.47,1.77
1.8020710945129395,0.56,-2.05,0.56,2.19
1.8175630569458008,0.56,-2.41,0.62,2.55
1.8219609260559082,0.45,-2.69,0.59,2.79
1.8322639465332031,0.36,-2.8,0.5,2.86
1.8421239852905273,0.33,-2.77,0.51,2.83
1.8524508476257324,0.26,-2.72,0.66,2.81
1.8677411079406738,0.16,-2.63,0.83,2.76
1.8722138404846191,0.24,-2.53,0.99,2.72
1.8821508884429932,0.47,-2.41,0.96,2.63
1.8922100067138672,0.73,-2.33,0.77,2.56
1.9021987915039062,0.87,-2.39,0.61,2.61
1.9182558059692383,0.75,-2.49,0.45,2.63
1.922043800354004,0.43,-2.54,0.5,2.62
1.9321718215942383,0.48,-2.47,1.03,2.71
1.9421768188476562,0.61,-2.48,1.66,3.04
1.952253818511963,0.62,-2.39,1.88,3.1
1.968005895614624,0.48,-2.18,1.52,2.7
1.972024917602539,0.51,-1.85,1.29,2.31
1.9821820259094238,0.8,-1.3,1.51,2.14
1.9922869205474854,0.79,-0.56,1.59,1.86
2.0022220611572266,0.76,0.47,1.87,2.07
2.017833948135376,0.86,1.43,2.07,2.65
2.022097110748291,0.96,2.26,2.02,3.17
2.032169818878174,1.03,3.1,1.98,3.81
2.042214870452881,0.91,3.77,1.95,4.34
2.0522029399871826,0.67,4.27,1.97,4.75
2.067594051361084,0.49,4.52,1.65,4.83
2.072058916091919,0.38,4.37,1.21,4.55
2.082143783569336,0.43,4.1,1.26,4.31
2.0921719074249268,0.34,4.09,2.26,4.68
2.1022989749908447,0.15,3.99,3.01,5.0
2.1181299686431885,-0.07,3.5,1.5,3.8
2.1221718788146973,-0.13,3.08,-0.53,3.12
2.132275104522705,0.27,2.91,-1.23,3.17
2.1423158645629883,0.51,2.52,-1.16,2.82
2.1522889137268066,0.25,2.04,-1.1,2.33
2.167874813079834,-0.34,1.56,-1.35,2.09
2.1720638275146484,-0.69,1.17,-1.72,2.19
2.182267904281616,-0.71,0.82,-1.87,2.16
2.192305088043213,-0.76,0.68,-1.66,1.94
2.2021780014038086,-0.67,0.69,-1.25,1.57
2.2176690101623535,-0.56,0.73,-1.32,1.6
2.2221059799194336,-0.57,0.53,-1.56,1.74
2.232297897338867,-0.53,0.69,-1.26,1.53
2.242309093475342,-0.46,0.74,-0.67,1.09
2.2522149085998535,-0.43,0.52,-0.51,0.84
2.2673630714416504,-0.44,0.2,-0.49,0.68
2.2721238136291504,-0.38,-0.12,-0.53,0.66
2.282289981842041,-0.15,-0.54,-0.65,0.85
2.292336940765381,0.02,-1.03,-0.8,1.3
2.302283763885498,0.27,-1.34,-0.75,1.55
2.317786931991577,0.65,-1.55,-0.45,1.73
2.3221209049224854,0.89,-1.88,-0.23,2.09
2.3322699069976807,0.88,-2.21,-0.21,2.38
2.342360019683838,0.86,-2.58,-0.27,2.73
2.3523619174957275,0.86,-3.06,-0.36,3.19
2.367887020111084,0.74,-3.49,-0.41,3.59
2.3721470832824707,0.61,-3.88,-0.33,3.94
2.3823509216308594,0.43,-4.12,-0.21,4.14
2.392335891723633,0.3,-4.17,-0.07,4.18
2.4022319316864014,0.2,-4.12,0.04,4.12
2.41825008392334,0.16,-3.95,0.21,3.95
2.4221038818359375,0.18,-3.65,0.51,3.68
2.432370901107788,0.21,-3.28,0.2,3.29
2.4423389434814453,0.18,-2.94,0.0,2.94
2.4524178504943848,0.19,-2.62,0.26,2.63
2.4682929515838623,0.25,-2.19,0.42,2.24
2.4721498489379883,0.11,-1.79,0.67,1.91
2.4824137687683105,-0.37,-1.38,0.55,1.53
2.4922938346862793,-0.92,-1.04,0.55,1.49
2.5023818016052246,-1.34,-0.63,0.88,1.72
2.5184497833251953,-1.45,-0.06,1.26,1.92
2.5221610069274902,-1.29,0.65,1.63,2.17
2.5325188636779785,-1.12,1.37,1.89,2.58
2.542397975921631,-1.09,2.07,1.92,3.02
2.552443027496338,-1.1,2.78,1.8,3.48
2.5688159465789795,-1.0,3.43,1.53,3.88
2.572100877761841,-1.06,4.01,1.53,4.42
2.5824837684631348,-1.26,4.43,1.67,4.89
2.592410087585449,-1.6,4.73,1.79,5.3
2.6024627685546875,-2.04,5.13,2.35,6.0
2.618285894393921,-1.86,5.53,2.53,6.35
2.622189998626709,-0.94,5.61,1.56,5.89
2.6324610710144043,-0.07,5.2,0.02,5.2
2.642237901687622,0.47,4.55,-1.05,4.69
2.6522939205169678,0.99,3.88,-1.68,4.34
2.6685619354248047,1.4,3.23,-1.75,3.93
2.6724491119384766,1.38,2.45,-1.38,3.13
2.6824629306793213,1.2,1.72,-1.34,2.48
2.692326068878174,1.17,1.01,-1.41,2.09
2.702408790588379,1.25,0.41,-1.39,1.91
2.7192068099975586,1.28,0.19,-1.3,1.83
2.7225329875946045,1.37,0.27,-1.24,1.86
2.73248291015625,1.52,0.31,-1.12,1.91
2.7423059940338135,1.5,0.36,-1.2,1.95
2.7525057792663574,1.27,0.43,-1.23,1.81
2.7694058418273926,0.92,0.52,-1.04,1.48
2.7725989818573,0.53,0.64,-0.8,1.15
2.7825119495391846,0.17,0.6,-0.55,0.83
2.792268991470337,-0.04,0.28,-0.55,0.61
2.8025097846984863,-0.07,-0.26,-0.66,0.71
2.8194689750671387,0.03,-0.9,-0.73,1.15
2.8227500915527344,0.1,-1.52,-0.83,1.73
2.832508087158203,0.12,-2.12,-0.89,2.3
2.8422718048095703,0.1,-2.71,-0.89,2.85
2.852564811706543,0.09,-3.24,-0.81,3.34
2.869381904602051,0.12,-3.73,-0.81,3.81
2.8727359771728516,0.03,-4.11,-0.88,4.2
2.882446765899658,-0.06,-4.4,-0.88,4.48
2.892336845397949,0.06,-4.62,-0.9,4.7
2.902528762817383,0.18,-4.71,-0.98,4.81
2.920008897781372,0.22,-4.66,-1.07,4.78
2.923008918762207,0.25,-4.51,-0.96,4.61
2.932616949081421,0.27,-4.27,-0.67,4.33
2.942340850830078,0.37,-3.97,-0.28,3.99
2.952538013458252,0.61,-3.67,0.02,3.72
2.970660924911499,0.84,-3.26,-0.01,3.36
2.9729859828948975,0.83,-2.87,0.12,2.99
2.9824929237365723,0.94,-2.6,0.11,2.76
2.992337942123413,1.01,-2.12,0.1,2.35
3.002534866333008,0.87,-1.44,0.47,1.74
3.0197958946228027,0.71,-0.63,1.1,1.45
3.0230798721313477,0.61,0.3,1.75,1.87
3.032660961151123,0.58,1.33,2.11,2.56
3.042510986328125,0.34,2.31,2.23,3.22
3.0526108741760254,0.18,3.14,2.15,3.8
3.0704288482666016,0.14,3.83,1.85,4.25
3.073162078857422,0.36,4.45,1.52,4.71
3.0825209617614746,0.81,4.99,1.31,5.22
3.0923690795898438,1.11,5.19,1.3,5.46
3.1025919914245605,1.09,5.01,1.41,5.31
3.120198965072632,0.85,4.68,2.0,5.15
3.1231939792633057,0.42,4.38,1.98,4.82
3.1326189041137695,0.13,3.91,0.82,3.99
3.142453908920288,0.03,3.24,0.04,3.24
3.152585983276367,-0.24,2.77,-0.16,2.78
3.1702680587768555,-0.53,2.38,-0.78,2.56
3.172437906265259,-0.66,1.93,-1.75,2.68
3.182572841644287,-0.88,1.59,-1.83,2.57
3.1924679279327393,-0.98,1.29,-1.65,2.31
3.202670097351074,-1.22,1.3,-1.85,2.56
3.2205748558044434,-1.45,1.22,-1.72,2.55
3.2225069999694824,-1.43,1.12,-1.44,2.31
3.2326440811157227,-1.19,1.07,-1.42,2.13
3.242386817932129,-0.89,1.0,-1.5,2.01
3.252739906311035,-0.83,1.02,-1.78,2.21
3.270796775817871,-0.9,0.86,-1.57,2.0
3.272573947906494,-0.82,0.74,-1.18,1.61
3.2826528549194336,-0.56,0.6,-0.84,1.17
3.2925920486450195,-0.26,0.34,-0.67,0.79
3.302699089050293,-0.05,-0.01,-0.68,0.68
3.3204288482666016,0.15,-0.43,-0.68,0.81
3.3226208686828613,0.37,-0.85,-0.59,1.09
3.332720994949341,0.58,-1.28,-0.52,1.49
3.342410087585449,0.69,-1.63,-0.36,1.8
3.3527798652648926,0.68,-2.07,-0.2,2.18
3.3710618019104004,0.75,-2.6,-0.17,2.71
3.372654914855957,0.69,-3.14,-0.26,3.22
3.382701873779297,0.43,-3.57,-0.3,3.6
3.3926048278808594,0.24,-3.99,-0.31,4.0
3.4026708602905273,0.2,-4.24,-0.44,4.26
3.4206690788269043,0.23,-4.34,-0.53,4.37
3.422348976135254,0.24,-4.35,-0.47,4.38
3.432811975479126,0.23,-4.26,-0.4,4.28
3.442441940307617,0.2,-4.13,-0.27,4.14
3.4528329372406006,0.02,-3.87,-0.18,3.87
3.470808982849121,-0.16,-3.55,0.02,3.55
3.4725217819213867,-0.3,-3.23,0.25,3.25
3.4827089309692383,-0.4,-2.86,0.47,2.92
3.4925360679626465,-0.4,-2.48,0.55,2.57
3.5027639865875244,-0.42,-2.13,0.52,2.23
3.5204288959503174,-0.43,-1.65,0.64,1.82
3.522559881210327,-0.52,-1.1,0.4,1.28
3.532747983932495,-0.67,-0.52,0.67,1.08
3.542479991912842,-0.68,0.22,0.96,1.19
3.5529189109802246,-0.75,0.94,1.66,2.04
3.570542812347412,-0.82,1.68,2.05,2.77
3.5725488662719727,-0.93,2.27,1.96,3.13
3.5828099250793457,-1.1,2.76,1.87,3.51
3.592647075653076,-1.26,3.23,1.89,3.94
3.6027140617370605,-1.59,3.88,1.8,4.56
3.62068510055542,-1.89,4.39,1.79,5.1
3.622628927230835,-1.85,4.82,2.15,5.59
3.6327459812164307,-1.53,5.41,2.6,6.19
3.6425938606262207,-1.18,5.9,3.09,6.76
3.652824878692627,-0.58,5.81,1.94,6.15
3.670836925506592,0.15,5.05,0.07,5.05
3.6725521087646484,0.44,4.1,-0.49,4.15
3.6828880310058594,0.27,3.35,0.05,3.36
3.6925740242004395,0.1,2.64,-0.02,2.64
3.70279598236084,0.2,1.67,-0.62,1.79
3.7210230827331543,0.33,0.77,-1.08,1.36
3.7227330207824707,0.52,0.3,-1.65,1.75
3.7328479290008545,0.96,0.23,-2.29,2.49
3.7425179481506348,1.33,0.43,-2.12,2.53
3.753018856048584,1.37,0.83,-1.57,2.24
3.7711868286132812,1.18,1.17,-1.25,2.07
3.7727460861206055,0.88,1.32,-1.19,1.98
3.782780885696411,0.56,1.44,-1.15,1.92
3.792771816253662,0.52,1.49,-0.82,1.77
3.8027679920196533,0.66,1.48,-0.7,1.76
3.8211960792541504,0.76,1.26,-0.36,1.51
3.8226590156555176,0.73,0.74,-0.41,1.11
3.8327739238739014,0.61,0.0,-0.6,0.85
3.84259295463562,0.51,-0.69,-0.47,0.97
3.8528809547424316,0.38,-1.51,-0.43,1.61
3.8715600967407227,0.18,-2.34,-0.51,2.4
3.872769832611084,-0.01,-3.05,-0.54,3.09
3.882883071899414,-0.12,-3.67,-0.61,3.72
3.8926548957824707,-0.18,-4.18,-0.72,4.24
3.902754783630371,-0.15,-4.56,-0.86,4.64
3.921505928039551,0.07,-4.85,-1.03,4.95
3.9226279258728027,0.21,-5.11,-1.29,5.27
3.9328818321228027,0.33,-5.24,-1.47,5.45
3.942770004272461,0.23,-5.2,-1.3,5.36
3.952861785888672,-0.02,-4.93,-0.95,5.02
3.9719319343566895,-0.15,-4.5,-0.59,4.54
3.972601890563965,-0.12,-4.11,-0.18,4.11
3.982870101928711,0.1,-3.6,0.08,3.6
3.992830991744995,0.44,-3.1,0.51,3.17
4.002840995788574,0.83,-2.61,0.8,2.85
4.0207788944244385,1.1,-2.06,0.68,2.43
4.0213518142700195,1.12,-1.49,0.73,2.0
4.031505107879639,1.05,-1.0,0.89,1.7
4.0413007736206055,1.02,-0.47,1.0,1.5
4.0515618324279785,0.88,0.32,1.08,1.42
4.070344924926758,0.67,1.12,1.35,1.87
4.0713958740234375,0.37,1.72,1.68,2.43
4.081448078155518,0.12,2.19,1.89,2.89
4.091283798217773,0.05,2.56,1.68,3.06
4.101749897003174,-0.01,2.96,1.32,3.24
4.121777057647705,0.01,3.49,1.3,3.72
4.1222100257873535,0.13,4.13,1.29,4.32
4.131682872772217,0.42,4.62,1.43,4.85
4.141327857971191,0.64,4.92,1.76,5.26
4.151591777801514,0.6,5.15,2.82,5.9
4.171696901321411,0.4,5.32,2.6,5.93
4.172135829925537,0.1,5.12,0.98,5.21
4.181591033935547,-0.05,4.58,-0.49,4.6
4.191856861114502,-0.33,4.09,-0.72,4.16
4.201676845550537,-0.69,3.58,-1.04,3.79
4.2216267585754395,-0.89,2.94,-1.82,3.57
4.222069978713989,-1.15,2.17,-1.93,3.12
4.23164176940918,-1.39,1.42,-1.77,2.66
4.241707801818848,-1.47,1.02,-1.9,2.6
4.251744985580444,-1.41,0.81,-1.67,2.33
4.271647930145264,-1.41,0.58,-1.28,1.99
4.27209997177124,-1.5,0.33,-1.14,1.91
4.281651973724365,-1.29,0.11,-1.06,1.67
4.291626930236816,-0.9,0.06,-0.98,1.33
4.30166482925415,-0.64,0.05,-0.95,1.14
4.3217198848724365,-0.46,-0.03,-1.02,1.11
4.322171926498413,-0.3,-0.15,-1.13,1.17
4.331586837768555,-0.16,-0.4,-1.11,1.19
4.341752052307129,-0.14,-0.88,-1.0,1.33
4.351668834686279,-0.11,-1.35,-0.81,1.57
4.371758937835693,-0.06,-1.82,-0.63,1.92
4.372186899185181,0.04,-2.39,-0.55,2.45
4.381591796875,0.18,-2.9,-0.63,2.97
4.391880989074707,0.15,-3.28,-0.72,3.36
4.401726961135864,0.1,-3.58,-0.7,3.64
4.4229350090026855,0.09,-3.79,-0.57,3.83
4.423410892486572,0.13,-3.93,-0.45,3.95
4.432921886444092,0.28,-4.04,-0.41,4.07
4.442811965942383,0.43,-4.14,-0.37,4.17
4.453059911727905,0.53,-4.15,-0.22,4.18
4.472562789916992,0.59,-4.01,-0.23,4.05
4.473023891448975,0.56,-3.79,-0.17,3.83
4.482968807220459,0.35,-3.62,0.05,3.63
4.4927978515625,0.2,-3.36,0.27,3.37
4.503037929534912,0.04,-3.09,0.45,3.12
4.522946834564209,-0.15,-2.78,0.44,2.81
4.523392915725708,-0.28,-2.33,0.34,2.37
4.532938003540039,-0.42,-1.83,0.36,1.91
4.54285192489624,-0.51,-1.28,0.46,1.45
4.5530149936676025,-0.62,-0.63,0.88,1.24
4.572630882263184,-0.94,0.09,1.44,1.72
4.573096990585327,-1.25,0.94,2.02,2.55
4.583051919937134,-1.37,1.78,2.38,3.27
4.592806816101074,-1.23,2.53,2.16,3.54
4.603147983551025,-1.04,3.09,1.59,3.62
4.623077869415283,-1.06,3.58,1.29,3.95
4.623524904251099,-1.34,4.14,1.49,4.59
4.632969856262207,-1.66,4.66,1.7,5.23
4.642868995666504,-2.02,5.1,1.61,5.71
4.652969837188721,-2.38,5.48,1.94,6.28
4.672802925109863,-2.26,5.97,2.66,6.91
4.673186779022217,-1.16,6.17,2.04,6.6
4.683052062988281,0.21,5.75,0.24,5.75
4.692812919616699,0.82,4.87,-0.9,5.01
4.702899932861328,0.96,3.97,-1.16,4.24
4.722778797149658,0.96,3.07,-1.35,3.48
4.723172903060913,0.94,2.11,-1.63,2.82
4.7330849170684814,0.9,1.25,-2.01,2.53
4.742810964584351,0.88,0.59,-2.29,2.52
4.753087043762207,0.97,0.15,-2.24,2.44
4.7731828689575195,0.89,0.06,-1.87,2.07
4.773642063140869,0.8,0.13,-1.37,1.59
4.783087968826294,0.98,0.22,-1.1,1.48
4.79276704788208,0.98,0.32,-0.89,1.36
4.802923917770386,0.85,0.43,-0.6,1.12
4.823456764221191,0.59,0.58,-0.36,0.9
4.823905944824219,0.17,0.66,-0.12,0.69
4.833092927932739,-0.27,0.56,-0.08,0.62
4.842834949493408,-0.44,0.3,-0.37,0.64
4.853184938430786,-0.46,-0.2,-0.83,0.96
4.873112916946411,-0.29,-0.97,-1.05,1.45
4.873575925827026,-0.18,-1.53,-1.02,1.84
4.883109092712402,-0.15,-2.23,-1.02,2.45
4.892858028411865,-0.16,-2.93,-0.94,3.08
4.903096914291382,-0.13,-3.5,-0.96,3.63
4.9233739376068115,-0.05,-3.96,-1.05,4.09
4.923824787139893,0.14,-4.28,-1.09,4.41
4.933145046234131,0.26,-4.52,-1.1,4.65
4.942934989929199,0.25,-4.72,-0.97,4.82
4.953220844268799,0.2,-4.91,-0.88,4.99
4.9736199378967285,0.17,-5.0,-1.02,5.1
4.974026918411255,0.02,-5.0,-1.07,5.11
4.98305082321167,0.0,-4.8,-0.97,4.89
4.993066787719727,0.06,-4.51,-0.76,4.57
5.00322699546814,0.09,-4.13,-0.31,4.14
5.0236968994140625,0.22,-3.67,-0.02,3.67
5.024158954620361,0.43,-3.15,0.21,3.18
5.033204078674316,0.66,-2.6,0.36,2.7
5.043118953704834,0.79,-1.94,0.45,2.14
5.053199768066406,0.78,-1.19,0.73,1.59
5.0733160972595215,0.76,-0.21,1.21,1.44
5.0736939907073975,0.87,0.91,1.62,2.05
5.083061933517456,0.95,1.92,1.63,2.69
5.093177795410156,0.95,2.75,1.51,3.27
5.103123903274536,0.5,3.44,1.75,3.89
5.123713970184326,-0.15,4.02,2.15,4.56
5.124094009399414,-0.37,4.48,1.98,4.91
5.133236885070801,-0.14,4.9,1.67,5.17
5.143221855163574,0.16,5.18,1.8,5.48
5.153198957443237,0.47,5.32,1.9,5.66
5.173890113830566,0.56,5.66,3.01,6.43
5.17433500289917,0.45,5.68,3.16,6.51
5.1831889152526855,0.57,5.06,0.97,5.18
5.193341970443726,0.46,4.4,-0.51,4.45
5.203279972076416,-0.03,3.89,-0.7,3.95
5.223597049713135,-0.35,3.21,-1.34,3.49
5.224055767059326,-0.55,2.62,-2.34,3.55
5.233330965042114,-0.91,2.11,-2.39,3.31
5.243441104888916,-1.15,1.6,-2.02,2.82
5.253368854522705,-1.24,1.26,-2.01,2.67
5.27410888671875,-1.43,0.99,-1.84,2.53
5.27455997467041,-1.73,0.66,-1.43,2.33
5.283259868621826,-1.94,0.34,-1.24,2.32
5.293452978134155,-1.82,0.19,-1.25,2.21
5.303236961364746,-1.43,0.19,-1.2,1.87
5.324429988861084,-0.94,0.25,-1.22,1.56
5.325006008148193,-0.56,0.22,-1.33,1.45
5.333284854888916,-0.43,0.13,-0.97,1.06
5.343616008758545,-0.15,-0.16,-0.76,0.79
5.353332042694092,0.21,-0.6,-0.53,0.82
5.374409914016724,0.49,-1.16,-0.14,1.26
5.3748297691345215,0.63,-1.8,-0.14,1.91
5.3832008838653564,0.66,-2.4,-0.41,2.52
5.393625974655151,0.67,-2.96,-0.5,3.07
5.403158903121948,0.69,-3.42,-0.56,3.53
5.42440390586853,0.73,-3.71,-0.67,3.84
5.424935817718506,0.76,-3.95,-0.79,4.09
5.433324813842773,0.72,-4.15,-0.83,4.29
5.443725109100342,0.73,-4.36,-0.72,4.47
5.453320026397705,0.63,-4.55,-0.53,4.62
5.474339008331299,0.4,-4.72,-0.43,4.75
5.474785804748535,0.21,-4.78,-0.48,4.8
5.483269929885864,0.11,-4.7,-0.44,4.72
5.493163108825684,0.05,-4.48,-0.16,4.48
5.503262042999268,-0.07,-4.11,0.0,4.11
5.524602890014648,-0.18,-3.7,0.13,3.7
5.525073051452637,-0.25,-3.17,0.42,3.2
5.533353805541992,-0.32,-2.48,0.59,2.56
5.543102979660034,-0.31,-1.68,0.52,1.78
5.55339789390564,-0.36,-0.96,0.42,1.1
5.57466983795166,-0.48,-0.13,0.63,0.8
5.575128078460693,-0.78,0.75,1.28,1.67
5.583224773406982,-1.14,1.55,2.09,2.84
5.5933098793029785,-1.4,2.08,2.59,3.6
5.603198051452637,-1.27,2.38,1.99,3.35
5.625511884689331,-1.15,2.64,1.05,3.06
5.625895023345947,-1.49,3.15,1.32,3.72
5.633380889892578,-1.73,3.88,1.74,4.59
5.643204927444458,-1.91,4.58,1.87,5.3
5.653310775756836,-1.99,5.24,2.09,5.98
5.674458026885986,-1.99,6.08,3.01,7.07
5.67491888999939,-1.59,6.87,3.15,7.72
5.683382034301758,-0.47,6.71,1.36,6.86
5.693361759185791,0.5,5.91,-0.43,5.94
5.703213930130005,0.82,4.91,-1.19,5.11
5.72422194480896,1.0,3.84,-1.6,4.27
5.7246129512786865,1.07,2.9,-1.78,3.56
5.73341178894043,0.94,1.91,-1.63,2.68
5.7431960105896,0.97,1.2,-1.82,2.38
5.753365993499756,1.15,0.88,-2.23,2.65
5.7748260498046875,1.52,0.84,-2.09,2.71
5.775268077850342,1.6,1.06,-1.52,2.44
5.783393859863281,1.58,1.3,-1.24,2.39
5.793306827545166,1.61,1.42,-1.2,2.45
5.803360939025879,1.38,1.51,-1.27,2.4
5.824910879135132,1.13,1.58,-1.22,2.29
5.8253560066223145,0.82,1.47,-0.96,1.93
5.833405017852783,0.29,1.15,-0.6,1.32
5.843245983123779,-0.09,0.54,-0.52,0.75
5.853319883346558,-0.12,-0.1,-0.62,0.63
5.875185012817383,-0.02,-0.82,-0.69,1.07
5.875648021697998,0.0,-1.61,-0.66,1.74
5.883387088775635,-0.01,-2.42,-0.55,2.48
5.893284797668457,0.03,-3.16,-0.41,3.18
5.9033119678497314,0.08,-3.77,-0.28,3.78
5.9247119426727295,0.06,-4.31,-0.57,4.34
5.925163984298706,0.1,-4.61,-0.96,4.7
5.933350086212158,0.23,-4.75,-0.96,4.85
5.943263053894043,0.39,-4.86,-1.16,5.01
5.953362941741943,0.55,-4.92,-1.03,5.05
5.975133895874023,0.58,-4.78,-0.79,4.87
5.975525856018066,0.56,-4.56,-0.71,4.64
5.983396053314209,0.62,-4.31,-0.58,4.39
5.993434906005859,0.68,-4.0,-0.52,4.09
6.0033278465271,0.71,-3.69,-0.35,3.77
6.025304794311523,0.68,-3.43,-0.2,3.5
6.025770902633667,0.6,-3.14,0.0,3.19
6.033415794372559,0.6,-2.79,0.1,2.85
6.043320894241333,0.69,-2.42,0.12,2.51
6.0534539222717285,0.67,-1.98,0.17,2.09
6.075801849365234,0.62,-1.25,0.35,1.43
6.076243877410889,0.53,-0.39,0.77,1.01
6.0832648277282715,0.53,0.57,1.3,1.51
6.093437910079956,0.61,1.55,1.64,2.33
6.103490829467773,0.53,2.42,1.87,3.1
6.1262431144714355,0.32,3.11,1.88,3.64
6.126691818237305,0.29,3.75,1.81,4.17
6.133478879928589,0.28,4.31,1.6,4.6
6.143380880355835,0.46,4.76,1.36,4.97
6.153558969497681,0.54,4.93,1.45,5.16
6.175700902938843,0.42,4.94,1.81,5.27
6.176135063171387,0.0,5.16,2.27,5.63
6.1834330558776855,-0.26,5.38,1.72,5.65
6.193398952484131,0.05,5.13,0.72,5.18
6.203536033630371,0.15,4.88,0.3,4.89
6.225470066070557,-0.01,4.58,-0.22,4.58
6.225947856903076,-0.23,3.96,-1.16,4.13
6.233479976654053,-0.27,3.2,-1.81,3.68
6.243391036987305,-0.5,2.51,-1.91,3.19
6.253530979156494,-0.99,1.86,-2.28,3.1
6.275252819061279,-1.46,1.26,-2.29,2.99
6.275625944137573,-1.75,0.86,-1.97,2.77
6.283475875854492,-1.93,0.46,-1.82,2.69
6.293446063995361,-1.73,0.18,-1.74,2.46
6.303407907485962,-1.32,0.1,-1.61,2.08
6.325235843658447,-1.03,0.16,-1.28,1.65
6.325687885284424,-0.76,0.34,-1.0,1.3
6.33351993560791,-0.47,0.32,-0.8,0.98
6.343398094177246,-0.29,0.08,-0.63,0.69
6.353572845458984,-0.14,-0.34,-0.59,0.69
6.375708103179932,-0.03,-0.85,-0.74,1.12
6.376111030578613,-0.03,-1.39,-0.76,1.58
6.383482933044434,-0.04,-1.92,-0.7,2.04
6.393445014953613,0.02,-2.46,-0.64,2.54
6.403456926345825,0.11,-2.93,-0.58,2.98
6.426103115081787,0.17,-3.33,-0.57,3.38
6.426562786102295,0.16,-3.86,-0.55,3.9
6.433488845825195,0.28,-4.28,-0.65,4.33
6.443388938903809,0.36,-4.62,-0.67,4.68
6.453535079956055,0.32,-4.87,-0.68,4.92
6.47658109664917,0.3,-4.99,-0.77,5.05
6.47694993019104,0.2,-4.97,-0.74,5.02
6.483482837677002,0.2,-4.74,-0.63,4.78
6.493504047393799,0.32,-4.37,-0.37,4.39
6.503551006317139,0.31,-3.99,-0.1,4.0
6.525322914123535,0.25,-3.59,0.16,3.6
6.525712966918945,0.15,-3.06,0.51,3.1
6.533626079559326,0.0,-2.56,0.8,2.68
6.543458938598633,0.0,-1.96,0.85,2.13
6.553642988204956,-0.03,-1.26,0.94,1.57
6.576601028442383,-0.17,-0.52,0.89,1.04
6.577047824859619,-0.39,0.02,0.55,0.67
6.583533763885498,-0.76,0.64,0.91,1.34
6.593527793884277,-1.01,1.33,1.45,2.21
6.603609085083008,-1.16,1.91,2.04,3.02
6.626392841339111,-1.24,2.35,2.45,3.61
6.626852989196777,-1.29,2.69,2.19,3.7
6.633653879165649,-1.46,2.88,1.66,3.63
6.6435229778289795,-1.68,3.14,1.39,3.82
6.653793811798096,-1.73,3.66,1.37,4.27
6.676393032073975,-1.67,4.29,1.6,4.87
6.676851987838745,-1.47,4.93,1.68,5.41
6.68363094329834,-1.36,5.41,2.04,5.93
6.6935200691223145,-1.33,5.87,2.96,6.7
6.703609943389893,-0.66,5.99,2.15,6.39
6.726222038269043,0.24,5.35,-0.08,5.35
6.726618766784668,0.49,4.17,-1.43,4.43
6.733707904815674,0.6,3.18,-1.27,3.47
6.7435479164123535,0.84,2.2,-1.06,2.58
6.753788948059082,0.72,1.21,-1.35,1.95
6.776051998138428,0.39,0.47,-1.95,2.04
6.77650785446167,0.38,0.08,-2.63,2.65
6.783737897872925,0.69,0.11,-2.85,2.93
6.793572902679443,0.88,0.45,-2.2,2.41
6.803688049316406,0.86,0.84,-1.75,2.12
6.8264970779418945,0.96,0.91,-1.66,2.12
6.82696008682251,0.91,0.79,-1.57,1.97
6.8337318897247314,0.63,0.73,-1.57,1.84
6.843565940856934,0.31,0.6,-1.3,1.46
6.853874921798706,0.04,0.55,-1.03,1.16
6.876957893371582,-0.19,0.41,-0.76,0.88
6.877417087554932,-0.35,0.13,-0.67,0.76
6.883704900741577,-0.48,-0.28,-0.75,0.93
6.89359188079834,-0.43,-0.78,-0.68,1.12
6.9036478996276855,-0.32,-1.3,-0.52,1.43
6.927032947540283,-0.15,-1.84,-0.58,1.93
6.927486896514893,0.04,-2.32,-0.68,2.41
6.933661937713623,0.11,-2.73,-0.7,2.82
6.94360876083374,0.1,-3.06,-0.75,3.15
6.95389199256897,0.06,-3.37,-0.78,3.45
6.977547883987427,0.02,-3.59,-0.83,3.68
6.978002071380615,-0.05,-3.79,-0.77,3.86
6.983660936355591,-0.05,-3.97,-0.75,4.04
6.993587970733643,0.15,-4.1,-0.66,4.15
7.003680944442749,0.38,-4.11,-0.57,4.16
7.026719093322754,0.5,-4.04,-0.61,4.11
7.02717399597168,0.6,-4.03,-0.47,4.1
7.033647060394287,0.57,-3.99,-0.26,4.03
7.043612003326416,0.48,-3.86,-0.05,3.89
7.053638935089111,0.54,-3.62,0.18,3.66
7.076862812042236,0.67,-3.24,0.24,3.31
7.077305793762207,0.82,-2.74,0.03,2.86
7.083611011505127,0.88,-2.19,-0.01,2.36
7.093645095825195,0.69,-1.5,0.42,1.7
7.103662967681885,0.38,-0.66,1.12,1.35
7.126535892486572,0.19,0.31,1.72,1.75
7.126983880996704,0.1,1.33,1.98,2.38
7.13372278213501,0.18,2.31,2.02,3.07
7.143610000610352,0.43,3.2,2.19,3.9
7.153844833374023,0.61,3.86,2.31,4.53
7.1776628494262695,0.58,4.26,2.04,4.75
7.17810583114624,0.5,4.52,1.11,4.68
7.183679103851318,0.28,4.54,0.99,4.65
7.193665981292725,0.24,4.64,1.84,4.99
7.203816890716553,-0.03,4.99,2.94,5.79
7.2274298667907715,-0.16,5.08,1.95,5.44
7.227883815765381,0.08,4.76,0.61,4.79
7.233656883239746,0.21,4.46,0.35,4.47
7.243689060211182,0.02,4.01,-0.2,4.01
7.253808975219727,-0.1,3.43,-1.54,3.76
7.277965068817139,-0.27,2.98,-2.06,3.63
7.278421878814697,-0.67,2.65,-1.98,3.37
7.283744812011719,-1.27,2.32,-2.16,3.41
7.293764114379883,-1.76,2.0,-2.14,3.41
7.303708076477051,-1.94,2.04,-2.06,3.48
7.327486038208008,-2.11,1.68,-1.75,3.21
7.327952861785889,-1.86,1.33,-1.67,2.83
7.333725929260254,-1.23,0.92,-1.57,2.19
7.3437628746032715,-0.89,0.86,-1.73,2.12
7.353816986083984,-0.74,0.77,-1.33,1.7
7.377533912658691,0.02,0.31,-0.95,0.99
7.3779778480529785,0.16,-0.13,-0.75,0.77
7.3836798667907715,0.11,-0.47,-0.44,0.65
7.393762111663818,0.09,-0.94,-0.35,1.0
7.403723955154419,0.18,-1.56,-0.37,1.61
7.427217960357666,0.3,-2.08,-0.45,2.14
7.427669048309326,0.32,-2.6,-0.35,2.64
7.433736801147461,0.41,-3.05,-0.37,3.09
7.443781852722168,0.54,-3.64,-0.54,3.71
7.4538397789001465,0.53,-4.19,-0.72,4.28
7.478370904922485,0.53,-4.68,-0.99,4.81
7.478831768035889,0.42,-5.13,-1.32,5.31
7.483809947967529,0.33,-5.4,-1.3,5.56
7.493841886520386,0.21,-5.32,-1.17,5.45
7.503909111022949,-0.12,-5.12,-1.03,5.22
7.5290608406066895,-0.3,-4.73,-0.81,4.8
7.529510021209717,-0.19,-4.24,-0.55,4.27
7.533884048461914,-0.22,-3.89,-0.34,3.91
7.5438148975372314,-0.29,-3.35,-0.19,3.36
7.55385684967041,-0.18,-2.65,0.08,2.65
7.578004837036133,-0.1,-2.01,0.23,2.02
7.578464031219482,-0.17,-1.36,0.36,1.41
7.583854913711548,-0.28,-0.64,0.56,0.89
7.5939249992370605,-0.39,0.04,0.64,0.75
7.603846073150635,-0.55,0.59,0.68,1.05
7.628546953201294,-0.85,1.08,0.99,1.69
7.62901496887207,-1.08,1.58,1.48,2.41
7.633868932723999,-1.14,1.96,1.98,3.01
7.643890857696533,-1.03,2.11,2.09,3.14
7.65395188331604,-0.84,2.15,1.89,2.98
7.679049968719482,-0.79,2.27,1.56,2.86
7.6795079708099365,-0.82,2.66,1.53,3.17
7.683932781219482,-0.92,3.43,1.71,3.94
7.693900108337402,-1.05,4.19,1.7,4.64
7.703958988189697,-1.23,4.85,1.81,5.32
7.728804111480713,-1.39,5.41,2.68,6.19
7.729262828826904,-1.08,5.96,2.63,6.6
7.73390007019043,-0.01,5.73,0.96,5.8
7.743916988372803,1.18,4.83,-0.18,4.97
7.754004001617432,1.09,3.8,-0.07,3.95
7.778913974761963,0.69,3.03,-0.63,3.17
7.779364109039307,0.61,2.18,-0.94,2.45
7.7839179039001465,0.55,1.32,-1.22,1.87
7.793964862823486,0.36,0.68,-1.73,1.89
7.804019927978516,0.47,0.52,-2.31,2.41
7.829250812530518,0.92,0.65,-2.38,2.63
7.829693794250488,1.04,0.9,-1.97,2.4
7.83397102355957,0.91,1.06,-1.64,2.15
7.843898773193359,0.86,1.06,-1.45,1.99
7.854053020477295,0.84,0.92,-1.33,1.82
7.879216909408569,0.73,0.79,-1.33,1.71
7.879714012145996,0.63,0.76,-1.17,1.53
7.883959770202637,0.36,0.69,-0.77,1.09
7.893939018249512,0.0,0.46,-0.37,0.59
7.903929948806763,-0.03,0.04,-0.18,0.18
7.928895950317383,-0.15,-0.56,-0.2,0.61
7.929346084594727,-0.18,-1.15,-0.27,1.19
7.934064865112305,-0.08,-1.76,-0.42,1.81
7.9439709186553955,0.12,-2.25,-0.54,2.31
7.95406699180603,0.21,-2.72,-0.6,2.79
7.963936805725098,0.02,-3.26,-0.72,3.33
7.979512929916382,0.13,-3.56,-0.9,3.67
7.98400092124939,0.35,-3.89,-0.93,4.01
7.993964910507202,0.31,-4.23,-1.02,4.36
8.004056930541992,0.22,-4.44,-1.04,4.56
8.028357982635498,0.24,-4.49,-0.96,4.59
8.02880597114563,0.4,-4.32,-0.87,4.42
8.032527923583984,0.66,-4.1,-0.65,4.2
8.04258394241333,0.43,-4.0,-0.54,4.05
8.052810907363892,0.33,-3.77,-0.28,3.79
8.06277084350586,0.46,-3.43,-0.16,3.46
8.078252792358398,0.56,-3.15,-0.08,3.2
8.082437992095947,0.82,-2.84,0.03,2.95
8.09264087677002,0.73,-2.5,0.03,2.6
8.102912902832031,0.68,-1.95,0.06,2.06
8.113183975219727,0.64,-1.3,0.08,1.45
8.128412961959839,0.62,-0.64,0.33,0.95
8.132627010345459,0.89,0.09,0.79,1.19
8.14273190498352,0.78,1.03,1.26,1.8
8.152729034423828,0.9,2.29,1.76,3.02
8.162726879119873,1.16,3.48,1.89,4.12
8.178009033203125,0.97,3.96,2.08,4.57
8.182575941085815,0.31,4.18,2.14,4.7
8.192617893218994,-0.35,4.12,1.74,4.48
8.203113079071045,-0.58,3.87,1.29,4.12
8.21278691291809,-0.34,4.07,1.33,4.29
8.22819995880127,-0.14,4.39,1.5,4.64
8.232658863067627,-0.27,4.71,1.66,5.0
8.243154048919678,-0.29,4.65,1.05,4.77
8.252922058105469,-0.06,4.62,0.89,4.7
8.262792110443115,-0.13,4.75,0.86,4.82
8.278896808624268,-0.42,4.11,0.25,4.13
8.282841920852661,-0.55,3.3,-0.37,3.36
8.292671918869019,-0.71,2.6,-0.76,2.8
8.302649021148682,-1.04,2.13,-1.19,2.65
8.312850952148438,-1.47,1.46,-1.5,2.55
8.328258037567139,-1.56,0.89,-1.55,2.37
8.332671880722046,-1.25,0.9,-1.56,2.19
8.3452467918396,-1.11,0.6,-1.42,1.89
8.355495929718018,-0.89,-0.01,-1.21,1.5
8.379623889923096,-0.71,-0.33,-1.21,1.44
8.380084991455078,-0.53,-0.42,-1.13,1.31
8.385389804840088,-0.13,-0.54,-1.1,1.23
8.395312786102295,0.16,-0.72,-1.08,1.3
8.40544080734253,0.18,-0.84,-0.77,1.15
8.42966604232788,0.05,-1.02,-0.7,1.23
8.43012285232544,0.16,-1.34,-0.48,1.43
8.435512065887451,0.28,-1.8,-0.44,1.87
8.445230960845947,0.25,-2.2,-0.68,2.31
8.455476760864258,0.18,-2.71,-0.84,2.84
8.47934889793396,0.34,-3.07,-0.88,3.21
8.479798793792725,0.44,-3.41,-1.04,3.59
8.485517024993896,0.36,-3.82,-1.16,4.0
8.495332956314087,0.22,-4.11,-1.12,4.26
8.505361080169678,0.0,-4.23,-1.01,4.34
8.52960991859436,-0.24,-4.22,-0.76,4.29
8.530064105987549,-0.28,-4.26,-0.53,4.3
8.53548789024353,-0.25,-4.12,-0.4,4.14
8.545345783233643,-0.2,-3.89,-0.27,3.9
8.555527925491333,-0.38,-3.56,-0.34,3.59
8.580866813659668,-0.7,-3.0,-0.55,3.12
8.581318855285645,-0.26,-2.02,-0.26,2.05
8.585450887680054,0.16,-1.13,0.29,1.17
8.595354080200195,0.09,-0.41,0.77,0.87
8.605486869812012,-0.27,-0.16,0.83,0.88
8.630155086517334,-0.5,-0.09,0.68,0.84
8.630626916885376,-0.3,0.08,0.84,0.89
8.635485887527466,-0.14,0.31,1.01,1.06
8.645376920700073,-0.45,0.55,1.11,1.31
8.65553593635559,-0.64,0.81,1.29,1.65
8.679903984069824,-0.53,1.17,1.47,1.95
8.680346012115479,-0.39,1.67,1.39,2.2
8.68533706665039,-0.44,2.05,1.21,2.42
8.695333003997803,-0.58,2.28,1.03,2.56
8.705633878707886,-0.69,2.83,0.97,3.07
8.730484962463379,-1.07,3.5,1.05,3.8
8.730945110321045,-1.43,4.36,1.19,4.74
8.735485076904297,-1.15,5.3,1.93,5.75
8.745357036590576,-1.14,5.48,2.42,6.09
8.755527973175049,-1.09,5.51,1.49,5.81
8.7798490524292,-0.73,5.16,0.59,5.24
8.780543804168701,-0.02,4.71,0.28,4.71
8.78541898727417,1.05,3.63,-0.24,3.78
8.795392990112305,1.64,2.97,-1.0,3.53
8.805430889129639,1.33,2.22,-1.16,2.83
8.829118967056274,0.73,1.44,-1.54,2.23
8.829643964767456,0.43,1.05,-2.31,2.57
8.835438966751099,0.34,0.86,-2.43,2.6
8.84546709060669,0.18,1.04,-1.84,2.12
8.855511903762817,0.21,1.19,-1.43,1.87
8.865427017211914,0.27,1.08,-1.19,1.62
8.879788875579834,0.32,0.96,-1.18,1.55
8.885381937026978,0.41,0.75,-1.15,1.43
8.89537000656128,0.55,0.58,-1.0,1.28
8.905364990234375,0.38,0.37,-0.82,0.97
8.915358066558838,0.2,0.13,-0.71,0.74
8.929337978363037,0.15,-0.28,-0.62,0.69
8.935232877731323,0.15,-0.84,-0.62,1.05
8.945422887802124,0.05,-1.42,-0.65,1.56
8.95552110671997,-0.18,-1.94,-0.69,2.06
8.965481758117676,-0.41,-2.53,-0.7,2.65
8.979790925979614,-0.49,-3.03,-0.78,3.16
8.985503911972046,-0.25,-3.37,-0.8,3.47
8.995471954345703,0.09,-3.61,-0.74,3.68
9.005475997924805,0.26,-3.83,-0.5,3.87
9.015428066253662,0.34,-4.11,-0.4,4.14
9.029524803161621,0.37,-4.39,-0.57,4.44
9.035291910171509,0.24,-4.57,-0.85,4.65
9.045378923416138,-0.01,-4.68,-0.86,4.75
9.055562973022461,0.05,-4.52,-0.87,4.6
9.065452098846436,0.34,-4.13,-0.52,4.17
9.079864025115967,0.54,-3.75,-0.28,3.79
9.085416793823242,0.55,-3.36,-0.24,3.41
9.095477104187012,0.47,-2.95,-0.18,2.99
9.105455875396729,0.4,-2.54,0.12,2.57
9.115541934967041,0.47,-2.04,0.27,2.11
9.13080883026123,0.65,-1.55,0.53,1.76
9.13549280166626,0.68,-1.07,0.67,1.43
9.145490884780884,0.5,-0.55,0.82,1.1
9.155704021453857,0.29,0.07,1.21,1.24
9.165517807006836,0.28,0.63,1.46,1.61
9.18077278137207,0.33,1.2,1.58,2.01
9.185401916503906,0.46,1.95,1.67,2.6
9.195486068725586,0.51,2.74,1.87,3.35
9.205758094787598,0.66,3.54,2.16,4.19
9.215599060058594,0.85,4.13,1.98,4.65
9.230576992034912,0.88,4.53,1.51,4.85
9.235620975494385,0.77,4.68,1.38,4.93
9.24553108215332,0.53,4.53,1.61,4.83
9.255661010742188,0.08,4.32,2.41,4.94
9.265594005584717,-0.28,4.33,1.99,4.77
9.280410766601562,0.0,4.1,0.79,4.17
9.28554391860962,0.44,3.67,0.6,3.74
9.295537948608398,0.23,3.29,0.6,3.35
9.305754899978638,-0.23,2.85,-0.43,2.89
9.315653800964355,-0.58,2.3,-1.44,2.77
9.330764770507812,-0.77,1.89,-1.9,2.78
9.335623979568481,-1.1,1.77,-1.77,2.73
9.345552921295166,-1.31,1.7,-1.96,2.9
9.355772972106934,-1.53,1.43,-1.92,2.84
9.365626811981201,-1.76,1.17,-1.76,2.75
9.380727767944336,-1.55,0.91,-1.69,2.46
9.385600090026855,-1.17,0.65,-1.5,2.01
9.395593881607056,-0.89,0.22,-1.35,1.63
9.405703067779541,-0.64,-0.16,-1.37,1.52
9.41564393043518,-0.44,-0.41,-1.37,1.49
9.430471897125244,-0.28,-0.65,-1.13,1.33
9.43549108505249,-0.11,-0.79,-0.81,1.13
9.445501804351807,0.06,-0.92,-0.58,1.08
9.45558786392212,0.31,-1.14,-0.48,1.27
9.46560287475586,0.5,-1.45,-0.53,1.62
9.481198787689209,0.63,-1.75,-0.57,1.94
9.485557079315186,0.71,-2.09,-0.57,2.27
9.495614051818848,0.65,-2.52,-0.63,2.67
9.505684852600098,0.52,-2.92,-0.67,3.04
9.515541076660156,0.42,-3.3,-0.69,3.39
9.531431913375854,0.3,-3.64,-0.7,3.71
9.535698890686035,0.22,-3.94,-0.74,4.01
9.545572996139526,0.22,-4.17,-0.72,4.23
9.555686950683594,0.23,-4.24,-0.66,4.29
9.5655198097229,0.25,-4.18,-0.64,4.23
9.580808877944946,0.2,-4.11,-0.6,4.15
9.585614919662476,0.05,-3.93,-0.49,3.96
9.595633029937744,-0.12,-3.68,-0.11,3.68
9.605674982070923,-0.22,-3.21,0.2,3.22
9.61569881439209,-0.26,-2.58,0.22,2.6
9.631053924560547,-0.49,-2.14,0.6,2.27
9.635766983032227,-0.38,-1.61,0.67,1.78
9.645638942718506,-0.21,-1.01,0.72,1.25
9.655707836151123,-0.26,-0.45,1.04,1.16
9.665671825408936,-0.4,0.21,1.04,1.13
9.681633949279785,-0.56,0.79,1.09,1.45
9.685653924942017,-0.83,1.38,1.37,2.11
9.695615768432617,-0.78,2.09,1.63,2.76
9.70572280883789,-0.68,2.68,1.87,3.33
9.715765953063965,-0.6,2.94,1.82,3.5
9.731557846069336,-0.7,3.13,1.6,3.58
9.735599994659424,-1.02,3.46,1.47,3.89
9.745680809020996,-1.38,3.94,1.33,4.38
9.755685806274414,-1.63,4.26,1.46,4.78
9.765821933746338,-1.7,4.47,1.71,5.07
9.782021045684814,-1.56,4.85,2.49,5.67
9.785667896270752,-0.98,5.3,2.2,5.82
9.79567003250122,0.12,5.27,0.96,5.35
9.805771827697754,0.89,4.57,0.44,4.67
9.81583309173584,0.98,3.72,0.06,3.84
9.831476926803589,0.77,2.96,-0.4,3.08
9.835806846618652,0.75,2.07,-0.89,2.37
9.84566593170166,0.62,1.35,-1.32,1.98
9.855762958526611,0.63,0.81,-2.03,2.27
9.865835905075073,0.87,0.64,-2.6,2.81
9.881922960281372,1.01,1.01,-2.15,2.58
9.885677814483643,0.86,1.23,-1.6,2.19
9.895678997039795,0.98,1.48,-1.37,2.24
9.90573787689209,0.94,1.5,-1.25,2.16
9.91580581665039,0.78,1.37,-1.35,2.07
9.93189001083374,0.7,1.3,-1.24,1.92
9.935720920562744,0.52,1.07,-1.0,1.55
9.945706844329834,0.09,0.59,-0.79,0.99
9.955787897109985,-0.04,0.04,-0.61,0.61
9.965811967849731,-0.08,-0.73,-0.58,0.93
9.981975078582764,-0.18,-1.44,-0.62,1.57
9.985702991485596,-0.23,-2.04,-0.73,2.17
9.995707988739014,-0.19,-2.63,-0.89,2.78
10.00572681427002,-0.14,-3.02,-0.93,3.16
10.015878915786743,-0.04,-3.44,-1.1,3.61
10.032098770141602,-0.03,-3.94,-1.12,4.09
10.03570294380188,0.08,-4.6,-1.31,4.78
10.04577088356018,-0.04,-4.74,-1.18,4.88
10.055838108062744,0.25,-4.34,-1.01,4.46
10.065908908843994,0.35,-4.29,-0.95,4.4
10.082092761993408,0.37,-4.38,-0.91,4.48
10.085689067840576,0.39,-4.13,-0.77,4.21
10.09575080871582,0.25,-3.9,-0.7,3.97
10.105819940567017,0.2,-3.74,-0.58,3.78
10.11595892906189,0.24,-3.47,-0.31,3.49
10.131995916366577,0.37,-3.11,0.01,3.13
10.13574504852295,0.56,-2.79,0.25,2.85
10.145765781402588,0.67,-2.51,0.31,2.61
10.155884981155396,0.68,-2.18,0.23,2.29
10.166915893554688,0.7,-1.68,0.19,1.82
10.182156085968018,0.64,-0.94,0.31,1.17
10.185618877410889,0.57,0.01,0.7,0.9
10.195801973342896,0.52,1.01,1.27,1.7
10.205827951431274,0.53,1.92,1.84,2.71
10.215864896774292,0.63,2.63,2.01,3.36
10.231503963470459,0.63,3.16,2.05,3.81
10.235777854919434,0.48,3.67,2.22,4.31
10.245800971984863,0.41,4.03,2.14,4.58
10.255788803100586,0.5,4.15,1.95,4.61
10.265867948532104,0.63,4.23,1.65,4.58
10.281380891799927,0.46,4.39,1.72,4.73
10.285772800445557,-0.01,4.74,2.41,5.31
10.295896053314209,-0.33,4.93,2.07,5.35
10.305882930755615,0.02,4.62,0.87,4.7
10.316040992736816,0.3,4.18,0.41,4.21
10.332109928131104,0.0,4.0,0.12,4.0
10.33579397201538,-0.09,3.66,-0.78,3.74
10.3458890914917,-0.22,3.23,-1.46,3.55
10.355823040008545,-0.69,2.8,-1.59,3.29
10.365956783294678,-1.29,1.84,-1.79,2.87
10.381617069244385,-1.75,1.5,-2.06,3.09
10.385819911956787,-1.57,1.47,-2.0,2.93
10.395927906036377,-1.48,1.2,-1.74,2.58
10.405921936035156,-1.4,0.94,-1.68,2.38
10.41587495803833,-1.15,0.74,-1.53,2.05
10.431769847869873,-0.68,0.56,-1.38,1.63
10.435722827911377,-0.33,0.29,-1.38,1.44
10.445879936218262,-0.09,-0.01,-1.29,1.29
10.455927848815918,0.13,-0.32,-1.14,1.19
10.465914964675903,0.3,-0.67,-0.92,1.17
10.482068061828613,0.46,-1.06,-0.74,1.37
10.485835075378418,0.54,-1.53,-0.64,1.74
10.49595308303833,0.64,-2.07,-0.67,2.26
10.505911827087402,0.74,-2.66,-0.77,2.86
10.515999794006348,0.82,-3.16,-0.86,3.37
10.532877922058105,0.9,-3.57,-0.97,3.8
10.53576397895813,0.8,-3.89,-0.89,4.06
10.545895099639893,0.45,-4.18,-0.85,4.28
10.55594778060913,0.13,-4.34,-0.76,4.4
10.566018104553223,0.02,-4.38,-0.71,4.43
10.583030939102173,0.08,-4.31,-0.68,4.36
10.58578896522522,0.26,-4.04,-0.61,4.09
10.595921039581299,0.43,-3.7,-0.47,3.75
10.605958938598633,0.41,-3.35,-0.3,3.38
10.616044044494629,0.23,-3.08,-0.12,3.09
10.63606882095337,0.07,-2.85,0.03,2.85
10.637237071990967,-0.18,-2.56,0.24,2.57
10.645984888076782,-0.44,-2.11,0.44,2.19
10.65596890449524,-0.54,-1.62,0.58,1.8
10.665818929672241,-0.48,-1.03,0.75,1.36
10.684875965118408,-0.39,-0.5,0.98,1.16
10.685988903045654,-0.4,-0.08,1.02,1.09
10.695943832397461,-0.57,0.29,0.97,1.16
10.705968856811523,-0.71,0.52,1.14,1.44
10.716001033782959,-0.85,0.73,1.47,1.84
10.734106063842773,-0.98,1.1,1.74,2.27
10.735744953155518,-0.99,1.5,1.72,2.48
10.745946884155273,-0.99,1.88,1.56,2.63
10.756011009216309,-0.94,2.18,1.3,2.7
10.765923976898193,-0.87,2.59,1.14,2.96
10.784039974212646,-1.05,3.08,1.03,3.41
10.785752773284912,-1.2,3.54,1.05,3.88
10.795970916748047,-1.2,3.98,1.22,4.33
10.806022882461548,-1.43,4.55,1.98,5.16
10.815989017486572,-1.31,5.38,2.53,6.08
10.833278894424438,-0.73,5.88,1.84,6.2
10.836059093475342,-0.16,5.8,0.55,5.82
10.846106052398682,0.39,5.12,-0.7,5.18
10.856060981750488,0.9,4.27,-1.4,4.58
10.865996837615967,1.01,3.53,-1.35,3.91
10.8838210105896,0.87,2.46,-1.27,2.9
10.885913848876953,0.7,1.49,-1.78,2.42
10.89595890045166,0.6,0.73,-2.43,2.6
10.906049966812134,0.7,0.31,-2.52,2.63
10.915942907333374,0.88,0.15,-2.0,2.19
10.933428764343262,1.0,0.2,-1.66,1.94
10.936043977737427,1.14,0.32,-1.49,1.9
10.94600796699524,1.13,0.4,-1.3,1.76
10.956142902374268,0.9,0.45,-1.22,1.58
10.965943813323975,0.51,0.58,-0.95,1.22
10.983548879623413,0.03,0.69,-0.78,1.04
10.986175060272217,-0.35,0.57,-0.6,0.89
10.99610185623169,-0.48,0.26,-0.65,0.84
11.006114959716797,-0.42,-0.28,-0.78,0.92
11.015979766845703,-0.28,-0.91,-0.75,1.21
11.033339023590088,-0.12,-1.57,-0.72,1.73
11.036218881607056,-0.02,-2.23,-0.78,2.36
11.046073913574219,0.05,-2.86,-0.87,2.98
11.05599594116211,0.11,-3.36,-0.99,3.5
11.066005945205688,0.22,-3.72,-0.99,3.85
11.084040880203247,0.29,-4.02,-0.93,4.13
11.086369037628174,0.2,-4.35,-0.9,4.44
11.096128940582275,0.05,-4.58,-0.91,4.66
11.106194972991943,0.01,-4.64,-0.81,4.71
11.116117000579834,0.04,-4.44,-0.78,4.5
11.133874893188477,0.1,-4.07,-0.64,4.12
11.13644790649414,0.34,-3.7,-0.5,3.74
11.146082878112793,0.6,-3.42,-0.34,3.48
11.156213760375977,0.77,-3.15,-0.11,3.24
11.166093826293945,0.82,-2.85,0.21,2.97
11.184321880340576,0.77,-2.49,0.42,2.63
11.186459064483643,0.76,-2.16,0.57,2.35
11.196117877960205,0.84,-1.85,0.55,2.1
11.206177949905396,0.96,-1.41,0.43,1.75
11.216126918792725,0.99,-0.94,0.47,1.44
11.234410762786865,0.76,-0.42,0.82,1.19
11.236526012420654,0.51,0.13,1.29,1.39
11.246170043945312,0.25,0.81,1.77,1.96
11.256155967712402,0.14,1.55,2.01,2.54
11.266068935394287,0.36,2.27,1.84,2.94
11.284133911132812,0.58,2.94,1.76,3.47
11.285866975784302,0.62,3.52,1.9,4.04
11.296098947525024,0.67,4.13,1.67,4.5
11.306128978729248,0.73,4.63,1.27,4.85
11.316152095794678,0.69,4.81,1.08,4.97
11.334383964538574,0.47,4.77,1.37,4.98
11.335985898971558,0.15,4.87,2.5,5.47
11.346091985702515,0.08,4.82,2.1,5.25
11.35624098777771,0.26,4.08,-0.11,4.08
11.366160869598389,0.37,3.17,-1.42,3.49
11.384690761566162,0.13,2.73,-1.03,2.92
11.3868989944458,0.03,2.51,-0.85,2.65
11.396190881729126,-0.32,2.29,-1.66,2.84
11.406126022338867,-0.91,1.96,-2.14,3.04
11.416074991226196,-1.32,1.65,-2.25,3.08
11.434422016143799,-1.67,1.51,-1.95,2.97
11.435949802398682,-1.89,1.35,-1.48,2.75
11.446088790893555,-1.8,1.25,-1.5,2.65
11.456246852874756,-1.59,1.13,-1.56,2.49
11.466166973114014,-1.32,0.91,-1.46,2.16
11.484889030456543,-0.98,0.54,-1.29,1.7
11.48596477508545,-0.78,-0.06,-0.98,1.25
11.496083974838257,-0.78,-0.44,-1.13,1.44
11.506212949752808,-0.85,-0.51,-0.96,1.37
11.516207933425903,-0.69,-0.64,-0.65,1.14
11.534602880477905,-0.24,-0.92,-0.54,1.09
11.535991907119751,0.11,-1.19,-0.59,1.33
11.546117782592773,0.31,-1.43,-0.62,1.58
11.556094884872437,0.62,-1.68,-0.65,1.9
11.56618595123291,1.01,-2.01,-0.61,2.33
11.584920883178711,1.15,-2.52,-0.49,2.81
11.585957050323486,1.04,-3.07,-0.45,3.27
11.596134901046753,0.81,-3.6,-0.53,3.72
11.606096982955933,0.53,-4.13,-0.63,4.21
11.616222858428955,0.28,-4.53,-0.66,4.58
11.634894847869873,0.2,-4.67,-0.65,4.71
11.635972023010254,0.2,-4.63,-0.72,4.68
11.646227836608887,0.17,-4.48,-0.74,4.54
11.65618896484375,0.12,-4.13,-0.48,4.15
11.666379928588867,0.09,-3.74,0.02,3.74
11.685512065887451,-0.12,-3.37,0.34,3.38
11.686004877090454,-0.2,-2.94,0.48,2.98
11.696259021759033,-0.17,-2.49,0.74,2.6
11.706263065338135,-0.18,-2.04,0.85,2.21
11.716273784637451,-0.25,-1.63,0.75,1.81
11.734771966934204,-0.35,-1.17,0.57,1.34
11.73605990409851,-0.43,-0.63,0.44,0.88
11.746232986450195,-0.58,-0.06,0.54,0.79
11.756332874298096,-0.87,0.47,1.08,1.46
11.766204833984375,-1.16,1.07,1.82,2.4
11.784966945648193,-1.26,1.55,2.18,2.95
11.786030769348145,-1.22,1.92,1.87,2.94
11.796250820159912,-1.09,2.26,1.58,2.96
11.806242942810059,-1.17,2.76,1.52,3.36
11.816256046295166,-1.43,3.44,1.52,4.02
11.834959983825684,-1.73,4.11,1.67,4.76
11.836114883422852,-1.91,4.69,2.09,5.47
11.846498012542725,-1.68,5.23,2.2,5.91
11.856210947036743,-1.27,5.72,2.55,6.39
11.866378784179688,-0.73,6.06,2.54,6.61
11.885203838348389,0.39,6.05,1.04,6.15
11.886311054229736,1.12,5.14,-0.05,5.26
11.89634084701538,1.02,3.86,-0.25,4.0
11.90631890296936,1.0,2.86,-0.48,3.06
11.916776895523071,1.28,1.82,-0.81,2.36
11.935554027557373,1.21,0.91,-1.43,2.08
11.936148881912231,0.97,0.4,-1.86,2.13
11.946415901184082,1.28,0.35,-2.29,2.64
11.956171989440918,1.72,0.51,-2.39,2.98
11.966306924819946,1.68,0.63,-2.2,2.83
11.985188961029053,1.44,0.8,-1.77,2.41
11.986097812652588,1.25,0.82,-1.43,2.06
11.996376991271973,0.98,0.66,-1.14,1.64
12.006244897842407,0.6,0.59,-1.07,1.36
12.016303062438965,0.23,0.59,-0.86,1.06
12.034339904785156,0.03,0.47,-0.58,0.74
12.036152839660645,0.02,0.22,-0.44,0.49
12.046376943588257,0.13,-0.16,-0.51,0.55
12.056251049041748,0.1,-0.7,-0.48,0.85
12.066277980804443,0.07,-1.33,-0.55,1.44
12.084791898727417,0.06,-2.01,-0.7,2.12
12.086174964904785,-0.02,-2.67,-0.76,2.77
12.096365928649902,-0.08,-3.16,-0.86,3.27
12.106291770935059,-0.15,-3.53,-0.9,3.64
12.11636996269226,-0.17,-3.79,-0.94,3.9
12.134972095489502,-0.04,-3.92,-0.89,4.01
12.136153936386108,0.22,-3.92,-0.76,3.99
12.14655590057373,0.28,-3.85,-0.61,3.9
12.156275987625122,0.29,-3.81,-0.59,3.86
12.167259931564331,0.32,-3.79,-0.56,3.84
12.185770988464355,0.35,-3.71,-0.56,3.76
12.186154842376709,0.37,-3.58,-0.57,3.64
12.196477890014648,0.39,-3.37,-0.43,3.41
12.206418991088867,0.52,-3.11,-0.24,3.16
12.21641993522644,0.64,-2.83,-0.02,2.9
12.235850811004639,0.71,-2.57,0.27,2.67
12.236231803894043,0.74,-2.39,0.37,2.52
12.246503829956055,0.83,-2.14,0.38,2.32
12.256396770477295,0.95,-1.71,0.37,1.99
12.263658046722412,0.95,-1.02,0.51,1.48
12.285252094268799,0.89,-0.24,0.78,1.2
12.285615921020508,0.76,0.56,1.0,1.37
12.293778896331787,0.56,1.41,1.38,2.05
12.30380392074585,0.36,2.24,1.92,2.97
12.318450927734375,0.27,2.93,2.16,3.65
12.32369589805603,0.3,3.45,1.93,3.96
12.333820819854736,0.34,3.88,1.58,4.2
12.3439359664917,0.47,4.22,1.08,4.38
12.353901863098145,0.56,4.4,0.92,4.52
12.368736982345581,0.33,4.48,1.12,4.62
12.37371301651001,-0.14,4.72,1.98,5.12
12.383781909942627,-0.49,5.15,1.87,5.5
12.39386510848999,-0.18,5.1,0.5,5.12
12.403879880905151,0.4,4.68,-0.24,4.7
12.41854190826416,0.37,4.4,0.03,4.41
12.423845767974854,0.13,4.02,-0.56,4.06
12.433891773223877,-0.03,3.39,-1.68,3.78
12.444001913070679,-0.47,2.6,-1.91,3.26
12.453841924667358,-1.03,1.83,-1.75,2.73
12.468689918518066,-1.54,1.26,-2.16,2.93
12.473899841308594,-1.99,0.8,-2.15,3.03
12.4838228225708,-2.27,0.41,-1.9,2.98
12.494034767150879,-2.18,0.07,-1.82,2.84
12.503838062286377,-1.8,-0.11,-1.55,2.37
12.51909875869751,-1.18,-0.23,-1.39,1.83
12.523903846740723,-0.68,-0.36,-1.34,1.54
12.533906936645508,-0.52,-0.14,-1.1,1.22
12.544004917144775,-0.44,-0.02,-0.44,0.62
12.553955078125,-0.3,-0.16,-0.3,0.45
12.569561004638672,-0.13,-0.47,-0.54,0.72
12.574001789093018,-0.03,-0.85,-0.5,0.98
12.584097862243652,0.15,-1.31,-0.62,1.45
12.594007968902588,0.52,-1.8,-0.43,1.92
12.60389494895935,0.74,-2.2,-0.28,2.33
12.619349002838135,0.78,-2.57,-0.28,2.7
12.623764038085938,0.69,-3.03,-0.4,3.13
12.63391399383545,0.51,-3.49,-0.45,3.55
12.643960952758789,0.31,-3.92,-0.48,3.96
12.654139041900635,0.06,-4.2,-0.44,4.22
12.670881986618042,0.0,-4.4,-0.44,4.42
12.675379991531372,0.22,-4.51,-0.58,4.55
12.68525505065918,0.52,-4.4,-0.59,4.46
12.695324897766113,0.59,-4.17,-0.44,4.23
12.705842018127441,0.46,-3.9,-0.21,3.93
12.715384006500244,0.3,-3.66,0.03,3.67
12.738367080688477,0.18,-3.4,0.34,3.42
12.739650964736938,0.04,-3.06,0.52,3.1
12.745347023010254,-0.16,-2.68,0.56,2.74
12.755918025970459,-0.25,-2.16,0.47,2.22
12.7653489112854,-0.32,-1.6,0.38,1.67
12.788305759429932,-0.39,-1.06,0.33,1.17
12.789387941360474,-0.49,-0.44,0.48,0.81
12.795342922210693,-0.71,0.27,0.87,1.15
12.805299758911133,-0.97,0.99,1.58,2.1
12.820977926254272,-1.06,1.68,1.9,2.74
12.825289964675903,-0.95,2.2,1.88,3.04
12.835278987884521,-1.0,2.61,1.69,3.26
12.845329761505127,-1.14,3.08,1.78,3.73
12.855329036712646,-1.25,3.55,1.9,4.21
12.87184476852417,-1.55,4.06,1.62,4.63
12.87525987625122,-1.87,4.66,1.7,5.3
12.885213851928711,-1.77,5.4,1.92,5.99
12.895359992980957,-1.4,6.15,2.43,6.75
12.905346870422363,-0.77,6.6,2.56,7.12
12.921453952789307,0.13,6.39,1.08,6.48
12.925305843353271,0.39,5.49,-0.42,5.51
12.935229778289795,0.17,4.34,-0.51,4.37
12.945339918136597,0.51,3.27,-0.7,3.38
12.955299854278564,1.01,2.13,-1.11,2.6
12.97113299369812,1.08,1.09,-1.61,2.22
12.975244045257568,0.95,0.39,-2.28,2.5
12.985311031341553,1.24,0.08,-2.66,2.93
12.99535083770752,1.46,0.06,-2.39,2.8
13.005290031433105,1.3,0.33,-1.81,2.25
13.02059292793274,1.05,0.57,-1.62,2.01
13.02527904510498,0.84,0.56,-1.35,1.68
13.03529691696167,0.72,0.63,-1.18,1.51
13.04537296295166,0.54,0.62,-1.0,1.29
13.055313110351562,0.33,0.5,-0.75,0.95
13.070542812347412,0.09,0.4,-0.58,0.71
13.075296878814697,-0.18,0.07,-0.49,0.52
13.085203886032104,-0.28,-0.44,-0.52,0.73
13.095386981964111,-0.24,-1.01,-0.61,1.2
13.105283975601196,-0.24,-1.6,-0.64,1.73
13.120501041412354,-0.31,-2.22,-0.64,2.33
13.125257015228271,-0.35,-2.78,-0.6,2.86
13.135322093963623,-0.33,-3.22,-0.46,3.26
13.145463943481445,-0.17,-3.54,-0.47,3.57
13.155387878417969,-0.04,-3.74,-0.98,3.86
13.171129941940308,-0.11,-3.9,-1.14,4.06
13.175405025482178,0.04,-4.07,-0.92,4.17
13.18533706665039,0.19,-4.1,-0.39,4.12
13.19546389579773,0.16,-4.06,-0.11,4.06
13.205375909805298,-0.02,-3.95,-0.34,3.96
13.220117092132568,-0.05,-3.88,-0.47,3.9
13.225308895111084,0.12,-3.68,-0.49,3.71
13.235368967056274,0.38,-3.41,-0.61,3.48
13.245492935180664,0.48,-3.22,-0.45,3.28
13.255359888076782,0.53,-2.95,-0.08,2.99
13.271722793579102,0.55,-2.6,0.12,2.66
13.275345802307129,0.65,-2.22,0.22,2.32
13.285305976867676,0.91,-1.75,0.35,2.0
13.295501947402954,1.07,-1.16,0.56,1.67
13.305345058441162,1.07,-0.45,0.87,1.45
13.32057809829712,1.1,0.38,1.12,1.61
13.325427055358887,1.13,1.32,1.3,2.17
13.335312843322754,1.13,2.24,1.48,2.91
13.345480918884277,1.02,2.96,1.65,3.53
13.355402946472168,0.65,3.45,1.52,3.82
13.371790885925293,0.17,3.9,1.46,4.16
13.375462055206299,0.04,4.37,1.27,4.55
13.385356903076172,0.14,4.65,0.91,4.74
13.395546913146973,0.25,4.66,0.89,4.75
13.40541696548462,0.32,4.78,1.72,5.09
13.4219388961792,0.21,5.09,2.18,5.54
13.425431966781616,0.17,5.05,1.3,5.21
13.435396909713745,0.31,4.62,-0.19,4.63
13.445592880249023,-0.1,4.11,-0.75,4.17
13.455432891845703,-0.63,3.66,-0.92,3.82
13.471896886825562,-0.88,3.18,-1.4,3.58
13.475505828857422,-1.03,2.49,-1.75,3.21
13.485363960266113,-1.27,1.72,-1.77,2.77
13.495607852935791,-1.41,1.04,-1.84,2.54
13.505448818206787,-1.34,0.52,-1.82,2.31
13.521970987319946,-1.4,0.08,-1.56,2.09
13.525495052337646,-1.44,-0.26,-1.55,2.13
13.535430908203125,-1.22,-0.45,-1.65,2.1
13.54565691947937,-0.88,-0.63,-1.59,1.92
13.555506944656372,-0.55,-0.66,-1.41,1.65
13.571938037872314,-0.45,-0.62,-1.21,1.43
13.575544834136963,-0.41,-0.65,-0.85,1.14
13.585428953170776,-0.3,-0.71,-0.56,0.95
13.595585823059082,-0.1,-0.82,-0.48,0.95
13.605501890182495,0.09,-0.99,-0.52,1.12
13.621607780456543,0.31,-1.24,-0.53,1.38
13.625489950180054,0.48,-1.54,-0.49,1.68
13.63550090789795,0.5,-1.9,-0.43,2.01
13.6455979347229,0.54,-2.28,-0.47,2.38
13.655504941940308,0.49,-2.69,-0.55,2.78
13.67090392112732,0.42,-3.12,-0.56,3.19
13.6754629611969,0.35,-3.51,-0.55,3.57
13.685542106628418,0.26,-3.84,-0.49,3.87
13.695632934570312,0.22,-4.07,-0.37,4.09
13.705514907836914,0.21,-4.23,-0.6,4.27
13.721285820007324,0.12,-4.3,-0.73,4.36
13.725454807281494,0.24,-4.13,-0.62,4.18
13.73558497428894,0.34,-3.74,-0.25,3.76
13.745668888092041,0.26,-3.33,0.34,3.35
13.75554084777832,0.14,-2.86,0.57,2.91
13.772594928741455,-0.1,-2.45,0.62,2.52
13.775496006011963,-0.29,-2.05,0.56,2.14
13.785468101501465,-0.41,-1.59,0.52,1.72
13.795712947845459,-0.46,-1.09,0.66,1.35
13.805575847625732,-0.57,-0.6,0.83,1.17
13.822402954101562,-0.66,-0.15,0.84,1.07
13.825596809387207,-0.83,0.27,0.98,1.31
13.835529804229736,-1.13,0.77,1.42,1.97
13.84570598602295,-1.31,1.39,1.88,2.68
13.855581760406494,-1.32,2.02,1.91,3.07
13.872728824615479,-1.36,2.56,1.63,3.32
13.875479936599731,-1.53,3.03,1.47,3.69
13.88552188873291,-1.78,3.52,1.49,4.21
13.895662784576416,-1.9,4.0,1.51,4.67
13.905581951141357,-1.91,4.57,1.63,5.21
13.921980857849121,-1.87,5.15,2.02,5.83
13.92547607421875,-1.78,5.75,2.36,6.46
13.935579776763916,-1.12,6.1,1.93,6.49
13.945510864257812,0.0,5.84,0.66,5.87
13.955692768096924,0.59,4.88,-0.75,4.97
13.972383975982666,0.69,3.7,-1.37,4.0
13.975526809692383,1.15,2.65,-1.63,3.31
13.985596895217896,1.4,1.62,-1.58,2.66
13.99556303024292,1.28,0.82,-1.95,2.47
14.005631923675537,1.42,0.34,-2.46,2.86
14.02210807800293,1.7,0.09,-2.52,3.04
14.025492906570435,1.74,0.13,-1.94,2.6
14.035554885864258,1.48,0.32,-1.47,2.11
14.045629978179932,1.27,0.47,-1.64,2.12
14.05563998222351,1.09,0.63,-1.56,2.0
14.071841955184937,0.73,0.9,-1.35,1.77
14.075548887252808,0.32,1.13,-0.9,1.47
14.085517883300781,-0.08,1.22,-0.4,1.28
14.095658779144287,-0.4,1.14,-0.08,1.21
14.105600833892822,-0.6,0.71,-0.07,0.93
14.121881008148193,-0.62,0.12,-0.16,0.65
14.125542879104614,-0.59,-0.54,-0.21,0.82
14.135612964630127,-0.58,-1.28,-0.28,1.43
14.14562177658081,-0.56,-2.0,-0.43,2.12
14.155643939971924,-0.55,-2.64,-0.59,2.76
14.17225694656372,-0.49,-3.18,-0.76,3.3
14.175733089447021,-0.32,-3.53,-0.84,3.64
14.185554027557373,-0.06,-3.64,-0.89,3.74
14.195519924163818,0.12,-3.61,-0.77,3.69
14.205705881118774,0.18,-3.57,-0.63,3.62
14.222273826599121,0.21,-3.54,-0.54,3.58
14.225493907928467,0.12,-3.54,-0.47,3.57
14.235702991485596,0.02,-3.59,-0.46,3.61
14.245816946029663,0.01,-3.58,-0.43,3.6
14.255712032318115,0.1,-3.56,-0.29,3.57
14.27289891242981,0.28,-3.44,-0.42,3.47
14.275552988052368,0.4,-3.25,-0.26,3.28
14.285706043243408,0.62,-3.1,-0.05,3.16
14.29564905166626,0.77,-3.08,-0.04,3.17
14.305680990219116,0.82,-2.91,0.24,3.03
14.322664976119995,0.78,-2.55,0.29,2.68
14.325543880462646,0.77,-2.11,0.21,2.25
14.335733890533447,0.9,-1.51,0.45,1.81
14.345599889755249,0.84,-0.84,0.85,1.46
14.355725765228271,0.65,-0.04,1.22,1.38
14.37381887435913,0.58,1.02,1.53,1.92
14.37559986114502,0.5,1.99,1.73,2.68
14.38571310043335,0.47,2.86,1.8,3.41
14.395648002624512,0.41,3.56,2.0,4.1
14.405713081359863,0.42,4.16,1.8,4.55
14.423285007476807,0.45,4.63,1.41,4.86
14.425702095031738,0.51,4.94,1.42,5.16
14.435816764831543,0.46,5.13,1.8,5.45
14.445741891860962,0.28,5.36,2.7,6.0
14.455784797668457,0.16,5.27,1.68,5.53
14.473639965057373,0.24,4.61,-0.03,4.61
14.475625038146973,0.26,4.01,-0.44,4.04
14.485840797424316,0.01,3.7,-0.38,3.71
14.495820045471191,-0.27,3.39,-1.42,3.68
14.505781888961792,-0.61,2.85,-2.44,3.8
14.522181987762451,-1.12,2.36,-2.17,3.39
14.525854110717773,-1.54,1.94,-1.94,3.14
14.535837888717651,-1.76,1.68,-2.13,3.23
14.545844078063965,-1.9,1.56,-1.84,3.07
14.555793762207031,-2.11,1.3,-1.44,2.86
14.573657989501953,-1.86,1.06,-1.39,2.55
14.575857877731323,-1.39,0.65,-1.25,1.97
14.58577299118042,-0.98,0.09,-1.14,1.5
14.595821857452393,-0.61,-0.24,-1.14,1.31
14.605791091918945,-0.31,-0.41,-1.08,1.19
14.62376594543457,-0.15,-0.55,-0.77,0.95
14.626142024993896,-0.02,-0.73,-0.46,0.86
14.635860919952393,0.15,-1.09,-0.24,1.12
14.64588189125061,0.4,-1.54,-0.29,1.61
14.655797004699707,0.57,-1.98,-0.38,2.09
14.673837900161743,0.72,-2.42,-0.47,2.56
14.676188945770264,0.83,-2.84,-0.66,3.03
14.685956954956055,0.89,-3.23,-0.79,3.44
14.695749759674072,0.8,-3.62,-0.86,3.8
14.705776929855347,0.65,-3.96,-0.8,4.09
14.723757982254028,0.5,-4.24,-0.75,4.33
14.72627305984497,0.29,-4.44,-0.68,4.5
14.736011981964111,0.15,-4.48,-0.67,4.53
14.74579906463623,0.17,-4.35,-0.6,4.39
14.755829811096191,0.23,-4.01,-0.46,4.04
14.77406096458435,0.18,-3.58,-0.25,3.59
14.77632999420166,0.06,-3.13,-0.02,3.13
14.785958766937256,-0.12,-2.71,0.17,2.71
14.79582691192627,-0.33,-2.28,0.39,2.33
14.805915832519531,-0.42,-1.83,0.62,1.97
14.824477910995483,-0.52,-1.44,0.89,1.77
14.826497077941895,-0.49,-0.91,1.14,1.53
14.835989952087402,-0.16,-0.33,1.11,1.16
14.845846891403198,-0.34,0.03,1.07,1.12
14.85583209991455,-0.64,0.38,1.0,1.24
14.874363899230957,-0.99,0.52,1.01,1.5
14.875772953033447,-1.27,0.65,1.52,2.08
14.885999917984009,-1.21,0.91,1.85,2.39
14.895778894424438,-1.09,1.15,1.65,2.28
14.90588092803955,-0.95,1.43,1.33,2.17
14.924132823944092,-0.77,1.8,0.92,2.16
14.92568302154541,-0.84,2.26,0.83,2.54
14.93602991104126,-1.15,2.82,0.82,3.15
14.94593596458435,-1.42,3.5,0.94,3.89
14.955906867980957,-1.49,4.38,1.56,4.88
14.974728107452393,-1.2,5.68,2.31,6.24
14.975709915161133,-0.63,6.91,2.37,7.33
14.985897064208984,0.19,7.24,1.29,7.35
14.995969772338867,0.44,6.72,0.52,6.75
15.005855083465576,0.26,5.68,-0.51,5.7
15.024273872375488,0.39,4.4,-1.23,4.58
15.025799989700317,0.49,3.28,-1.3,3.56
15.035981893539429,0.46,2.12,-1.36,2.56
15.045827865600586,0.85,1.14,-1.72,2.23
15.055945873260498,1.39,0.31,-2.16,2.58
15.074469089508057,1.56,-0.22,-2.27,2.76
15.07583498954773,1.56,-0.33,-2.04,2.58
15.085906028747559,1.48,-0.2,-1.68,2.24
15.095882892608643,1.23,-0.11,-1.25,1.75
15.105900764465332,0.66,-0.08,-1.16,1.33
15.124759912490845,0.25,0.01,-0.98,1.01
15.125860929489136,0.05,0.08,-0.68,0.68
15.13602590560913,-0.18,0.12,-0.38,0.43
15.145852088928223,-0.3,-0.04,-0.15,0.33
15.155955791473389,-0.22,-0.49,-0.18,0.56
15.174511909484863,0.07,-1.12,-0.27,1.15
15.175920963287354,0.24,-1.78,-0.35,1.82
15.185906887054443,0.22,-2.41,-0.53,2.47
15.195959091186523,0.12,-2.95,-0.74,3.04
15.205965995788574,0.01,-3.34,-0.8,3.43
15.224894046783447,0.05,-3.66,-0.84,3.75
15.225893020629883,0.12,-4.04,-0.88,4.13
15.236053943634033,0.13,-4.31,-0.84,4.39
15.245893001556396,0.12,-4.35,-0.72,4.41
15.256013870239258,0.14,-4.17,-0.63,4.21
15.275137901306152,0.16,-3.93,-0.56,3.97
15.275768995285034,0.16,-3.73,-0.42,3.75
15.286240100860596,0.24,-3.45,-0.31,3.47
15.296469926834106,0.41,-3.3,-0.15,3.32
15.306128978729248,0.6,-3.22,-0.18,3.28
15.325375080108643,0.75,-3.07,-0.21,3.16
15.325849056243896,0.75,-2.76,-0.08,2.86
15.336122989654541,0.68,-2.4,0.23,2.5
15.345943927764893,0.82,-2.0,0.4,2.19
15.356021881103516,1.1,-1.53,0.34,1.91
15.375163078308105,1.17,-1.09,0.51,1.67
15.375864028930664,1.07,-0.41,1.06,1.56
15.38605785369873,0.96,0.46,1.65,1.96
15.395968914031982,0.82,1.26,1.99,2.49
15.406131982803345,0.76,1.94,2.01,2.89
15.424770832061768,0.95,2.63,1.74,3.29
15.425936937332153,0.78,3.34,1.8,3.87
15.436084985733032,0.49,3.91,1.7,4.29
15.446029901504517,0.32,4.28,1.19,4.45
15.456049919128418,0.31,4.4,1.06,4.53
15.475141048431396,0.27,4.49,1.51,4.74
15.475903034210205,-0.11,4.64,2.18,5.12
15.4860999584198,-0.39,4.7,2.08,5.15
15.49598503112793,-0.27,4.47,0.8,4.54
15.50608491897583,0.05,4.19,-0.78,4.26
15.525137901306152,0.0,4.29,-1.35,4.49
15.525863885879517,-0.29,4.42,-1.42,4.65
15.536086082458496,-0.41,3.97,-2.12,4.51
15.54603385925293,-0.45,3.33,-2.48,4.17
15.556149005889893,-0.87,2.65,-1.93,3.39
15.575407028198242,-1.37,1.92,-1.44,2.76
15.575978994369507,-1.65,1.23,-1.36,2.46
15.586143970489502,-1.74,0.54,-1.41,2.3
15.59615182876587,-1.65,-0.01,-1.47,2.2
15.606143951416016,-1.3,-0.34,-1.56,2.05
15.624803066253662,-0.8,-0.37,-1.41,1.66
15.626017093658447,-0.37,-0.23,-1.2,1.27
15.63631010055542,-0.16,-0.05,-0.88,0.89
15.646131992340088,-0.03,0.11,-0.68,0.68
15.656157970428467,0.12,-0.17,-0.65,0.68
15.67491888999939,0.16,-0.69,-0.74,1.02
15.67605996131897,0.19,-1.29,-0.58,1.42
15.686193943023682,0.42,-1.94,-0.51,2.04
15.6961829662323,0.62,-2.53,-0.55,2.66
15.706294059753418,0.81,-3.09,-0.71,3.27
15.725022792816162,0.94,-3.63,-0.82,3.83
15.726001977920532,0.92,-4.06,-0.86,4.25
15.73626708984375,0.84,-4.42,-0.78,4.56
15.746144771575928,0.71,-4.57,-0.67,4.67
15.756228923797607,0.45,-4.61,-0.58,4.66
15.775731086730957,0.21,-4.53,-0.48,4.56
15.776123046875,0.16,-4.3,-0.36,4.31
15.786228895187378,0.15,-3.99,-0.21,3.99
15.796233892440796,0.16,-3.7,-0.04,3.7
15.806184768676758,0.23,-3.35,0.21,3.36
15.825151920318604,0.35,-2.99,0.51,3.05
15.825982093811035,0.39,-2.55,0.69,2.67
15.836293935775757,0.29,-2.08,0.82,2.25
15.846075057983398,0.16,-1.48,0.97,1.77
15.856206893920898,0.04,-0.84,0.78,1.14
15.87602710723877,-0.19,-0.29,0.64,0.72
15.876412868499756,-0.44,0.24,0.79,0.93
15.886573791503906,-0.71,0.66,1.14,1.49
15.896159887313843,-0.96,0.88,1.51,1.99
15.906792879104614,-1.42,1.2,1.75,2.55
15.92573094367981,-1.65,1.41,1.93,2.9
15.926119804382324,-1.57,1.52,1.59,2.7
15.936299800872803,-1.42,1.73,1.26,2.56
15.946043014526367,-1.3,2.14,1.26,2.8
15.956147909164429,-1.17,2.64,1.26,3.15
15.974502086639404,-1.39,3.23,1.07,3.67
15.975918769836426,-1.55,3.86,0.63,4.2
15.986165046691895,-1.44,4.58,0.92,4.88
15.996076107025146,-1.46,5.51,2.21,6.11
16.006191968917847,-0.89,6.29,2.43,6.8
16.02582597732544,0.11,6.32,0.71,6.36
16.026235103607178,0.53,5.41,-1.11,5.54
16.036230087280273,0.42,4.3,-1.7,4.64
16.046066761016846,0.6,3.32,-1.99,3.91
16.05616593360901,0.84,2.44,-2.04,3.28
16.075900077819824,0.82,1.62,-2.12,2.79
16.07625102996826,0.82,1.0,-2.09,2.45
16.0862398147583,1.13,0.69,-2.16,2.53
16.09609603881836,1.31,0.71,-2.06,2.54
16.10629177093506,1.29,0.91,-1.58,2.23
16.125010013580322,1.19,1.03,-1.43,2.12
16.126007080078125,0.92,1.14,-1.32,1.97
16.13624095916748,0.64,1.25,-1.24,1.87
16.146082878112793,0.52,1.27,-1.13,1.77
16.156338930130005,0.33,1.14,-0.83,1.44
16.175663948059082,0.06,0.76,-0.61,0.97
16.176150798797607,-0.16,0.13,-0.6,0.63
16.186194896697998,-0.19,-0.62,-0.67,0.93
16.196171760559082,0.04,-1.38,-0.69,1.54
16.206317901611328,0.33,-1.98,-0.85,2.17
16.22593593597412,0.34,-2.63,-0.83,2.77
16.226322889328003,0.28,-3.27,-0.68,3.35
16.236413955688477,0.08,-3.78,-0.71,3.84
16.246182918548584,0.01,-4.18,-0.69,4.23
16.256319999694824,0.01,-4.44,-0.73,4.49
16.27507209777832,0.01,-4.57,-0.77,4.63
16.275441884994507,-0.02,-4.48,-0.78,4.54
16.28502893447876,0.05,-4.26,-0.76,4.32
16.2951819896698,0.15,-3.97,-0.67,4.02
16.305044889450073,0.32,-3.64,-0.48,3.68
16.325552940368652,0.43,-3.38,-0.28,3.41
16.325931072235107,0.52,-3.25,-0.17,3.29
16.335044860839844,0.74,-3.04,-0.13,3.13
16.345253944396973,0.8,-2.85,0.06,2.96
16.35520887374878,0.84,-2.67,0.23,2.8
16.37580680847168,0.93,-2.42,0.34,2.61
16.376179933547974,1.06,-2.1,0.36,2.37
16.385130882263184,1.13,-1.63,0.54,2.05
16.395426988601685,1.03,-0.99,0.93,1.7
16.405055046081543,0.94,-0.32,1.31,1.64
16.42594003677368,0.88,0.41,1.37,1.67
16.426393032073975,0.71,1.07,1.49,1.96
16.435102939605713,0.42,1.71,1.87,2.56
16.44548797607422,0.29,2.3,2.08,3.11
16.455216884613037,0.25,2.76,2.06,3.45
16.477116107940674,0.25,3.25,1.59,3.62
16.477491855621338,0.41,3.72,1.17,3.92
16.485108852386475,0.5,4.08,1.11,4.25
16.49544382095337,0.34,4.19,0.94,4.3
16.505000114440918,0.12,4.26,1.48,4.51
16.526451110839844,0.05,4.41,2.15,4.9
16.526822090148926,-0.04,4.39,1.34,4.59
16.535140991210938,0.1,4.02,-0.02,4.02
16.54561710357666,0.35,3.5,-0.87,3.62
16.555160999298096,0.02,3.1,-0.92,3.23
16.577139854431152,-0.62,2.71,-1.54,3.17
16.577598094940186,-0.77,2.31,-2.19,3.27
16.58527898788452,-0.98,2.03,-1.81,2.89
16.595679759979248,-1.43,1.88,-1.63,2.86
16.605138778686523,-1.83,1.65,-1.77,3.03
16.6266450881958,-2.01,1.34,-1.69,2.94
16.6270489692688,-1.73,1.21,-1.6,2.64
16.635179042816162,-1.33,1.13,-1.41,2.24
16.64500594139099,-1.06,0.96,-1.28,1.91
16.65558695793152,-0.79,0.59,-1.4,1.71
16.677495002746582,-0.63,0.18,-1.36,1.5
16.67786979675293,-0.57,-0.1,-1.06,1.2
16.6852388381958,-0.54,-0.26,-0.67,0.89
16.69516396522522,-0.45,-0.46,-0.44,0.77
16.705230951309204,-0.24,-0.8,-0.43,0.93
16.72721791267395,0.03,-1.22,-0.6,1.35
16.72761583328247,0.24,-1.67,-0.74,1.84
16.735283851623535,0.55,-2.14,-0.72,2.32
16.745133876800537,0.82,-2.68,-0.65,2.87
16.755258083343506,0.84,-3.26,-0.72,3.44
16.77671790122986,0.87,-3.75,-0.73,3.91
16.777086973190308,0.86,-4.1,-0.7,4.24
16.785244941711426,0.66,-4.32,-0.62,4.41
16.79517388343811,0.47,-4.35,-0.53,4.4
16.805243015289307,0.36,-4.29,-0.5,4.33
16.827167987823486,0.28,-4.12,-0.56,4.16
16.827541828155518,0.22,-3.93,-0.37,3.95
16.83532691001892,0.13,-3.65,-0.11,3.65
16.845195770263672,0.13,-3.3,0.07,3.3
16.855357885360718,0.02,-2.9,0.23,2.9
16.877217769622803,-0.06,-2.45,0.46,2.49
16.877599954605103,-0.08,-1.95,0.7,2.07
16.88526487350464,-0.1,-1.35,0.92,1.63
16.89523696899414,-0.06,-0.9,1.17,1.47
16.905354976654053,-0.24,-0.51,1.21,1.33
16.932069778442383,-0.5,-0.22,1.2,1.31
16.933090925216675,-0.58,-0.07,1.14,1.28
16.935790061950684,-0.68,0.03,1.07,1.26
16.945329904556274,-0.8,0.21,1.22,1.47
16.955383777618408,-0.83,0.43,1.44,1.71
16.985651969909668,-0.79,0.69,1.35,1.7
16.98733377456665,-0.89,1.0,1.42,1.95
16.988204956054688,-1.0,1.38,1.52,2.28
16.995305061340332,-1.05,1.84,1.39,2.53
17.005952835083008,-1.18,2.39,1.34,2.98
17.022770881652832,-1.49,3.07,1.49,3.72
17.025070905685425,-1.66,3.98,2.02,4.76
17.035223960876465,-1.79,5.0,2.2,5.74
17.045093059539795,-1.57,6.0,2.41,6.65
17.05514907836914,-0.89,6.74,2.04,7.09
17.07126808166504,-0.14,6.9,1.03,6.97
17.075071811676025,0.01,6.58,0.4,6.59
17.085011959075928,0.04,5.59,0.05,5.59
17.09514284133911,0.32,4.36,-0.93,4.46
17.105165004730225,0.52,3.25,-1.83,3.76
17.122379779815674,0.55,2.07,-2.18,3.05
17.125175952911377,0.81,0.98,-2.02,2.38
17.135279893875122,1.2,0.04,-1.65,2.04
17.14511775970459,1.38,-0.68,-2.0,2.52
17.155327796936035,1.48,-1.05,-2.4,3.0
17.17496109008789,1.7,-1.02,-2.28,3.02
17.175347805023193,1.62,-0.69,-1.87,2.56
17.185341835021973,1.27,-0.25,-1.53,2.0
17.19526481628418,0.93,0.21,-1.4,1.69
17.205326080322266,0.58,0.61,-1.07,1.36
17.2258358001709,0.23,0.85,-0.64,1.08
17.2262020111084,-0.03,0.9,-0.44,1.0
17.235383987426758,-0.17,0.6,-0.43,0.75
17.245233058929443,-0.21,-0.06,-0.49,0.53
17.255303859710693,-0.31,-0.87,-0.49,1.04
17.276609897613525,-0.44,-1.72,-0.49,1.84
17.276983976364136,-0.48,-2.52,-0.59,2.63
17.285123825073242,-0.51,-3.19,-0.69,3.3
17.29522395133972,-0.44,-3.63,-0.79,3.74
17.30524206161499,-0.31,-3.94,-0.72,4.01
17.326615810394287,-0.07,-4.16,-0.7,4.21
17.326984882354736,0.07,-4.27,-0.74,4.33
17.335264921188354,0.11,-4.33,-0.71,4.38
17.345255851745605,0.1,-4.33,-0.72,4.39
17.355374813079834,0.01,-4.21,-0.75,4.27
17.37788677215576,0.05,-3.98,-0.66,4.03
17.378262996673584,0.26,-3.67,-0.47,3.7
17.38546395301819,0.6,-3.41,-0.21,3.46
17.395461082458496,0.82,-3.14,0.09,3.24
17.40544295310974,0.91,-2.92,0.31,3.07
17.42857599258423,0.96,-2.65,0.55,2.87
17.428950786590576,0.79,-2.35,0.61,2.55
17.43529987335205,0.53,-1.97,0.57,2.11
17.44540309906006,0.41,-1.55,0.63,1.72
17.455472946166992,0.47,-1.0,0.77,1.34
17.478477001190186,0.66,-0.34,0.9,1.16
17.478871822357178,0.77,0.48,1.12,1.44
17.485372066497803,0.69,1.33,1.59,2.18
17.495401859283447,0.61,2.07,1.84,2.83
17.505469799041748,0.54,2.76,2.09,3.5
17.528092861175537,0.53,3.26,2.15,3.94
17.52847194671631,0.48,3.62,2.18,4.25
17.53545594215393,0.5,4.03,1.95,4.5
17.54540205001831,0.7,4.39,1.52,4.69
17.55549192428589,0.9,4.66,1.51,4.98
17.57836103439331,0.68,4.94,2.11,5.41
17.578732013702393,0.06,5.21,2.41,5.74
17.585375785827637,-0.27,5.17,1.07,5.28
17.595480918884277,-0.01,4.88,0.09,4.88
17.605511903762817,0.3,4.38,-0.04,4.39
17.628530025482178,0.16,3.94,-0.72,4.0
17.62890386581421,-0.3,3.44,-1.67,3.83
17.635533809661865,-0.74,2.86,-1.94,3.53
17.645463943481445,-1.2,2.16,-1.84,3.08
17.65556788444519,-1.84,1.39,-2.12,3.13
17.67833375930786,-2.33,0.74,-2.4,3.42
17.678722858428955,-2.21,0.42,-2.18,3.13
17.685487985610962,-1.94,0.3,-1.85,2.69
17.695448875427246,-1.54,0.34,-1.56,2.21
17.70551896095276,-1.06,0.41,-1.37,1.78
17.728496074676514,-0.47,0.35,-1.28,1.4
17.728872776031494,-0.23,0.1,-1.12,1.14
17.73551082611084,-0.31,-0.18,-0.99,1.05
17.74546480178833,-0.38,-0.55,-0.74,0.99
17.7555570602417,-0.43,-1.01,-0.68,1.29
17.778446912765503,-0.45,-1.61,-0.64,1.79
17.77882695198059,-0.28,-2.14,-0.66,2.25
17.785454988479614,-0.1,-2.62,-0.69,2.71
17.79544997215271,0.32,-3.0,-0.72,3.1
17.805561065673828,0.68,-3.33,-0.7,3.47
17.8284010887146,0.83,-3.69,-0.68,3.84
17.82877492904663,0.94,-4.01,-0.63,4.16
17.83548092842102,0.83,-4.26,-0.63,4.38
17.845451831817627,0.54,-4.45,-0.54,4.51
17.855562925338745,0.32,-4.53,-0.43,4.56
17.878605842590332,0.23,-4.44,-0.38,4.46
17.87897777557373,0.2,-4.21,-0.24,4.22
17.885556936264038,0.21,-3.91,-0.08,3.91
17.89548897743225,0.17,-3.54,0.05,3.54
17.905531883239746,0.13,-3.09,0.35,3.11
17.927701950073242,0.02,-2.68,0.51,2.72
17.928085803985596,-0.11,-2.2,0.71,2.31
17.93558692932129,-0.21,-1.64,0.94,1.9
17.94552707672119,-0.26,-1.05,0.99,1.46
17.955606937408447,-0.35,-0.49,0.87,1.05
17.978620052337646,-0.48,-0.04,0.73,0.87
17.979001998901367,-0.82,0.24,0.71,1.11
17.985573768615723,-1.24,0.43,0.97,1.63
17.995567798614502,-1.58,0.72,1.55,2.32
18.005632877349854,-1.64,1.0,2.05,2.8
18.02837610244751,-1.42,1.27,1.99,2.75
18.028764963150024,-0.97,1.59,1.64,2.48
18.035603046417236,-0.8,2.03,1.39,2.58
18.045562982559204,-0.87,2.59,1.17,2.97
18.055661916732788,-1.1,3.16,1.16,3.54
18.0785551071167,-1.41,3.86,1.33,4.31
18.078934907913208,-1.68,4.58,1.6,5.13
18.085522890090942,-1.77,5.28,2.16,5.97
18.095486879348755,-1.33,6.11,2.57,6.76
18.105597019195557,-0.4,6.65,1.89,6.92
18.128638982772827,0.49,6.33,-0.12,6.35
18.12901782989502,0.69,5.28,-1.44,5.51
18.13555097579956,0.53,4.15,-1.8,4.55
18.145580768585205,0.64,3.1,-2.02,3.75
18.155680894851685,0.8,2.04,-1.63,2.73
18.178818941116333,0.82,1.16,-1.19,1.85
18.179183959960938,1.24,0.56,-1.47,2.0
18.18555498123169,1.64,0.25,-2.34,2.86
18.195542812347412,1.73,0.25,-2.41,2.97
18.205683946609497,1.63,0.64,-1.89,2.57
18.228199005126953,1.51,0.92,-1.6,2.38
18.228578090667725,1.31,1.03,-1.25,2.08
18.235557079315186,0.91,1.06,-1.1,1.77
18.245666980743408,0.57,1.03,-0.97,1.52
18.255692958831787,0.23,0.81,-0.8,1.16
18.278525829315186,-0.06,0.4,-0.74,0.84
18.27889895439148,-0.21,-0.19,-0.72,0.77
18.28559684753418,-0.28,-0.97,-0.61,1.17
18.295722007751465,-0.25,-1.76,-0.64,1.88
18.305681943893433,-0.17,-2.5,-0.68,2.59
18.328630924224854,-0.1,-3.18,-0.66,3.24
18.328999042510986,0.02,-3.68,-0.64,3.73
18.335532903671265,0.15,-4.0,-0.68,4.06
18.345664978027344,0.22,-4.18,-0.68,4.24
18.355754852294922,0.16,-4.3,-0.67,4.35
18.378711938858032,0.07,-4.28,-0.72,4.34
18.379047870635986,-0.06,-4.24,-0.72,4.3
18.385552883148193,-0.03,-4.15,-0.45,4.17
18.395562887191772,0.14,-4.01,-0.25,4.02
18.405576944351196,0.25,-3.83,-0.29,3.84
18.428932905197144,0.27,-3.64,-0.29,3.66
18.429285049438477,0.27,-3.49,-0.15,3.5
18.43559503555298,0.24,-3.29,0.07,3.29
18.445634841918945,0.29,-3.12,0.3,3.14
18.45571994781494,0.54,-2.87,0.53,2.96
18.479000091552734,0.83,-2.53,0.54,2.71
18.479373931884766,1.16,-2.09,0.39,2.42
18.48557186126709,1.32,-1.52,0.36,2.04
18.495682954788208,1.28,-0.81,0.84,1.73
18.505759954452515,0.97,0.04,1.53,1.81
18.52897596359253,0.69,0.92,2.05,2.35
18.529351949691772,0.55,1.69,2.21,2.83
18.535696983337402,0.32,2.3,2.1,3.13
18.545659065246582,0.08,2.73,2.05,3.41
18.55570888519287,-0.04,3.1,1.97,3.67
18.579442024230957,-0.12,3.51,1.82,3.95
18.57981586456299,0.0,3.87,1.47,4.13
18.58576798439026,0.19,4.07,1.25,4.26
18.595576763153076,0.23,4.27,1.27,4.46
18.60590410232544,0.2,4.41,1.94,4.82
18.62869095802307,0.13,4.51,1.85,4.87
18.62906503677368,-0.15,4.34,0.67,4.39
18.63570499420166,-0.22,3.95,-0.7,4.01
18.645546913146973,-0.23,3.62,-1.53,3.93
18.65575098991394,-0.28,3.66,-2.22,4.28
18.678632974624634,-0.58,3.49,-2.82,4.52
18.67899990081787,-0.89,3.07,-3.25,4.55
18.6855788230896,-1.36,2.6,-2.43,3.8
18.695777893066406,-1.79,2.02,-1.66,3.16
18.705885887145996,-2.02,1.43,-1.84,3.08
18.72847294807434,-2.03,0.77,-1.99,2.94
18.728836059570312,-1.92,0.38,-1.8,2.65
18.735797882080078,-1.46,0.32,-1.61,2.19
18.74579381942749,-0.8,0.39,-1.43,1.68
18.755945920944214,-0.06,0.49,-1.21,1.3
18.779695987701416,0.33,0.47,-0.87,1.04
18.780073881149292,0.38,0.23,-0.71,0.83
18.785773992538452,0.38,-0.2,-0.58,0.72
18.795836925506592,0.3,-0.73,-0.48,0.92
18.805851936340332,0.23,-1.31,-0.42,1.39
18.829908847808838,0.26,-1.85,-0.38,1.9
18.83028507232666,0.39,-2.28,-0.43,2.35
18.83579111099243,0.53,-2.7,-0.53,2.8
18.84579086303711,0.58,-3.12,-0.66,3.24
18.855884075164795,0.56,-3.48,-0.77,3.6
18.880148887634277,0.54,-3.77,-0.78,3.88
18.880534887313843,0.56,-3.99,-0.66,4.08
18.88566303253174,0.61,-4.16,-0.63,4.25
18.895822048187256,0.64,-4.18,-0.68,4.28
18.90580177307129,0.6,-4.16,-0.45,4.22
18.930267810821533,0.4,-4.23,-0.19,4.25
18.930644035339355,0.15,-4.22,-0.11,4.22
18.935998916625977,-0.18,-4.28,-0.19,4.28
18.945849895477295,-0.29,-4.17,0.08,4.18
18.95588493347168,-0.59,-3.89,0.53,3.97
18.979904890060425,-0.68,-3.31,0.62,3.43
18.980273962020874,-0.61,-2.74,0.64,2.87
18.985886096954346,-0.33,-1.9,0.68,2.04
18.995937824249268,-0.11,-0.92,0.75,1.19
19.005868911743164,-0.23,-0.1,1.03,1.06
19.030014991760254,-0.65,0.56,1.29,1.54
19.03038191795349,-1.19,1.16,1.64,2.33
19.035791873931885,-1.62,1.79,2.24,3.29
19.045828819274902,-1.64,2.29,2.46,3.73
19.055768966674805,-1.2,2.72,1.86,3.5
19.079583883285522,-1.03,3.05,1.43,3.52
19.079959869384766,-1.25,3.39,1.4,3.87
19.085882902145386,-1.33,3.76,1.52,4.26
19.095836877822876,-1.3,4.09,1.4,4.51
19.105876922607422,-1.08,4.55,1.23,4.83
19.1304669380188,-1.19,5.07,1.66,5.46
19.130838871002197,-1.08,5.65,2.42,6.24
19.13595485687256,-0.15,5.88,1.8,6.15
19.145745992660522,0.72,5.37,0.04,5.41
19.1558518409729,0.83,4.34,-0.85,4.49
19.18058490753174,0.63,3.33,-0.74,3.46
19.18095898628235,0.68,2.43,-0.98,2.7
19.185849905014038,0.86,1.49,-1.41,2.22
19.195833921432495,1.02,0.74,-1.79,2.18
19.205883979797363,1.39,0.59,-2.15,2.62
19.23039197921753,1.76,0.76,-2.23,2.94
19.230758905410767,1.9,0.94,-1.98,2.9
19.23596692085266,1.81,1.02,-1.82,2.76
19.24588108062744,1.39,0.9,-1.68,2.35
19.256030082702637,0.83,0.7,-1.53,1.87
19.280760765075684,0.4,0.55,-1.32,1.48
19.281135082244873,0.04,0.4,-0.99,1.06
19.285971879959106,-0.14,0.17,-0.62,0.65
19.295806884765625,-0.24,-0.12,-0.32,0.41
19.3058979511261,-0.23,-0.46,-0.3,0.59
19.33037495613098,-0.13,-0.85,-0.53,1.01
19.33073902130127,-0.08,-1.3,-0.7,1.47
19.335998058319092,-0.06,-1.87,-0.78,2.02
19.3459689617157,-0.16,-2.5,-0.94,2.67
19.356011867523193,-0.29,-2.99,-0.99,3.16
19.381367921829224,-0.33,-3.34,-0.89,3.47
19.381744861602783,-0.28,-3.58,-0.7,3.65
19.385872840881348,-0.19,-3.78,-0.55,3.82
19.39591097831726,-0.07,-3.88,-0.52,3.91
19.40595579147339,0.08,-3.91,-0.66,3.96
19.431397914886475,0.28,-3.93,-0.9,4.04
19.431771993637085,0.45,-3.9,-0.99,4.04
19.435958862304688,0.49,-3.89,-0.86,4.01
19.445969104766846,0.51,-3.76,-0.54,3.83
19.456012964248657,0.47,-3.52,-0.16,3.55
19.48168706893921,0.56,-3.22,0.22,3.27
19.482067108154297,0.81,-2.85,0.5,3.0
19.485881805419922,0.93,-2.49,0.61,2.72
19.495925903320312,0.86,-2.18,0.47,2.39
19.505985975265503,0.81,-1.9,0.4,2.1
19.531404972076416,0.86,-1.5,0.67,1.85
19.53178882598877,0.81,-0.94,1.08,1.64
19.536004066467285,0.87,-0.23,1.33,1.6
19.54592490196228,1.03,0.68,1.43,1.88
19.556015014648438,1.13,1.71,1.83,2.74
19.581504821777344,1.02,2.54,2.19,3.5
19.581864833831787,0.8,3.13,2.17,3.89
19.586030960083008,0.48,3.54,1.87,4.03
19.595964908599854,0.34,4.0,1.57,4.31
19.605992794036865,0.43,4.55,1.4,4.77
19.631491899490356,0.55,4.92,1.34,5.12
19.631861925125122,0.77,5.14,1.62,5.44
19.636038780212402,0.79,5.4,1.95,5.79
19.645920991897583,0.45,5.28,0.85,5.36
19.65605878829956,0.2,4.55,-0.41,4.57
19.68160891532898,0.2,4.01,-0.77,4.08
19.68199586868286,-0.24,3.87,-0.7,3.94
19.685889959335327,-0.94,3.62,-1.0,3.87
19.696058988571167,-1.1,2.9,-1.84,3.6
19.706018924713135,-1.34,2.17,-2.06,3.27
19.732034921646118,-1.55,1.55,-1.88,2.88
19.732417106628418,-1.55,0.9,-1.98,2.67
19.736093997955322,-1.27,0.46,-1.7,2.17
19.74599289894104,-1.03,0.19,-1.5,1.82
19.756126880645752,-0.78,0.03,-1.46,1.65
19.781713008880615,-0.58,-0.23,-1.35,1.48
19.782136917114258,-0.33,-0.5,-1.32,1.44
19.785899877548218,-0.17,-0.83,-1.3,1.55
19.79608678817749,-0.15,-1.01,-1.1,1.5
19.806049823760986,-0.12,-1.04,-0.75,1.28
19.81601905822754,-0.03,-1.15,-0.55,1.27
19.83195209503174,0.16,-1.38,-0.39,1.44
19.835970878601074,0.31,-1.67,-0.41,1.74
19.846027851104736,0.34,-1.86,-0.37,1.92
19.856125831604004,0.32,-2.09,-0.35,2.14
19.866009950637817,0.4,-2.27,-0.37,2.33
19.882256984710693,0.57,-2.6,-0.23,2.67
19.886096000671387,0.68,-3.04,-0.18,3.12
19.896070957183838,0.76,-3.46,-0.25,3.55
19.90607500076294,0.81,-3.77,-0.32,3.86
19.916038036346436,0.74,-3.95,-0.26,4.02
19.93216609954834,0.52,-3.95,-0.22,3.99
19.936180114746094,0.52,-3.81,-0.28,3.85
19.946131944656372,0.54,-3.59,-0.11,3.63
19.956295013427734,0.4,-3.33,-0.02,3.35
19.966015815734863,0.24,-3.13,0.14,3.14
19.981690883636475,-0.1,-3.07,0.24,3.08
19.98602294921875,-0.29,-2.97,0.23,2.99
19.996113777160645,-0.31,-2.82,0.41,2.86
20.00615096092224,-0.38,-2.68,0.56,2.76
20.016077041625977,-0.32,-2.39,0.59,2.48
20.032068967819214,-0.12,-1.91,0.76,2.05
20.03614377975464,0.08,-1.32,0.61,1.45
20.04608392715454,0.26,-0.73,0.71,1.05
20.056045055389404,0.26,0.08,0.88,0.92
20.06606698036194,-0.15,1.02,1.44,1.77
20.081909894943237,-0.85,1.87,2.05,2.9
20.086086988449097,-1.46,2.6,2.13,3.66
20.096107959747314,-1.73,3.08,1.64,3.89
20.106177806854248,-1.81,3.56,1.3,4.19
20.116111993789673,-2.03,4.16,1.36,4.82
20.131662845611572,-1.98,4.86,1.52,5.46
20.136189937591553,-1.93,5.53,1.87,6.14
20.146155834197998,-1.88,6.35,2.46,7.06
20.15621280670166,-1.23,7.12,2.55,7.66
20.166103839874268,0.15,7.23,1.47,7.37
20.181731939315796,1.01,6.52,-0.21,6.6
20.1861469745636,0.92,5.54,-1.07,5.71
20.19618511199951,1.02,4.65,-1.43,4.97
20.206181049346924,1.2,3.86,-1.81,4.42
20.216224908828735,1.0,2.95,-1.88,3.63
20.23232078552246,0.93,2.01,-1.97,2.96
20.23621392250061,1.34,1.06,-2.23,2.8
20.246113777160645,1.75,0.3,-2.28,2.88
20.25624394416809,1.96,-0.11,-2.29,3.01
20.266036987304688,1.94,-0.36,-2.11,2.88
20.281019926071167,1.71,-0.3,-1.73,2.45
20.286109924316406,1.11,-0.07,-1.33,1.73
20.29611897468567,0.56,0.17,-0.82,1.0
20.30614185333252,0.18,0.33,-0.45,0.58
20.31614089012146,-0.17,0.37,-0.37,0.55
20.331132888793945,-0.39,0.3,-0.51,0.7
20.33619499206543,-0.47,0.02,-0.7,0.84
20.34616994857788,-0.58,-0.47,-0.78,1.07
20.356299877166748,-0.79,-1.14,-0.88,1.64
20.36647081375122,-0.96,-1.93,-0.95,2.35
20.386322021484375,-0.76,-2.63,-0.92,2.88
20.38748288154602,-0.48,-3.21,-0.86,3.35
20.396195888519287,-0.27,-3.63,-0.89,3.74
20.406067848205566,-0.14,-3.87,-0.91,3.97
20.416148900985718,0.12,-3.94,-0.96,4.05
20.431387901306152,0.45,-3.96,-0.88,4.08
20.43636178970337,0.63,-4.02,-0.67,4.12
20.446197986602783,0.49,-4.06,-0.64,4.13
20.45626997947693,0.19,-4.04,-0.53,4.07
20.466145038604736,-0.07,-3.92,-0.38,3.93
20.481764793395996,-0.24,-3.71,-0.3,3.72
20.48632287979126,-0.15,-3.53,-0.2,3.53
20.49619483947754,0.05,-3.33,-0.21,3.33
20.506237030029297,0.29,-3.16,-0.01,3.17
20.516379833221436,0.58,-3.03,0.16,3.08
20.532665967941284,0.81,-2.74,0.25,2.86
20.53629207611084,0.92,-2.37,0.28,2.55
20.546198844909668,0.98,-1.84,0.19,2.09
20.55649185180664,0.85,-1.23,0.35,1.53
20.56629705429077,0.69,-0.57,0.6,1.07
20.583123922348022,0.73,0.29,1.17,1.4
20.586164951324463,0.8,1.19,1.8,2.3
20.596375942230225,0.89,1.93,1.91,2.85
20.60633087158203,0.87,2.36,1.87,3.13
20.61623787879944,0.6,2.75,1.71,3.29
20.63282585144043,0.25,3.2,1.34,3.47
20.636104106903076,0.05,3.75,1.18,3.93
20.64614200592041,0.15,4.23,1.32,4.43
20.656239986419678,0.19,4.52,1.72,4.83
20.666369915008545,0.14,4.9,2.41,5.46
20.683650970458984,-0.04,5.32,3.15,6.18
20.68624496459961,0.05,5.12,1.57,5.35
20.696413040161133,0.2,4.59,-0.7,4.64
20.706398963928223,-0.03,4.09,-1.12,4.24
20.716396808624268,-0.39,3.77,-0.37,3.8
20.732905864715576,-0.57,3.47,-0.71,3.58
20.7362699508667,-0.78,2.86,-1.67,3.4
20.746485948562622,-1.1,2.15,-1.64,2.91
20.75630283355713,-1.37,1.59,-1.57,2.62
20.766326904296875,-1.54,1.06,-2.31,2.97
20.78273296356201,-1.89,0.36,-2.4,3.07
20.786180019378662,-1.82,-0.05,-2.33,2.95
20.79631805419922,-1.38,-0.22,-2.24,2.64
20.806310892105103,-0.9,-0.28,-1.9,2.12
20.816362857818604,-0.49,-0.17,-1.77,1.84
20.83225679397583,-0.36,0.02,-1.77,1.8
20.836280822753906,-0.65,0.22,-1.4,1.55
20.84630298614502,-0.68,0.24,-0.93,1.17
20.85647988319397,-0.52,0.12,-0.74,0.91
20.866384029388428,-0.36,-0.12,-0.7,0.79
20.883075952529907,-0.09,-0.48,-0.72,0.87
20.88638210296631,0.1,-0.91,-0.69,1.14
20.896419048309326,0.23,-1.45,-0.63,1.59
20.906442880630493,0.32,-2.0,-0.67,2.13
20.916353940963745,0.47,-2.51,-0.7,2.64
20.93283700942993,0.6,-3.02,-0.71,3.15
20.936372995376587,0.62,-3.42,-0.73,3.55
20.946675777435303,0.59,-3.68,-0.67,3.78
20.956584930419922,0.52,-3.89,-0.5,3.95
20.966348886489868,0.48,-4.01,-0.38,4.05
20.9827299118042,0.54,-4.02,-0.39,4.07
20.986443996429443,0.52,-4.06,-0.39,4.11
20.996444940567017,0.42,-4.08,-0.35,4.11
21.006383895874023,0.16,-3.96,-0.18,3.96
21.016499042510986,-0.1,-3.74,0.18,3.74
21.033874034881592,-0.22,-3.46,0.37,3.48
21.036241054534912,-0.24,-2.98,0.43,3.02
21.046431064605713,-0.26,-2.41,0.69,2.52
21.056638956069946,-0.34,-1.94,0.87,2.15
21.066361904144287,-0.45,-1.52,0.93,1.83
21.083131790161133,-0.57,-1.15,0.99,1.62
21.0862078666687,-0.67,-0.76,1.04,1.45
21.096483945846558,-0.75,-0.37,1.12,1.39
21.106417894363403,-0.94,-0.02,1.27,1.58
21.116355895996094,-1.18,0.35,1.59,2.01
21.13304591178894,-1.35,0.85,1.9,2.48
21.13630485534668,-1.24,1.38,1.84,2.61
21.14646577835083,-1.05,1.84,1.56,2.63
21.15649390220642,-1.07,2.22,1.3,2.78
21.166422843933105,-1.36,2.77,1.26,3.33
21.18287181854248,-1.65,3.4,1.49,4.06
21.186339855194092,-1.87,4.03,1.59,4.71
21.196388959884644,-2.01,4.65,1.59,5.3
21.206418991088867,-1.97,5.48,2.18,6.21
21.21638798713684,-1.49,6.28,2.69,6.99
21.232980966567993,-0.35,6.57,1.42,6.73
21.236291885375977,0.54,6.0,-0.54,6.04
21.246391773223877,0.4,5.06,-1.06,5.18
21.25646996498108,0.36,4.1,-1.1,4.26
21.26646399497986,0.53,3.23,-1.57,3.63
21.282630920410156,0.55,2.45,-2.13,3.29
21.286348819732666,0.46,1.77,-2.6,3.17
21.29652690887451,0.89,1.31,-2.86,3.26
21.30662488937378,1.29,0.89,-2.39,2.85
21.31648302078247,1.43,0.54,-1.67,2.26
21.332263946533203,1.54,0.17,-1.55,2.19
21.33638286590576,1.65,-0.16,-1.93,2.54
21.346534967422485,1.35,-0.37,-1.85,2.31
21.356626987457275,0.96,-0.28,-1.6,1.88
21.36645793914795,0.74,-0.08,-1.28,1.48
21.382415771484375,0.41,0.14,-0.82,0.92
21.386481761932373,0.09,0.33,-0.64,0.72
21.39651584625244,-0.18,0.34,-0.8,0.88
21.40646505355835,-0.32,0.1,-1.0,1.05
21.416531085968018,-0.26,-0.39,-1.0,1.1
21.432724952697754,-0.11,-0.99,-0.78,1.26
21.436442852020264,-0.07,-1.68,-0.59,1.78
21.446566104888916,0.01,-2.33,-0.61,2.4
21.45647382736206,0.12,-2.9,-0.72,2.99
21.466514110565186,0.18,-3.34,-0.71,3.41
21.483113765716553,0.19,-3.64,-0.66,3.7
21.48632788658142,0.13,-3.86,-0.66,3.91
21.496499061584473,0.16,-3.9,-0.7,3.96
21.506596088409424,0.15,-3.88,-0.64,3.93
21.51645803451538,0.15,-3.82,-0.56,3.86
21.532559871673584,0.17,-3.75,-0.52,3.78
21.536348819732666,0.17,-3.63,-0.39,3.65
21.546470880508423,0.24,-3.52,-0.35,3.54
21.556561946868896,0.29,-3.38,-0.21,3.39
21.566527843475342,0.36,-3.19,0.24,3.21
21.582677841186523,0.5,-2.92,0.55,3.01
21.58642888069153,0.55,-2.62,0.56,2.73
21.596483945846558,0.63,-2.36,0.56,2.5
21.606504917144775,0.7,-2.07,0.69,2.29
21.616551876068115,0.75,-1.77,0.78,2.07
21.632516860961914,0.66,-1.4,0.88,1.78
21.636486053466797,0.45,-0.86,0.85,1.29
21.646502017974854,0.34,-0.19,0.89,0.97
21.65662693977356,0.11,0.55,1.38,1.48
21.666512966156006,-0.17,1.22,1.89,2.25
21.682940006256104,-0.23,1.74,1.96,2.63
21.686355113983154,-0.18,2.2,1.91,2.91
21.69659996032715,0.06,2.82,1.68,3.28
21.706609964370728,0.49,3.6,1.52,3.93
21.716574907302856,1.04,4.38,1.62,4.78
21.733165979385376,1.37,4.81,1.95,5.36
21.73644995689392,1.31,4.7,1.76,5.18
21.746566772460938,0.89,4.63,1.7,5.01
21.75652503967285,0.21,4.68,2.77,5.44
21.766588926315308,-0.21,4.56,1.88,4.93
21.78174090385437,-0.31,4.08,0.07,4.09
21.786388874053955,-0.22,3.59,-1.33,3.83
21.79660701751709,-0.34,3.45,-1.52,3.78
21.806684017181396,-0.43,3.34,-1.97,3.9
21.816593885421753,-0.52,3.13,-2.58,4.08
21.833302974700928,-0.95,2.76,-2.04,3.56
21.83650493621826,-1.35,2.26,-1.38,2.97
21.84670400619507,-1.79,1.78,-1.67,3.02
21.856574058532715,-2.11,1.15,-1.77,2.98
21.866605758666992,-1.81,0.73,-1.7,2.58
21.88328504562378,-1.11,0.55,-1.73,2.12
21.88658094406128,-0.41,0.5,-1.88,1.98
21.896706104278564,0.01,0.36,-1.93,1.96
21.906667947769165,0.14,0.08,-1.75,1.75
21.916666984558105,0.0,-0.3,-1.27,1.3
21.934269905090332,-0.15,-0.7,-0.89,1.14
21.936573028564453,-0.2,-1.02,-0.67,1.23
21.946693897247314,-0.02,-1.44,-0.52,1.53
21.956862926483154,0.2,-1.89,-0.49,1.96
21.966630935668945,0.44,-2.37,-0.51,2.46
21.98402500152588,0.66,-2.85,-0.52,2.97
21.986565113067627,0.82,-3.23,-0.59,3.38
21.996766090393066,0.88,-3.57,-0.7,3.74
22.00673484802246,1.02,-3.79,-0.74,3.99
22.016658782958984,1.17,-3.92,-0.69,4.14
22.034245014190674,1.01,-4.02,-0.67,4.19
22.036593914031982,0.65,-3.91,-0.66,4.01
22.04664897918701,0.3,-3.84,-0.44,3.87
22.056626796722412,0.22,-3.64,-0.23,3.65
22.066650867462158,0.15,-3.29,0.09,3.29
22.08360004425049,0.07,-3.04,0.29,3.05
22.086734771728516,0.24,-2.85,0.29,2.87
22.096704959869385,0.38,-2.62,0.18,2.65
22.106589794158936,0.26,-2.33,0.22,2.35
22.116665840148926,0.05,-1.98,0.49,2.04
22.134113788604736,-0.17,-1.59,0.67,1.73
22.136816024780273,-0.47,-1.13,0.89,1.51
22.14671492576599,-0.61,-0.62,1.03,1.34
22.15683889389038,-0.55,-0.39,1.14,1.32
22.166794776916504,-0.46,-0.2,1.07,1.18
22.18445110321045,-0.63,0.01,1.1,1.26
22.186848878860474,-0.85,0.17,1.31,1.57
22.196842908859253,-1.0,0.31,1.34,1.7
22.206825971603394,-1.26,0.6,1.37,1.95
22.21676778793335,-1.26,1.0,1.33,2.08
22.23467993736267,-1.07,1.41,1.26,2.17
22.237082958221436,-0.94,1.96,1.37,2.56
22.24697780609131,-1.03,2.53,1.6,3.16
22.25672698020935,-1.32,3.1,1.49,3.68
22.266705989837646,-1.52,3.66,1.49,4.23
22.284343957901,-1.77,4.26,2.02,5.03
22.287086963653564,-1.87,5.04,2.99,6.15
22.297010898590088,-1.39,5.7,2.77,6.48
22.30676507949829,-0.51,5.85,0.9,5.94
22.31669282913208,0.1,5.37,-0.34,5.38
22.33455181121826,0.58,4.67,-0.41,4.72
22.33715295791626,0.98,3.82,-0.92,4.04
22.346714973449707,1.04,2.8,-1.53,3.35
22.356798887252808,0.79,1.91,-1.67,2.65
22.366745948791504,0.77,1.23,-1.92,2.4
22.384000778198242,1.12,0.72,-2.16,2.53
22.387237071990967,1.41,0.45,-2.27,2.7
22.39677906036377,1.57,0.4,-2.29,2.8
22.406678915023804,1.72,0.57,-2.16,2.81
22.416706085205078,1.72,0.74,-1.86,2.63
22.43472194671631,1.53,0.91,-1.47,2.3
22.437262058258057,1.21,1.05,-1.27,2.04
22.446887969970703,0.74,1.1,-0.92,1.61
22.456711769104004,0.23,0.99,-0.54,1.15
22.466824054718018,-0.09,0.81,-0.36,0.89
22.484872817993164,-0.32,0.35,-0.31,0.56
22.48737907409668,-0.34,-0.26,-0.32,0.53
22.496805906295776,-0.29,-0.9,-0.39,1.02
22.506691932678223,-0.28,-1.65,-0.45,1.73
22.516782760620117,-0.27,-2.42,-0.52,2.48
22.534743785858154,-0.27,-3.14,-0.66,3.21
22.537357807159424,-0.09,-3.67,-0.8,3.75
22.546803951263428,0.08,-4.06,-0.85,4.14
22.556903839111328,0.22,-4.26,-0.79,4.33
22.566818952560425,0.29,-4.28,-0.74,4.35
22.58452796936035,0.41,-4.23,-0.59,4.29
22.587560892105103,0.42,-4.16,-0.54,4.21
22.596787929534912,0.37,-3.99,-0.47,4.03
22.606847763061523,0.3,-3.77,-0.35,3.79
22.616909980773926,0.35,-3.56,-0.17,3.58
22.63496994972229,0.36,-3.33,-0.11,3.35
22.636830806732178,0.35,-3.09,-0.09,3.11
22.64694595336914,0.48,-2.91,0.1,2.95
22.656800985336304,0.66,-2.68,0.15,2.76
22.667064905166626,0.87,-2.38,0.3,2.55
22.68506383895874,1.01,-2.12,0.63,2.43
22.686870098114014,1.13,-1.81,0.84,2.29
22.696943759918213,1.24,-1.45,0.76,2.05
22.70679497718811,1.29,-1.03,0.72,1.8
22.71684694290161,1.22,-0.43,0.91,1.58
22.735204935073853,1.11,0.4,1.48,1.89
22.736692905426025,0.9,1.24,2.16,2.64
22.746917963027954,0.65,1.94,2.41,3.16
22.757025957107544,0.6,2.43,2.18,3.31
22.766905784606934,0.6,2.82,1.89,3.44
22.784993886947632,0.67,3.35,1.43,3.7
22.786926984786987,0.51,3.88,1.02,4.04
22.796977996826172,0.25,4.23,1.04,4.36
22.80678081512451,0.12,4.45,1.37,4.65
22.816847801208496,0.06,4.77,2.45,5.36
22.835364818572998,-0.07,5.02,3.14,5.92
22.836909770965576,-0.17,5.09,1.76,5.38
22.847142934799194,-0.12,4.66,-0.42,4.68
22.85695195198059,-0.04,4.35,-1.4,4.56
22.86694598197937,-0.41,4.1,-1.38,4.34
22.88436198234558,-0.72,3.88,-1.91,4.38
22.886917114257812,-0.94,3.37,-2.39,4.23
22.89701509475708,-1.43,2.61,-2.09,3.63
22.906840801239014,-1.79,1.89,-2.04,3.3
22.916801929473877,-1.82,1.39,-2.04,3.06
22.934470891952515,-1.72,0.92,-2.0,2.79
22.936901092529297,-1.48,0.65,-1.86,2.46
22.94709587097168,-1.14,0.56,-1.76,2.17
22.95687699317932,-0.56,0.45,-1.77,1.91
22.966943979263306,-0.32,0.15,-1.48,1.52
22.985373973846436,-0.28,-0.14,-1.21,1.24
22.986793041229248,-0.29,-0.43,-0.88,1.02
22.997085094451904,-0.28,-0.59,-0.8,1.03
23.00690507888794,-0.33,-0.87,-0.79,1.22
23.016894817352295,-0.33,-1.19,-0.65,1.39
23.036952018737793,-0.27,-1.51,-0.56,1.63
23.037327766418457,-0.15,-1.83,-0.51,1.9
23.047122955322266,-0.08,-2.19,-0.49,2.24
23.0568790435791,0.02,-2.68,-0.51,2.72
23.066982984542847,0.2,-3.2,-0.56,3.25
23.08614206314087,0.41,-3.6,-0.72,3.69
23.086760997772217,0.45,-3.87,-0.6,3.94
23.09703493118286,0.42,-4.14,-0.46,4.18
23.106928825378418,0.4,-4.29,-0.55,4.34
23.11701488494873,0.31,-4.31,-0.47,4.34
23.136335849761963,0.35,-4.18,-0.36,4.21
23.136754989624023,0.38,-4.04,-0.27,4.06
23.146979808807373,0.28,-3.83,-0.14,3.84
23.156892776489258,0.1,-3.57,0.09,3.57
23.16700792312622,-0.08,-3.29,0.21,3.29
23.185804843902588,-0.32,-2.99,0.44,3.03
23.186975955963135,-0.53,-2.66,0.67,2.79
23.197016954421997,-0.56,-2.17,0.75,2.36
23.206960916519165,-0.52,-1.76,0.84,2.01
23.217047929763794,-0.48,-1.41,0.92,1.75
23.236140966415405,-0.56,-1.18,1.09,1.7
23.237049102783203,-0.74,-0.94,1.12,1.63
23.24724578857422,-0.96,-0.6,1.16,1.62
23.2570378780365,-1.02,-0.07,1.39,1.72
23.267027854919434,-1.06,0.6,1.72,2.1
23.282093048095703,-0.99,1.33,2.01,2.6
23.286906957626343,-0.78,1.98,1.86,2.82
23.29706382751465,-0.76,2.5,1.42,2.97
23.306899070739746,-1.08,2.98,1.29,3.42
23.316826820373535,-1.55,3.55,1.51,4.15
23.329609870910645,-1.95,4.11,1.59,4.81
23.337138891220093,-2.22,4.65,1.7,5.42
23.347303867340088,-2.01,5.22,1.93,5.91
23.357099056243896,-1.6,5.91,2.32,6.54
23.366909980773926,-0.61,6.33,1.77,6.6
23.38596796989441,0.15,6.04,0.37,6.05
23.386868953704834,0.15,5.27,-0.33,5.28
23.397204875946045,0.3,4.37,-0.93,4.47
23.40709400177002,0.63,3.43,-1.73,3.89
23.417285919189453,0.39,2.38,-2.33,3.35
23.43812894821167,0.22,1.47,-2.68,3.06
23.43924379348755,0.41,0.76,-2.57,2.71
23.44715976715088,0.75,0.25,-2.16,2.3
23.457200050354004,1.05,0.11,-1.8,2.08
23.467148780822754,1.32,0.32,-1.67,2.15
23.488199949264526,1.47,0.44,-1.7,2.29
23.489408016204834,1.48,0.63,-1.44,2.15
23.497251987457275,1.33,0.85,-1.23,2.0
23.506997108459473,0.86,1.0,-1.2,1.78
23.51734209060669,0.25,1.03,-0.86,1.36
23.53782606124878,-0.21,0.94,-0.69,1.18
23.53821086883545,-0.48,0.69,-0.76,1.13
23.547142028808594,-0.55,0.28,-0.77,0.98
23.557097911834717,-0.5,-0.23,-0.88,1.03
23.567147970199585,-0.34,-0.83,-0.86,1.24
23.587071895599365,-0.14,-1.49,-0.8,1.69
23.58748483657837,-0.05,-2.13,-0.77,2.26
23.597196102142334,0.01,-2.74,-0.66,2.81
23.607086896896362,0.09,-3.32,-0.69,3.39
23.617212772369385,0.06,-3.76,-0.8,3.84
23.636569023132324,0.04,-4.07,-0.83,4.15
23.63700580596924,-0.03,-4.32,-0.75,4.38
23.647149085998535,-0.21,-4.47,-0.74,4.53
23.657012939453125,-0.28,-4.54,-0.81,4.62
23.667154788970947,-0.16,-4.4,-0.78,4.47
23.68670392036438,-0.02,-4.17,-0.79,4.24
23.687087059020996,0.11,-3.84,-0.7,3.9
23.697190761566162,0.31,-3.53,-0.35,3.56
23.707026958465576,0.41,-3.27,-0.07,3.29
23.71720290184021,0.45,-3.11,0.19,3.14
23.73692488670349,0.52,-2.93,0.39,3.0
23.737317085266113,0.48,-2.8,0.34,2.86
23.747185945510864,0.53,-2.51,0.3,2.58
23.757168769836426,0.74,-2.07,0.39,2.23
23.767186880111694,0.9,-1.39,0.6,1.76
23.786736965179443,0.91,-0.6,0.99,1.47
23.787120819091797,0.88,0.3,1.42,1.69
23.797252893447876,0.7,1.13,1.64,2.11
23.80711078643799,0.67,1.84,1.86,2.7
23.817296981811523,0.69,2.34,2.13,3.23
23.836677074432373,0.63,2.69,2.26,3.56
23.837059020996094,0.57,3.01,1.9,3.6
23.847240924835205,0.45,3.33,1.17,3.55
23.857146978378296,0.34,3.78,0.99,3.92
23.867292881011963,0.29,4.14,1.4,4.37
23.88677191734314,0.24,4.27,1.74,4.61
23.887155055999756,0.09,4.35,2.31,4.92
23.897314071655273,-0.02,4.48,2.25,5.01
23.907165050506592,0.04,4.38,0.94,4.47
23.917255878448486,0.01,4.05,-0.66,4.1
23.937160968780518,-0.11,3.82,-1.25,4.02
23.937551021575928,-0.22,3.77,-1.23,3.97
23.94734787940979,-0.27,3.56,-1.82,4.0
23.957211017608643,-0.52,3.21,-2.19,3.92
23.96723198890686,-1.02,2.83,-1.63,3.42
23.987321853637695,-1.29,2.3,-1.6,3.08
23.98771095275879,-1.39,1.78,-1.69,2.82
23.99730110168457,-1.52,1.41,-1.59,2.61
24.007166862487793,-1.4,1.08,-1.67,2.43
24.017297983169556,-1.11,0.86,-1.81,2.29
24.037574768066406,-0.78,0.73,-1.8,2.09
24.03797483444214,-0.64,0.52,-1.63,1.82
24.047236919403076,-0.64,0.2,-1.42,1.57
24.057229042053223,-0.57,-0.05,-1.14,1.27
24.067275047302246,-0.4,-0.32,-0.89,1.02
24.087512016296387,-0.12,-0.78,-0.7,1.05
24.087886810302734,0.15,-1.32,-0.8,1.55
24.097373008728027,0.42,-1.87,-0.77,2.06
24.107107877731323,0.71,-2.48,-0.96,2.75
24.117283821105957,0.78,-3.0,-1.08,3.28
24.137756824493408,0.88,-3.41,-1.04,3.67
24.13814687728882,0.94,-3.7,-1.11,3.97
24.147392988204956,0.89,-3.93,-1.03,4.15
24.157248973846436,0.7,-3.98,-0.92,4.14
24.167337894439697,0.44,-3.97,-0.85,4.08
24.187490940093994,0.35,-3.87,-0.75,3.95
24.18786096572876,0.33,-3.74,-0.66,3.81
24.197411060333252,0.18,-3.52,-0.49,3.55
24.20718789100647,0.09,-3.25,-0.36,3.27
24.217341899871826,0.05,-2.98,-0.2,2.98
24.23805809020996,0.08,-2.55,-0.15,2.55
24.238431930541992,-0.04,-2.16,-0.13,2.16
24.24735689163208,-0.27,-1.87,-0.01,1.88
24.257225036621094,-0.44,-1.54,0.39,1.64
24.267282962799072,-0.57,-1.2,0.63,1.47
24.286986827850342,-0.56,-0.88,0.54,1.17
24.287359952926636,-0.54,-0.62,0.4,0.91
24.297204971313477,-0.67,-0.5,0.3,0.88
24.307136058807373,-0.7,-0.32,0.34,0.84
24.317343950271606,-0.66,-0.05,0.65,0.92
24.337154865264893,-0.74,0.11,1.05,1.28
24.337522983551025,-0.71,0.33,1.3,1.51
24.347429990768433,-0.7,0.57,1.28,1.56
24.357168912887573,-0.69,0.79,1.12,1.53
24.36749291419983,-0.55,1.08,0.54,1.32
24.387547969818115,-0.52,1.44,0.68,1.67
24.387988090515137,-0.8,2.17,1.03,2.53
24.397352933883667,-1.33,3.06,1.44,3.63
24.407145023345947,-1.63,3.73,1.71,4.41
24.417451858520508,-1.55,4.32,2.27,5.12
24.438235759735107,-1.0,4.82,2.63,5.58
24.438687801361084,-0.11,5.05,1.93,5.4
24.447316884994507,0.66,4.81,0.82,4.92
24.457191944122314,0.69,4.34,0.43,4.41
24.467376947402954,0.47,3.82,0.14,3.85
24.487986087799072,0.67,3.25,-0.45,3.34
24.488423824310303,0.88,2.68,-0.8,2.93
24.497376918792725,0.82,2.12,-0.92,2.45
24.5072078704834,0.93,1.6,-1.29,2.25
24.517404079437256,1.32,1.09,-1.55,2.3
24.539443016052246,1.6,0.71,-1.83,2.53
24.539816856384277,1.74,0.56,-2.14,2.81
24.547424793243408,1.79,0.52,-2.13,2.83
24.557209014892578,1.66,0.52,-2.11,2.73
24.567420959472656,1.42,0.66,-1.92,2.47
24.58803391456604,1.05,0.77,-1.66,2.1
24.588404893875122,0.64,0.9,-1.35,1.74
24.59742307662964,0.25,1.05,-1.0,1.47
24.60752010345459,0.03,1.03,-0.66,1.22
24.617456912994385,0.0,0.78,-0.6,0.98
24.637512922286987,0.11,0.35,-0.56,0.66
24.63784885406494,0.24,-0.17,-0.56,0.63
24.64743185043335,0.36,-0.75,-0.7,1.08
24.661240100860596,0.43,-1.36,-0.8,1.63
24.67127799987793,0.34,-2.0,-0.96,2.24
24.688649892807007,0.26,-2.54,-0.99,2.73
24.69111394882202,0.25,-2.89,-0.97,3.05
24.701299905776978,0.24,-3.16,-0.96,3.31
24.711255073547363,0.25,-3.28,-0.88,3.4
24.72138500213623,0.24,-3.3,-0.74,3.39
24.739131927490234,0.34,-3.23,-0.74,3.33
24.74123787879944,0.49,-3.04,-0.73,3.16
24.751328945159912,0.47,-2.9,-0.67,3.01
24.761194944381714,0.44,-2.73,-0.55,2.81
24.77129292488098,0.43,-2.53,-0.34,2.58
24.789705991744995,0.44,-2.3,-0.2,2.35
24.791103839874268,0.47,-2.06,-0.16,2.11
24.801264762878418,0.57,-1.89,-0.15,1.97
24.811137914657593,0.66,-1.7,-0.05,1.82
24.8212308883667,0.77,-1.55,0.03,1.73
24.839364051818848,0.88,-1.47,0.24,1.73
24.841099977493286,0.89,-1.46,0.39,1.75
24.851301908493042,0.93,-1.44,0.42,1.76
24.861156940460205,0.86,-1.39,0.25,1.65
24.871213912963867,0.67,-1.14,0.28,1.35
24.889392852783203,0.57,-0.76,0.07,0.95
24.89118790626526,0.56,-0.28,0.62,0.88
24.901390075683594,0.58,0.37,1.19,1.37
24.911235809326172,0.54,0.95,1.54,1.88
24.921284914016724,0.38,1.45,1.67,2.24
24.938947916030884,0.32,1.95,1.5,2.48
24.941200971603394,0.24,2.42,1.07,2.65
24.951400995254517,0.38,2.98,0.92,3.14
24.96136498451233,0.36,3.38,0.93,3.52
24.971268892288208,0.29,3.66,1.09,3.82
24.989159107208252,0.17,3.84,1.65,4.18
24.991273880004883,0.03,3.88,2.13,4.42
25.001347064971924,0.13,3.77,1.43,4.03
25.01120090484619,0.5,3.29,0.33,3.34
25.021328926086426,1.0,2.67,-0.03,2.85
25.038965940475464,0.94,2.4,0.04,2.57
25.041335105895996,0.44,2.37,-0.47,2.45
25.05136203765869,0.12,2.18,-1.6,2.7
25.06124210357666,0.03,1.94,-1.86,2.68
25.07130193710327,-0.21,1.75,-1.53,2.33
25.08946180343628,-0.63,1.37,-1.58,2.18
25.091429948806763,-1.0,0.92,-1.81,2.26
25.101443767547607,-1.29,0.46,-1.85,2.3
25.111405849456787,-1.46,0.04,-1.85,2.35
25.121331930160522,-1.4,-0.31,-1.98,2.44
25.1390118598938,-1.07,-0.44,-2.1,2.39
25.14156198501587,-0.77,-0.29,-1.96,2.12
25.151493072509766,-0.59,0.05,-1.77,1.86
25.161290884017944,-0.64,0.38,-1.3,1.49
25.171277046203613,-0.64,0.65,-0.88,1.26
25.189283847808838,-0.49,0.9,-0.63,1.2
25.191606044769287,-0.37,1.02,-0.46,1.17
25.201449871063232,-0.19,0.9,-0.36,0.98
25.211270809173584,-0.02,0.51,-0.35,0.61
25.22139596939087,-0.03,-0.04,-0.4,0.4
25.23974895477295,-0.07,-0.6,-0.43,0.74
25.241687774658203,-0.02,-1.17,-0.47,1.26
25.251462936401367,0.14,-1.71,-0.53,1.79
25.261301040649414,0.35,-2.15,-0.55,2.24
25.271374940872192,0.5,-2.55,-0.59,2.66
25.28966498374939,0.49,-2.87,-0.56,2.96
25.291794776916504,0.41,-2.93,-0.54,3.0
25.301445960998535,0.34,-2.81,-0.44,2.86
25.311378955841064,0.32,-2.63,-0.36,2.67
25.321363925933838,0.35,-2.47,-0.32,2.51
25.339581966400146,0.3,-2.38,-0.22,2.4
25.34184980392456,0.13,-2.23,-0.11,2.23
25.351519107818604,0.02,-2.12,0.03,2.12
25.36131477355957,-0.12,-1.99,0.12,1.99
25.371366024017334,-0.15,-1.91,-0.04,1.91
25.39014196395874,-0.22,-1.83,-0.1,1.84
25.391896963119507,-0.26,-1.68,0.0,1.7
25.40148687362671,-0.25,-1.58,0.14,1.6
25.41142511367798,-0.17,-1.55,0.39,1.6
25.421422004699707,-0.27,-1.42,0.57,1.55
25.4395489692688,-0.44,-1.36,0.48,1.5
25.44198989868164,-0.6,-1.23,0.39,1.42
25.45147180557251,-0.79,-1.05,0.32,1.35
25.46140193939209,-0.89,-0.64,0.43,1.17
25.471369981765747,-0.77,-0.06,0.59,0.97
25.490362882614136,-0.68,0.61,0.86,1.25
25.491302013397217,-0.61,1.39,1.1,1.87
25.501585960388184,-0.52,1.95,1.06,2.27
25.511423110961914,-0.47,2.31,0.96,2.54
25.52144193649292,-0.6,2.57,0.8,2.75
25.5397047996521,-0.88,2.81,0.75,3.03
25.541342973709106,-1.14,3.11,0.9,3.43
25.551524877548218,-1.22,3.39,1.33,3.84
25.561523914337158,-0.95,3.69,1.63,4.14
25.571485996246338,-0.63,3.86,1.48,4.18
25.58979082107544,-0.29,3.84,0.78,3.92
25.591320991516113,-0.03,3.58,0.08,3.58
25.601505994796753,0.15,3.21,-0.2,3.21
25.6115140914917,0.43,2.72,-0.49,2.79
25.621402978897095,0.68,2.15,-0.83,2.4
25.640016078948975,0.82,1.63,-1.1,2.13
25.641271114349365,0.69,1.08,-1.57,2.02
25.65147590637207,0.69,0.66,-1.82,2.05
25.661557912826538,0.87,0.28,-1.66,1.89
25.671473026275635,0.89,-0.04,-1.53,1.77
25.690181970596313,1.01,0.06,-1.56,1.85
25.691298961639404,0.87,0.13,-1.65,1.86
25.70156693458557,0.73,0.17,-1.69,1.84
25.711544036865234,0.71,0.14,-1.71,1.85
25.721641063690186,0.61,0.24,-1.68,1.8
25.74040389060974,0.33,0.55,-1.37,1.51
25.74132776260376,0.09,0.73,-1.07,1.29
25.751579761505127,-0.14,0.71,-0.85,1.11
25.761414051055908,-0.26,0.63,-0.79,1.04
25.77144193649292,-0.23,0.57,-0.83,1.03
25.79054093360901,-0.15,0.43,-0.9,1.0
25.791368007659912,-0.05,0.22,-0.96,0.98
25.80151081085205,0.09,-0.13,-0.86,0.87
25.811402797698975,0.02,-0.45,-0.73,0.85
25.821558952331543,-0.07,-0.79,-0.72,1.07
25.840089797973633,-0.11,-1.13,-0.77,1.37
25.84154176712036,-0.16,-1.53,-0.71,1.69
25.851496934890747,-0.23,-1.87,-0.65,1.99
25.861562967300415,-0.18,-2.05,-0.59,2.14
25.871474981307983,-0.09,-2.02,-0.71,2.14
25.89019799232483,-0.13,-1.9,-0.92,2.11
25.891417980194092,-0.01,-1.8,-0.72,1.93
25.90156078338623,0.28,-1.62,-0.28,1.66
25.91143298149109,0.42,-1.42,-0.07,1.48
25.921588897705078,0.32,-1.2,-0.17,1.25
25.94030499458313,0.17,-1.12,-0.34,1.18
25.941504955291748,0.15,-1.08,-0.26,1.12
25.951576948165894,0.2,-1.01,-0.24,1.05
25.96142578125,0.4,-0.94,-0.24,1.04
25.97151494026184,0.53,-0.96,-0.16,1.1
25.990423917770386,0.47,-1.04,-0.19,1.15
25.991374969482422,0.5,-1.16,-0.33,1.3
26.001594066619873,0.58,-1.24,-0.38,1.42
26.01144790649414,0.59,-1.35,-0.22,1.48
26.02159309387207,0.48,-1.41,0.02,1.48
26.040524005889893,0.4,-1.37,0.13,1.43
26.04140591621399,0.45,-1.16,0.19,1.25
26.05156397819519,0.46,-0.96,0.24,1.09
26.061486959457397,0.51,-0.75,0.33,0.96
26.071598052978516,0.58,-0.49,0.44,0.87
26.090646982192993,0.47,-0.24,0.48,0.71
26.091339111328125,0.33,0.02,0.5,0.59
26.101577758789062,0.14,0.2,0.6,0.64
26.11150884628296,-0.08,0.43,0.77,0.88
26.12158989906311,-0.33,0.46,0.93,1.08
26.140638828277588,-0.16,0.64,0.92,1.13
26.141488075256348,0.0,0.94,0.92,1.31
26.151694774627686,0.17,1.13,0.91,1.46
26.161510944366455,0.24,1.3,0.9,1.59
26.171547889709473,0.23,1.59,1.19,1.99
26.1911678314209,0.16,1.94,1.31,2.34
26.19157886505127,0.1,2.37,1.26,2.68
26.201748847961426,0.08,2.76,0.89,2.9
26.211529970169067,0.11,2.98,0.52,3.02
26.221630096435547,0.24,2.95,0.51,3.0
26.241468906402588,0.27,3.15,0.4,3.18
26.241869926452637,0.19,3.31,-0.17,3.31
26.25162696838379,0.21,3.2,-0.87,3.32
26.261653900146484,0.52,2.95,-1.47,3.33
26.271636962890625,0.62,2.93,-1.99,3.59
26.29124402999878,0.4,2.39,-1.99,3.13
26.29163408279419,0.01,1.85,-2.02,2.73
26.30172109603882,0.07,1.26,-2.08,2.43
26.311572074890137,-0.09,0.61,-2.07,2.15
26.321716785430908,-0.33,0.11,-2.14,2.16
26.341522932052612,-0.52,-0.3,-2.22,2.29
26.34190607070923,-0.68,-0.56,-2.23,2.39
26.351709842681885,-0.65,-0.55,-1.97,2.14
26.361577033996582,-0.67,-0.59,-1.97,2.16
26.371684074401855,-0.78,-0.5,-1.84,2.06
26.391489028930664,-0.85,-0.36,-1.8,2.02
26.391879081726074,-0.51,-0.07,-1.48,1.56
26.401798963546753,-0.18,0.27,-1.15,1.19
26.411619901657104,0.09,0.6,-1.03,1.19
26.421679973602295,0.22,0.86,-0.9,1.26
26.441487789154053,0.23,0.84,-0.86,1.22
26.441874980926514,0.17,0.56,-0.99,1.15
26.451798915863037,0.15,0.2,-1.06,1.08
26.46167278289795,0.17,0.05,-1.01,1.02
26.47174310684204,0.09,-0.16,-0.98,0.99
26.491646766662598,0.04,-0.55,-1.06,1.19
26.49200201034546,0.04,-0.82,-1.11,1.38
26.501678943634033,-0.02,-0.96,-1.16,1.5
26.51164484024048,-0.01,-1.09,-1.18,1.6
26.521734952926636,0.04,-1.21,-1.12,1.64
26.54165506362915,0.07,-1.26,-1.07,1.65
26.542037963867188,0.02,-1.25,-1.04,1.62
26.551881790161133,-0.08,-1.16,-1.01,1.54
26.56166410446167,-0.12,-1.06,-0.99,1.45
26.571784019470215,-0.1,-0.84,-0.87,1.21
26.591346979141235,-0.11,-0.56,-0.72,0.91
26.591731071472168,-0.21,-0.39,-0.71,0.83
26.60181188583374,-0.23,-0.16,-0.71,0.76
26.61167287826538,-0.33,0.02,-0.57,0.65
26.621792793273926,-0.46,0.11,-0.41,0.62
26.641582012176514,-0.48,0.22,-0.45,0.69
26.64192295074463,-0.49,0.22,-0.46,0.7
26.651895999908447,-0.4,0.06,-0.48,0.62
26.661695957183838,-0.16,-0.12,-0.59,0.62
26.671842098236084,-0.14,-0.01,-0.56,0.57
26.691747903823853,-0.13,0.07,-0.44,0.46
26.692136764526367,-0.39,0.83,-0.22,0.94
26.70184087753296,-0.7,1.03,-0.02,1.24
26.71165704727173,-0.35,0.24,-0.31,0.52
26.721821784973145,-0.37,-0.08,-0.32,0.49
26.741760969161987,-0.43,-0.2,-0.29,0.55
26.74212408065796,-0.53,-0.21,-0.22,0.61
26.751637935638428,-0.51,-0.11,-0.19,0.55
26.76524305343628,-0.27,-0.04,-0.25,0.37
26.77195692062378,-0.07,-0.04,-0.27,0.28
26.792171001434326,-0.04,-0.02,-0.18,0.18
26.792547941207886,-0.02,0.0,-0.12,0.12
26.801939964294434,-0.2,-0.09,-0.12,0.25
26.81166696548462,-0.36,-0.17,-0.1,0.41
26.82191491127014,-0.31,-0.15,-0.03,0.34
26.84220290184021,-0.11,-0.1,0.06,0.16
26.842586994171143,0.03,-0.06,0.18,0.19
26.851830005645752,-0.02,-0.05,-0.05,0.07
26.86171007156372,-0.1,-0.15,0.0,0.18
26.871807098388672,-0.08,-0.07,-0.07,0.12
26.892306804656982,0.07,-0.1,-0.09,0.15
26.892674922943115,0.01,0.05,0.19,0.19
26.901994943618774,-0.26,0.44,0.46,0.68
26.911666870117188,-0.28,0.67,0.53,0.89
26.921889781951904,-0.34,0.84,0.57,1.07
26.9426908493042,-0.33,1.22,0.65,1.42
26.943062782287598,-0.28,1.57,0.76,1.76
26.951934814453125,-0.09,1.63,0.66,1.76
26.96174693107605,0.32,1.56,0.28,1.61
26.971993923187256,0.76,1.37,-0.08,1.56
26.992702960968018,0.91,1.33,-0.22,1.62
26.993062019348145,0.74,1.23,-0.38,1.48
27.00196099281311,0.64,0.93,-0.6,1.27
27.011759757995605,0.72,0.78,-0.68,1.26
27.022007942199707,0.83,0.65,-0.78,1.31
27.042282104492188,0.8,0.51,-0.81,1.24
27.042644023895264,0.72,0.52,-0.79,1.18
27.05199694633484,0.51,0.53,-0.58,0.93
27.061800956726074,0.35,0.41,-0.41,0.67
27.071935892105103,0.29,-0.02,-0.5,0.57
27.09200382232666,0.25,-0.49,-0.85,1.01
27.092366933822632,0.26,-0.95,-1.22,1.56
27.101963996887207,0.44,-1.19,-1.48,1.94
27.11183500289917,0.82,-1.38,-1.52,2.21
27.12190890312195,1.17,-1.38,-1.47,2.33
27.14065408706665,1.27,-1.24,-1.2,2.14
27.14178490638733,1.2,-0.86,-0.88,1.71
27.15189790725708,1.16,-0.5,-0.56,1.38
27.16175889968872,1.29,-0.41,-0.29,1.38
27.17198896408081,1.37,-0.24,-0.23,1.4
27.191855907440186,1.23,-0.01,-0.15,1.23
27.19224190711975,1.14,0.17,0.01,1.15
27.201873779296875,1.17,0.47,0.21,1.27
27.21190094947815,1.37,0.99,0.49,1.75
27.22190499305725,1.84,1.31,0.78,2.38
27.2416889667511,2.13,1.3,0.97,2.67
27.24205994606018,2.23,1.21,1.03,2.73
27.251818895339966,1.99,1.15,0.98,2.49
27.2619309425354,1.55,1.03,0.86,2.05
27.2720308303833,1.06,0.75,0.88,1.56
27.292438983917236,0.95,0.28,1.15,1.51
27.292826890945435,1.29,-0.17,1.47,1.96
27.302016973495483,1.78,-0.56,1.5,2.39
27.31190299987793,2.08,-0.84,1.42,2.65
27.322052001953125,2.13,-0.97,1.33,2.69
27.342400074005127,2.27,-0.79,1.19,2.68
27.34273910522461,2.27,-0.56,0.99,2.53
27.351964950561523,2.13,-0.41,0.77,2.3
27.36677885055542,2.0,-0.23,0.52,2.07
27.371984004974365,1.7,-0.38,0.45,1.79
27.392198085784912,1.21,-0.58,0.57,1.45
27.392570972442627,1.07,-0.72,0.63,1.43
27.40197992324829,1.18,-0.67,0.62,1.49
27.411756992340088,1.6,-0.68,0.51,1.81
27.42209792137146,1.81,-0.72,0.32,1.97
27.442365884780884,1.35,-0.56,0.28,1.48
27.442741870880127,1.03,-0.31,0.15,1.08
27.45220398902893,0.78,0.03,-0.36,0.85
27.46201801300049,0.63,0.52,-0.68,1.06
27.472047805786133,0.62,0.59,-0.86,1.21
27.491939067840576,0.5,0.35,-0.97,1.14
27.492313861846924,0.31,-0.02,-1.11,1.15
27.502031803131104,0.27,-0.17,-1.35,1.38
27.512210845947266,0.11,-0.13,-1.71,1.71
27.522100925445557,-0.17,0.1,-2.08,2.08
27.54290199279785,-0.43,0.07,-2.37,2.4
27.543270111083984,-0.49,0.01,-2.53,2.57
27.552032947540283,-0.23,0.03,-2.66,2.67
27.562172889709473,-0.07,0.18,-2.66,2.66
27.5720157623291,0.24,0.15,-2.51,2.52
27.593074798583984,0.63,-0.02,-2.23,2.31
27.593440055847168,0.94,-0.33,-2.04,2.27
27.602192878723145,1.08,-0.58,-2.05,2.38
27.61221194267273,1.05,-0.72,-2.24,2.57
27.622057914733887,1.21,-0.77,-2.47,2.85
27.64421796798706,1.41,-0.53,-2.61,3.01
27.6445529460907,1.3,-0.14,-2.61,2.91
27.6519718170166,0.14,0.13,-2.0,2.0
27.662322998046875,-3.66,-0.02,0.2,3.66
27.671982765197754,-3.84,0.21,1.23,4.03
27.694087028503418,-2.43,0.52,1.11,2.72
27.694456100463867,-1.6,0.96,0.92,2.08
27.702157974243164,-1.2,1.0,1.24,1.99
27.712413787841797,-0.95,0.75,1.51,1.93
27.722095012664795,-0.57,0.55,1.34,1.55
27.743889808654785,-0.38,0.34,0.79,0.94
27.74425196647644,-0.21,0.29,-0.11,0.37
27.752136945724487,2.79,-0.26,-3.48,4.46
27.762516021728516,5.67,-1.14,-5.33,7.86
27.772160053253174,0.78,0.49,-0.4,1.0
27.79368782043457,0.14,1.33,-1.0,1.66
27.794092893600464,-0.99,0.61,-1.29,1.73
27.802162885665894,-0.71,0.83,-0.37,1.15
27.812696933746338,-0.23,1.05,0.45,1.16
27.822178840637207,0.08,1.43,1.18,1.85
27.843822956085205,0.31,1.68,1.35,2.17
27.844191074371338,0.41,1.18,0.98,1.58
27.852086067199707,0.01,0.81,0.74,1.09
27.862751960754395,-0.6,0.87,0.42,1.13
27.872212886810303,-0.61,0.75,-0.4,1.04
27.893746852874756,-0.31,0.79,-0.62,1.05
27.894121885299683,-0.41,1.13,-0.05,1.2
27.902127981185913,-0.03,1.78,0.55,1.86
27.912170886993408,0.32,1.85,1.01,2.13
27.924742937088013,-0.17,1.88,1.03,2.15
27.932176113128662,-0.69,1.96,1.17,2.38
27.942105770111084,-0.3,0.94,1.18,1.53
27.95213794708252,-0.3,0.81,0.63,1.06
27.962162971496582,0.73,-0.2,-0.42,0.86
27.97685194015503,1.06,-0.29,-1.3,1.7
27.982114791870117,0.47,-0.48,-1.91,2.02
27.99217987060547,-0.14,-0.93,-1.65,1.89
28.002177953720093,0.09,-1.33,-1.57,2.05
28.01220178604126,1.46,-0.51,-1.04,1.86
28.02765393257141,2.26,2.28,1.13,3.4
28.03206992149353,0.91,2.86,3.56,4.65
28.04215908050537,0.36,2.41,4.31,4.95
28.05217981338501,-0.4,3.0,3.58,4.68
28.06211280822754,-0.91,2.47,1.86,3.22
28.078304767608643,-1.16,1.2,0.24,1.68
28.081995964050293,-1.07,-0.15,-1.45,1.8
28.09216594696045,-0.57,-1.27,-2.56,2.91
28.102263927459717,-0.38,-2.4,-2.97,3.83
28.112189769744873,-0.51,-3.85,-2.93,4.86
28.129342079162598,-1.02,-4.98,-3.04,5.92
28.132056951522827,-0.64,-4.71,-3.31,5.79
28.142302989959717,-0.73,-3.76,-3.08,4.91
28.15211009979248,-1.01,-2.37,-1.71,3.09
28.162271976470947,-0.33,-0.73,-0.5,0.94
28.179897785186768,-0.1,-0.15,-0.1,0.2
28.18199586868286,-0.29,-0.25,-0.24,0.45
28.192235946655273,-0.67,-0.86,-0.91,1.42
28.202162981033325,-1.16,-1.94,-1.77,2.87
28.21219491958618,-1.27,-2.89,-2.64,4.11
28.228904962539673,-1.2,-3.33,-2.91,4.58
28.23205804824829,-0.84,-3.37,-1.9,3.95
28.242269039154053,0.45,-2.69,-1.96,3.35
28.252311944961548,1.24,-2.84,-2.23,3.81
28.258344888687134,2.07,-3.76,-2.46,4.94
28.27662181854248,2.14,-4.66,-2.72,5.8
28.278210878372192,1.39,-3.43,-3.42,5.03
28.288333892822266,-1.61,0.38,-1.39,2.16
28.298301935195923,-3.64,2.76,-1.59,4.83
28.30847692489624,-4.2,1.75,-1.71,4.86
28.326645851135254,-2.41,-0.01,-1.22,2.7
28.32829189300537,-0.45,-0.65,0.4,0.88
28.338547945022583,0.18,0.49,4.43,4.46
28.34844994544983,0.27,1.6,6.26,6.46
28.358670949935913,-0.59,1.79,5.68,5.98
28.377163887023926,-1.53,1.19,4.58,4.97
28.378257989883423,-1.68,0.51,3.27,3.71
28.388539791107178,-1.15,0.28,2.03,2.34
28.39840793609619,-0.22,0.31,0.94,1.01
28.40840482711792,0.56,0.49,0.08,0.74
28.427083015441895,0.73,0.54,-0.37,0.98
28.4284610748291,0.53,0.47,-0.34,0.78
28.43881392478943,0.25,0.34,0.06,0.42
28.448392868041992,0.13,0.41,0.37,0.56
28.4584538936615,0.1,0.59,0.5,0.77
28.47758388519287,0.11,0.64,0.41,0.76
28.4785418510437,0.06,0.75,0.34,0.82
28.488630771636963,-0.18,1.07,0.39,1.15
28.498451948165894,-0.09,1.06,0.53,1.18
28.508531093597412,0.17,0.74,0.74,1.06
28.528101921081543,0.45,0.43,0.85,1.05
28.528650760650635,0.55,0.34,0.82,1.04
28.53852891921997,0.5,0.57,0.41,0.86
28.548460960388184,0.4,0.7,-0.32,0.86
28.558629035949707,0.26,0.54,-1.07,1.22
28.5783588886261,0.17,0.38,-1.38,1.44
28.578728914260864,0.18,0.3,-0.97,1.03
28.58855676651001,0.23,0.28,-0.14,0.38
28.59841775894165,0.19,0.24,0.6,0.67
28.608452796936035,0.21,0.12,1.02,1.04
28.630980014801025,0.12,-0.01,1.22,1.22
28.63134789466858,-0.01,-0.14,1.12,1.12
28.63993787765503,-0.04,-0.31,0.83,0.88
28.649734020233154,0.16,-0.44,0.43,0.63
28.65989398956299,0.18,-0.19,-0.07,0.27
28.67854881286621,0.02,0.07,-0.76,0.76
28.679748058319092,0.07,0.23,-1.2,1.22
28.689790964126587,0.17,0.3,-1.12,1.17
28.69979190826416,0.18,0.48,-0.61,0.79
28.70975399017334,0.25,0.53,-0.13,0.6
28.729011058807373,0.35,0.43,0.03,0.55
28.72964096069336,0.38,0.4,0.07,0.55
28.739977836608887,0.44,0.39,-0.03,0.58
