time,ax,ay,az,atotal
0.038459062576293945,-0.2,0.14,0.04,0.24
0.03884601593017578,-0.28,-0.02,0.34,0.44
0.039299964904785156,-0.2,-0.06,0.57,0.6
0.03966689109802246,-0.08,-0.11,0.44,0.46
0.04191708564758301,-0.03,-0.05,0.04,0.07
0.05369210243225098,-0.03,0.02,-0.25,0.25
0.06219887733459473,-0.1,0.02,-0.28,0.29
0.07212281227111816,-0.11,-0.01,-0.09,0.14
0.08210587501525879,-0.09,-0.06,0.06,0.12
0.09204888343811035,-0.09,-0.08,0.1,0.15
0.10381913185119629,-0.06,-0.09,0.1,0.14
0.11217999458312988,-0.11,-0.1,0.06,0.16
0.12227392196655273,-0.12,-0.08,0.05,0.15
0.13240694999694824,-0.09,-0.05,0.08,0.13
0.1422560214996338,-0.06,-0.04,0.13,0.14
0.15538811683654785,0.0,0.0,0.14,0.14
0.16220879554748535,0.01,0.04,0.06,0.07
0.1722879409790039,-0.01,0.02,-0.02,0.03
0.18265986442565918,-0.03,0.02,0.01,0.03
0.19236493110656738,-0.05,0.02,0.07,0.08
0.20635199546813965,-0.08,0.04,0.2,0.21
0.21241092681884766,-0.06,0.08,0.28,0.29
0.22242283821105957,-0.09,0.08,0.3,0.32
0.23270702362060547,-0.08,0.03,0.22,0.23
0.24329304695129395,-0.03,-0.05,0.12,0.13
0.26039600372314453,0.05,-0.08,0.13,0.16
0.26244282722473145,0.09,-0.1,0.15,0.2
0.2724609375,0.08,-0.15,0.17,0.24
0.2840120792388916,0.06,-0.14,0.22,0.26
0.29253411293029785,0.01,-0.11,0.26,0.28
0.3063681125640869,-0.06,-0.12,0.26,0.29
0.3124268054962158,-0.08,-0.1,0.33,0.35
0.32244396209716797,-0.08,-0.08,0.4,0.41
0.3345170021057129,-0.05,-0.09,0.41,0.42
0.3424489498138428,-0.04,-0.06,0.37,0.37
0.3574869632720947,0.03,0.04,0.31,0.31
0.36232900619506836,0.09,0.13,0.25,0.29
0.37252211570739746,0.12,0.15,0.24,0.3
0.38456296920776367,0.1,0.08,0.18,0.22
0.3928258419036865,0.11,-0.06,0.14,0.18
0.40809082984924316,0.1,-0.17,0.18,0.26
0.412477970123291,0.09,-0.28,0.27,0.39
0.4233379364013672,0.13,-0.37,0.36,0.53
0.434175968170166,0.14,-0.43,0.37,0.58
0.44284892082214355,0.12,-0.44,0.3,0.54
0.45802903175354004,0.1,-0.43,0.26,0.51
0.462479829788208,0.05,-0.36,0.26,0.44
0.4731738567352295,0.02,-0.28,0.27,0.38
0.4843709468841553,-0.02,-0.21,0.35,0.4
0.4930260181427002,-0.04,-0.19,0.48,0.51
0.5084288120269775,-0.07,-0.11,0.73,0.74
0.5125110149383545,0.01,0.0,0.92,0.92
0.5233800411224365,0.0,0.03,0.9,0.9
0.534661054611206,0.04,-0.04,0.84,0.84
0.5430469512939453,0.11,-0.11,0.86,0.87
0.5583798885345459,0.14,-0.31,0.97,1.02
0.5625779628753662,0.02,-0.62,0.94,1.12
0.5732429027557373,-0.04,-0.9,0.82,1.21
0.5843169689178467,-0.14,-1.24,0.62,1.39
0.5930559635162354,-0.1,-1.58,0.46,1.64
0.6087558269500732,-0.05,-1.81,0.37,1.84
0.6125528812408447,-0.05,-1.93,0.38,1.96
0.6233088970184326,-0.21,-1.87,0.65,1.99
0.6349029541015625,-0.43,-1.65,1.13,2.04
0.6430580615997314,-0.75,-1.44,1.52,2.22
0.6594851016998291,-1.1,-1.15,1.64,2.28
0.6625988483428955,-1.26,-0.72,1.74,2.26
0.6732289791107178,-1.47,-0.24,1.67,2.23
0.6846039295196533,-1.48,0.25,1.47,2.1
0.6930909156799316,-1.42,0.73,1.29,2.05
0.7079899311065674,-1.34,1.16,1.2,2.14
0.7126429080963135,-1.29,1.52,1.1,2.27
0.7232849597930908,-1.34,1.75,1.04,2.43
0.7348201274871826,-1.18,1.83,1.1,2.43
0.743096113204956,-0.84,1.67,1.24,2.24
0.7583138942718506,-0.55,1.2,1.24,1.81
0.7625799179077148,-0.28,0.62,1.21,1.38
0.7732419967651367,-0.06,0.06,1.27,1.27
0.7828190326690674,0.14,-0.53,1.33,1.43
0.7960939407348633,0.19,-1.15,1.36,1.79
0.8026421070098877,0.36,-1.69,1.53,2.3
0.8125550746917725,0.49,-2.13,1.75,2.79
0.8232290744781494,0.42,-2.4,1.89,3.08
0.8328220844268799,0.3,-2.54,1.93,3.2
0.8462498188018799,0.19,-2.54,1.96,3.21
0.8525369167327881,0.04,-2.37,1.94,3.06
0.8633890151977539,-0.25,-2.09,1.84,2.79
0.8732399940490723,-0.56,-1.75,1.69,2.49
0.8851311206817627,-0.64,-1.42,1.66,2.27
0.8929450511932373,-0.67,-1.18,1.73,2.19
0.9084360599517822,-0.65,-0.96,1.82,2.15
0.9126479625701904,-0.57,-0.78,1.85,2.08
0.9233200550079346,-0.57,-0.55,1.78,1.94
0.9330260753631592,-0.58,-0.25,1.74,1.85
0.9457619190216064,-0.59,0.09,1.67,1.77
0.9526588916778564,-0.6,0.36,1.66,1.8
0.9625809192657471,-0.53,0.59,1.63,1.81
0.973146915435791,-0.55,0.69,1.52,1.75
0.9830977916717529,-0.49,0.8,1.42,1.7
0.9965260028839111,-0.46,0.93,1.37,1.71
1.0026259422302246,-0.5,1.02,1.26,1.69
1.0132339000701904,-0.45,1.02,1.16,1.6
1.0234339237213135,-0.37,0.95,1.01,1.43
1.0332448482513428,-0.39,0.84,0.82,1.23
1.047921895980835,-0.38,0.78,0.66,1.09
1.0528481006622314,-0.32,0.68,0.61,0.96
1.0626540184020996,-0.29,0.6,0.73,0.98
1.0733768939971924,-0.22,0.66,0.99,1.21
1.0833051204681396,-0.19,0.87,1.36,1.62
1.097235918045044,-0.15,1.15,1.73,2.08
1.102741003036499,-0.14,1.47,1.99,2.47
1.1133058071136475,-0.24,1.77,2.1,2.75
1.1234159469604492,-0.23,2.06,2.09,2.94
1.1332371234893799,-0.27,2.3,1.85,2.96
1.147735834121704,-0.31,2.53,1.45,2.93
1.152764081954956,-0.38,2.68,0.97,2.87
1.1634471416473389,-0.35,2.74,0.44,2.79
1.1734700202941895,-0.37,2.73,-0.08,2.75
1.1833570003509521,-0.38,2.62,-0.62,2.71
1.1977651119232178,-0.35,2.26,-1.08,2.52
1.202829122543335,-0.39,1.69,-1.37,2.21
1.2134089469909668,-0.19,0.96,-1.51,1.79
1.2232639789581299,0.09,0.11,-1.51,1.51
1.2335917949676514,0.28,-0.75,-1.45,1.65
1.2483808994293213,0.51,-1.47,-1.41,2.09
1.2528150081634521,0.65,-2.06,-1.29,2.51
1.2628049850463867,0.82,-2.49,-1.03,2.81
1.2732760906219482,1.08,-2.67,-0.69,2.96
1.2830309867858887,1.26,-2.71,-0.36,3.01
1.2964098453521729,1.3,-2.54,-0.15,2.85
1.3027098178863525,1.28,-1.98,-0.04,2.35
1.3127570152282715,1.37,-1.04,0.05,1.72
1.3237378597259521,1.12,-0.24,0.09,1.14
1.3331100940704346,0.88,0.28,0.13,0.93
1.3461909294128418,0.72,0.57,0.16,0.93
1.3526949882507324,0.49,0.62,0.12,0.79
1.3628361225128174,0.31,0.59,-0.08,0.67
1.373291015625,0.18,0.42,-0.28,0.53
1.383086919784546,0.17,0.2,-0.25,0.36
1.396925926208496,0.09,0.06,0.05,0.11
1.4027760028839111,-0.07,-0.18,0.41,0.45
1.4128389358520508,-0.02,-0.57,0.71,0.91
1.4235670566558838,0.09,-1.11,0.88,1.41
1.4333751201629639,0.19,-1.71,0.89,1.93
1.4470717906951904,0.32,-2.21,0.84,2.38
1.4527649879455566,0.37,-2.59,0.74,2.71
1.46356201171875,0.39,-2.87,0.61,2.95
1.473417043685913,0.36,-3.07,0.56,3.14
1.4836161136627197,0.29,-3.13,0.53,3.18
1.4981110095977783,0.26,-3.02,0.6,3.08
1.5028839111328125,0.24,-2.84,0.68,2.93
1.5136189460754395,0.28,-2.55,0.88,2.71
1.523507833480835,0.32,-2.28,1.1,2.55
1.5334069728851318,0.34,-2.02,1.31,2.43
1.547313928604126,0.49,-1.63,1.49,2.26
1.5527288913726807,0.49,-1.15,1.5,1.95
1.5628249645233154,0.37,-0.6,1.45,1.61
1.5736548900604248,0.35,0.14,1.44,1.48
1.5830838680267334,0.31,0.89,1.51,1.77
1.5964059829711914,0.17,1.5,1.62,2.21
1.602815866470337,0.04,2.05,1.7,2.66
1.6135609149932861,-0.1,2.47,1.64,2.96
1.6235339641571045,-0.29,2.67,1.38,3.01
1.6332581043243408,-0.46,2.71,1.03,2.93
1.647481918334961,-0.46,2.68,0.89,2.86
1.6530048847198486,-0.44,2.48,0.93,2.68
1.6636579036712646,-0.26,2.17,0.99,2.39
1.6736581325531006,0.08,2.09,1.12,2.37
1.6834490299224854,0.37,2.43,1.63,2.94
1.6977009773254395,0.47,2.7,2.22,3.52
1.7029540538787842,0.32,2.52,2.35,3.46
1.7128918170928955,0.29,1.9,1.83,2.65
1.7236409187316895,0.38,1.62,1.23,2.06
1.7335760593414307,0.41,1.57,0.84,1.82
1.747859001159668,0.11,1.27,0.51,1.37
1.7529079914093018,-0.09,0.76,0.12,0.77
1.7636539936065674,-0.33,0.36,-0.37,0.61
1.773522138595581,-0.69,0.06,-0.96,1.18
1.783531904220581,-0.86,-0.23,-1.44,1.69
1.798292875289917,-0.99,-0.44,-1.62,1.94
1.8031809329986572,-1.26,-0.46,-1.53,2.03
1.8136169910430908,-1.64,-0.28,-1.28,2.09
1.8235960006713867,-1.86,0.07,-0.9,2.06
1.8336129188537598,-1.82,0.41,-0.47,1.92
1.8485379219055176,-1.76,0.68,-0.03,1.88
1.852989912033081,-1.62,0.81,0.37,1.84
1.863011121749878,-1.28,0.6,0.54,1.51
1.8736629486083984,-0.8,0.13,0.56,0.98
1.8834879398345947,-0.27,-0.56,0.42,0.75
1.8977429866790771,0.14,-1.25,0.16,1.26
1.9031078815460205,0.33,-1.86,-0.14,1.89
1.9137070178985596,0.32,-2.39,-0.48,2.45
1.9237010478973389,0.38,-2.88,-0.75,3.0
1.93373703956604,0.46,-3.38,-0.92,3.53
1.9486548900604248,0.41,-3.86,-1.02,4.01
1.9531469345092773,0.29,-4.21,-0.98,4.33
1.9636340141296387,0.18,-4.27,-0.74,4.33
1.9736778736114502,0.09,-4.07,-0.4,4.09
1.9836759567260742,-0.05,-3.72,-0.07,3.72
1.9987528324127197,-0.14,-3.28,0.23,3.29
2.003153085708618,-0.24,-2.72,0.48,2.77
2.013852834701538,-0.24,-2.06,0.7,2.18
2.0238020420074463,-0.29,-1.38,0.76,1.6
2.033508062362671,-0.42,-0.75,0.62,1.05
2.048271894454956,-0.54,-0.18,0.37,0.67
2.053105115890503,-0.65,0.4,0.0,0.76
2.0631110668182373,-0.82,0.94,-0.25,1.27
2.0737109184265137,-0.86,1.5,-0.27,1.75
2.083688974380493,-0.93,2.03,0.02,2.23
2.0974550247192383,-1.13,2.46,0.59,2.77
2.1031100749969482,-1.23,2.78,1.17,3.25
2.113023042678833,-1.16,2.99,1.61,3.58
2.12369704246521,-0.99,2.99,1.84,3.64
2.1338441371917725,-0.88,2.8,1.79,3.43
2.148077964782715,-0.67,2.59,1.56,3.09
2.1531550884246826,-0.51,2.45,1.32,2.82
2.1637749671936035,-0.41,2.51,1.25,2.83
2.1737210750579834,-0.3,2.63,1.48,3.03
2.1837360858917236,-0.1,2.67,1.75,3.19
2.198568105697632,0.06,2.6,1.61,3.05
2.203091859817505,0.38,2.12,0.96,2.35
2.213758945465088,1.14,1.56,0.16,1.93
2.2237119674682617,1.65,1.39,-0.29,2.17
2.2338240146636963,1.69,1.4,-0.32,2.21
2.249229907989502,1.51,1.13,-0.35,1.91
2.2532119750976562,1.26,0.64,-0.56,1.52
2.263775110244751,1.18,0.22,-0.86,1.47
2.2738609313964844,1.06,-0.17,-1.15,1.57
2.2836310863494873,1.04,-0.43,-1.36,1.76
2.2981808185577393,1.12,-0.61,-1.37,1.87
2.3032000064849854,1.17,-0.73,-1.34,1.92
2.313102960586548,1.28,-0.74,-1.28,1.95
2.3236329555511475,1.32,-0.56,-1.22,1.88
2.3335320949554443,1.42,0.04,-1.06,1.77
2.346858024597168,1.39,0.72,-0.66,1.69
2.353080987930298,1.07,0.93,-0.22,1.43
2.363147020339966,0.71,0.9,0.04,1.14
2.373668909072876,0.34,0.77,-0.03,0.84
2.3835949897766113,-0.1,0.51,-0.34,0.62
2.396989107131958,-0.54,-0.01,-0.67,0.86
2.4030399322509766,-0.8,-0.66,-0.76,1.28
2.4131429195404053,-0.96,-1.37,-0.64,1.79
2.42391300201416,-0.99,-2.08,-0.48,2.35
2.433656930923462,-0.9,-2.72,-0.3,2.88
2.447888135910034,-0.77,-3.28,-0.2,3.37
2.4532930850982666,-0.65,-3.78,-0.24,3.84
2.463826894760132,-0.38,-4.05,-0.35,4.08
2.4738729000091553,-0.17,-4.0,-0.3,4.01
2.4839107990264893,-0.13,-3.74,-0.13,3.74
2.4982059001922607,-0.13,-3.33,0.04,3.33
2.503300905227661,-0.2,-2.91,0.15,2.92
2.5138750076293945,-0.15,-2.49,0.22,2.5
2.5237820148468018,0.03,-2.13,0.22,2.14
2.533766984939575,0.22,-1.82,0.23,1.84
2.5482780933380127,0.4,-1.56,0.29,1.63
2.553360939025879,0.57,-1.29,0.33,1.44
2.5640389919281006,0.7,-0.96,0.31,1.22
2.5739729404449463,0.68,-0.45,0.35,0.88
2.584007978439331,0.61,0.29,0.65,0.93
2.5974509716033936,0.52,1.11,1.12,1.66
2.6031911373138428,0.28,1.87,1.56,2.45
2.613219976425171,-0.04,2.51,1.86,3.12
2.6238977909088135,-0.42,2.89,1.88,3.47
2.6337199211120605,-0.73,2.93,1.68,3.45
2.64789080619812,-0.88,2.75,1.41,3.21
2.6532838344573975,-0.47,2.84,1.17,3.1
2.6638989448547363,-0.13,3.33,1.16,3.52
2.6739718914031982,-0.12,3.74,1.35,3.97
2.6837589740753174,-0.07,4.01,1.37,4.23
2.6989858150482178,-0.23,4.01,0.96,4.12
2.7033979892730713,-0.46,3.77,0.2,3.8
2.713999032974243,-0.6,3.3,-0.56,3.4
2.7239468097686768,-0.83,2.64,-1.05,2.95
2.7338178157806396,-1.1,1.83,-1.35,2.52
2.747596025466919,-1.2,0.92,-1.64,2.23
2.7532360553741455,-1.11,0.06,-1.79,2.1
2.763988971710205,-1.01,-0.53,-1.65,2.0
2.773935079574585,-0.91,-0.86,-1.12,1.67
2.78381609916687,-1.02,-1.0,-0.56,1.53
2.7987678050994873,-1.39,-1.03,-0.18,1.73
2.803344964981079,-1.49,-0.89,0.08,1.73
2.8132541179656982,-1.37,-0.56,0.21,1.49
2.8241169452667236,-1.17,-0.16,0.27,1.21
2.8338630199432373,-0.85,0.2,0.32,0.93
2.847450017929077,-0.56,0.32,0.34,0.72
2.8532378673553467,-0.34,0.22,0.15,0.43
2.8640170097351074,-0.12,0.05,-0.3,0.32
2.8740108013153076,0.08,-0.12,-0.86,0.87
2.883862018585205,0.29,-0.43,-1.35,1.44
2.8977458477020264,0.43,-1.02,-1.65,1.98
2.9032981395721436,0.51,-1.72,-1.76,2.51
2.913902997970581,0.49,-2.42,-1.6,2.94
2.924015998840332,0.41,-3.0,-1.24,3.27
2.9338490962982178,0.23,-3.35,-0.8,3.45
2.9481937885284424,0.05,-3.47,-0.26,3.48
2.9534947872161865,-0.09,-3.37,0.19,3.37
2.964121103286743,-0.18,-3.09,0.59,3.15
2.9739270210266113,-0.33,-2.74,0.94,2.91
2.983747959136963,-0.53,-2.28,1.14,2.6
2.997485876083374,-0.75,-1.72,1.14,2.19
3.003325939178467,-0.88,-1.29,0.92,1.81
3.014094114303589,-0.69,-1.08,0.49,1.37
3.02406907081604,-0.41,-0.93,0.0,1.01
3.0339059829711914,-0.07,-0.81,-0.6,1.01
3.0486109256744385,0.32,-0.63,-1.17,1.36
3.053480863571167,0.5,-0.48,-1.55,1.69
3.064131021499634,0.57,-0.32,-1.58,1.7
3.0741260051727295,0.6,-0.09,-1.18,1.32
3.083847999572754,0.48,0.38,-0.4,0.73
3.098602056503296,0.27,1.11,0.47,1.23
3.1034579277038574,0.13,1.94,1.25,2.31
3.1140830516815186,-0.11,2.44,1.76,3.01
3.124150037765503,-0.08,2.83,1.88,3.39
3.134063959121704,-0.18,2.79,1.64,3.24
3.148056983947754,-0.27,2.58,1.3,2.9
3.153378963470459,-0.23,2.65,1.13,2.89
3.1640539169311523,-0.22,3.03,1.23,3.27
3.1740880012512207,-0.38,3.45,1.36,3.72
3.1838958263397217,-0.34,3.81,1.36,4.05
3.1987240314483643,-0.12,3.85,1.25,4.04
3.2035748958587646,0.33,3.59,1.11,3.77
3.2141199111938477,0.7,3.03,0.85,3.22
3.2241249084472656,0.8,2.08,0.45,2.27
3.234041929244995,0.82,1.11,-0.12,1.38
3.248433828353882,0.92,0.6,-0.92,1.43
3.253546953201294,0.88,0.31,-1.61,1.86
3.2635319232940674,0.92,0.0,-2.02,2.21
3.2742669582366943,0.94,-0.27,-2.1,2.31
3.284235954284668,0.91,-0.57,-1.96,2.23
3.2981770038604736,0.97,-0.8,-1.81,2.2
3.3034398555755615,1.02,-0.96,-1.53,2.07
3.3135688304901123,1.09,-0.89,-1.02,1.73
3.324259042739868,1.13,-0.73,-0.41,1.4
3.3345978260040283,0.89,-0.98,0.11,1.32
3.3481390476226807,0.68,-1.37,0.36,1.57
3.353411912918091,0.2,-1.63,0.24,1.65
3.3642170429229736,-0.29,-1.71,-0.16,1.74
3.3741610050201416,-0.78,-1.82,-0.57,2.06
3.3840911388397217,-1.16,-2.06,-0.81,2.49
3.3979170322418213,-1.27,-2.34,-0.82,2.78
3.403434991836548,-1.14,-2.63,-0.61,2.93
3.4142467975616455,-0.96,-2.82,-0.42,3.0
3.4240190982818604,-0.6,-2.94,-0.27,3.01
3.4337949752807617,-0.21,-3.11,-0.3,3.13
3.4472110271453857,0.14,-3.17,-0.41,3.19
3.453407049179077,0.36,-3.0,-0.56,3.07
3.46425199508667,0.63,-2.79,-0.53,2.9
3.474045991897583,0.73,-2.36,-0.36,2.49
3.4839329719543457,0.76,-1.98,-0.16,2.12
3.4974029064178467,0.61,-1.62,0.26,1.75
3.503420114517212,0.56,-1.13,0.74,1.46
3.5135109424591064,0.23,-0.68,0.92,1.16
3.52433705329895,0.13,-0.31,1.02,1.07
3.5341830253601074,0.13,0.09,1.07,1.08
3.5480988025665283,0.22,0.38,1.05,1.13
3.553555965423584,0.36,0.6,1.22,1.4
3.5636370182037354,0.44,0.79,1.5,1.75
3.574368953704834,0.41,1.07,1.72,2.06
3.584368944168091,0.3,1.46,1.95,2.45
3.5985748767852783,0.35,1.79,2.05,2.74
3.6036059856414795,0.17,1.92,1.79,2.63
3.6136369705200195,-0.21,2.44,1.36,2.8
3.624105930328369,-0.25,3.05,0.94,3.2
3.6341469287872314,-0.09,3.51,0.62,3.56
3.6473548412323,0.26,3.8,0.57,3.85
3.6534950733184814,0.57,4.18,0.62,4.26
3.66426682472229,0.4,4.21,0.6,4.27
3.6742961406707764,-0.03,3.97,0.22,3.97
3.684345006942749,-0.35,3.6,-0.34,3.63
3.6979610919952393,-0.7,3.2,-0.51,3.31
3.7035439014434814,-1.16,2.27,-0.39,2.57
3.7143149375915527,-1.24,1.28,-0.49,1.84
3.72426700592041,-1.31,0.43,-1.0,1.7
3.734055995941162,-1.31,-0.17,-1.29,1.84
3.7476561069488525,-1.36,-0.47,-1.26,1.91
3.7535808086395264,-1.68,-0.57,-1.1,2.08
3.764251947402954,-1.72,-0.57,-0.91,2.02
3.7741940021514893,-1.74,-0.56,-0.86,2.02
3.784466028213501,-1.45,-0.32,-0.81,1.69
3.798337936401367,-1.05,0.09,-0.78,1.31
3.803581953048706,-0.87,0.44,-0.65,1.17
3.8143351078033447,-0.59,0.56,-0.44,0.92
3.824329137802124,-0.08,0.42,-0.25,0.49
3.8342931270599365,0.28,0.07,-0.11,0.3
3.8477909564971924,0.47,-0.37,-0.06,0.6
3.8536570072174072,0.44,-0.87,-0.18,0.99
3.864362955093384,0.31,-1.47,-0.36,1.54
3.8744261264801025,0.38,-2.23,-0.62,2.34
3.884300947189331,0.76,-2.48,-0.71,2.68
3.8974599838256836,0.57,-3.15,-0.8,3.29
3.9036879539489746,0.88,-3.59,-0.85,3.79
3.914397954940796,0.83,-4.01,-0.77,4.16
3.9244039058685303,0.7,-4.23,-0.7,4.34
3.933962106704712,0.46,-4.09,-0.53,4.14
3.9469029903411865,0.35,-3.68,-0.27,3.7
3.953831911087036,0.06,-3.22,-0.05,3.22
3.9645049571990967,-0.08,-2.68,0.16,2.68
3.9743030071258545,-0.08,-2.2,0.25,2.21
3.9842259883880615,-0.28,-1.82,0.25,1.85
3.998274087905884,-0.38,-1.28,0.11,1.33
4.003814935684204,-0.52,-0.74,-0.05,0.9
4.013098955154419,-0.7,-0.23,-0.12,0.74
4.0230419635772705,-0.77,0.22,0.06,0.8
4.033183813095093,-0.71,0.67,0.53,1.11
4.046705007553101,-0.59,1.16,1.19,1.76
4.05252480506897,-0.35,1.59,1.71,2.36
4.063184022903442,-0.35,1.89,1.9,2.7
4.0728819370269775,-0.47,2.22,1.73,2.85
4.083110094070435,-0.75,2.56,1.43,3.02
4.096369028091431,-0.92,2.72,1.01,3.04
4.102484941482544,-0.98,2.72,0.64,2.96
4.113317012786865,-0.96,2.83,0.55,3.03
4.123041868209839,-0.83,3.15,0.93,3.38
4.133019924163818,-0.58,3.42,1.52,3.78
4.146859884262085,-0.45,3.33,1.56,3.7
4.1531288623809814,0.28,2.86,0.86,2.99
4.163123846054077,1.03,2.36,-0.06,2.57
4.173282861709595,1.32,2.44,-0.41,2.8
4.182862043380737,1.08,2.2,-0.43,2.48
4.198490858078003,0.89,1.49,-0.48,1.8
4.2027599811553955,1.03,0.65,-0.86,1.49
4.213134050369263,1.13,-0.05,-1.4,1.79
4.2231059074401855,1.18,-0.49,-1.64,2.07
4.233052015304565,1.27,-0.68,-1.62,2.16
4.2486560344696045,1.38,-0.71,-1.45,2.12
4.252871990203857,1.5,-0.57,-1.25,2.03
4.263324022293091,1.65,-0.42,-1.1,2.02
4.273022890090942,1.56,-0.1,-0.89,1.79
4.283193826675415,1.43,0.39,-0.46,1.55
4.296474933624268,1.16,0.75,0.12,1.38
4.302670955657959,0.71,0.85,0.54,1.23
4.313581943511963,0.09,0.7,0.55,0.89
4.323729991912842,-0.44,0.47,0.11,0.65
4.333536863327026,-0.98,0.09,-0.52,1.11
4.346429109573364,-1.35,-0.58,-0.99,1.77
4.352350950241089,-1.53,-1.29,-1.14,2.3
4.363398790359497,-1.52,-2.04,-1.0,2.73
4.373124837875366,-1.27,-2.85,-0.8,3.22
4.383173942565918,-0.93,-3.52,-0.52,3.67
4.396592855453491,-0.45,-3.95,-0.23,3.98
4.402512788772583,-0.1,-4.09,0.07,4.09
4.413411855697632,0.15,-3.99,0.21,3.99
4.423188924789429,0.27,-3.72,0.13,3.73
4.432851076126099,0.22,-3.29,0.04,3.29
4.446108102798462,0.13,-2.82,0.08,2.82
4.452631950378418,0.07,-2.41,0.16,2.41
4.463468790054321,0.08,-2.04,0.17,2.04
4.473214864730835,0.09,-1.7,0.14,1.7
4.483036994934082,0.19,-1.33,0.13,1.34
4.497389078140259,0.17,-0.99,0.2,1.02
4.502797842025757,0.3,-0.63,0.34,0.77
4.513319969177246,0.51,-0.25,0.51,0.76
4.523335933685303,0.47,0.26,0.88,1.03
4.533117055892944,0.54,0.97,1.55,1.9
4.548590898513794,0.45,1.63,2.1,2.69
4.552706003189087,0.2,2.18,2.37,3.22
4.563349962234497,0.26,2.64,2.13,3.4
4.57331395149231,0.18,2.95,1.36,3.25
4.583410978317261,0.24,3.3,0.68,3.37
4.598088979721069,0.3,3.85,0.54,3.89
4.602701902389526,0.23,4.48,0.86,4.56
4.612653017044067,-0.01,4.94,1.03,5.04
4.623349905014038,-0.29,5.15,0.75,5.21
4.633169889450073,-0.66,5.08,0.09,5.12
4.646485090255737,-1.19,4.69,-0.63,4.87
4.652719020843506,-1.53,4.05,-1.03,4.45
4.662803888320923,-1.71,3.1,-1.18,3.73
4.673289060592651,-1.82,1.96,-1.44,3.03
4.683104991912842,-1.6,0.82,-2.01,2.69
4.696746110916138,-1.28,-0.18,-2.5,2.81
4.702615022659302,-0.99,-0.98,-2.67,3.01
4.712821960449219,-0.92,-1.54,-2.41,3.0
4.723437070846558,-1.14,-1.77,-1.82,2.78
4.733160018920898,-1.39,-1.82,-1.06,2.52
4.746554136276245,-1.47,-1.73,-0.34,2.29
4.752525091171265,-1.47,-1.54,0.16,2.13
4.762812852859497,-1.33,-1.22,0.52,1.87
4.7735068798065186,-0.98,-0.8,0.76,1.47
4.7834861278533936,-0.51,-0.53,0.88,1.14
4.798539876937866,-0.11,-0.47,0.77,0.9
4.802800893783569,0.23,-0.54,0.44,0.73
4.813523054122925,0.47,-0.7,-0.09,0.84
4.8231260776519775,0.62,-0.96,-0.73,1.35
4.833142995834351,0.75,-1.35,-1.32,2.03
4.846429109573364,0.79,-1.9,-1.59,2.6
4.8527281284332275,0.8,-2.49,-1.51,3.01
4.8628599643707275,0.65,-3.09,-1.25,3.39
4.873425006866455,0.57,-3.39,-0.75,3.51
4.8830788135528564,0.44,-3.48,-0.07,3.5
4.896433115005493,0.03,-3.66,0.36,3.67
4.902663946151733,-0.27,-3.64,0.59,3.69
4.912883996963501,-0.33,-3.44,0.69,3.52
4.923370122909546,-0.37,-3.12,0.62,3.2
4.933237791061401,-0.43,-2.71,0.41,2.77
4.947220087051392,-0.45,-2.22,0.15,2.27
4.952858924865723,-0.41,-1.67,-0.12,1.72
4.962860822677612,-0.31,-1.06,-0.44,1.18
4.973524808883667,-0.37,-0.46,-0.75,0.95
4.983397006988525,-0.42,0.08,-0.82,0.92
4.996819972991943,-0.53,0.66,-0.39,0.93
5.002694845199585,-0.7,1.28,0.51,1.54
5.012966871261597,-0.89,1.86,1.61,2.61
5.023681879043579,-1.04,2.32,2.63,3.65
5.033182859420776,-1.15,2.57,3.12,4.2
5.046665906906128,-1.13,2.8,3.03,4.27
5.052677869796753,-0.99,2.97,2.43,3.96
5.062917947769165,-0.94,3.06,1.68,3.61
5.073528051376343,-0.85,3.23,0.98,3.48
5.083393812179565,-0.72,3.6,0.73,3.74
5.096681833267212,-0.7,4.09,0.99,4.26
5.102854013442993,-0.67,4.38,1.22,4.59
5.112923860549927,-0.34,4.19,0.77,4.27
5.123060941696167,0.26,3.62,-0.13,3.63
5.133579969406128,0.86,3.2,-0.94,3.44
5.14654803276062,0.94,2.63,-1.46,3.15
5.152862787246704,0.95,2.06,-1.55,2.74
5.162930965423584,0.7,1.41,-1.53,2.19
5.172686815261841,0.63,0.83,-1.53,1.85
5.1838438510894775,0.69,0.34,-1.4,1.59
5.196712017059326,0.76,-0.03,-1.15,1.37
5.202860116958618,0.81,-0.29,-0.84,1.2
5.212950944900513,0.89,-0.55,-0.61,1.21
5.22279691696167,1.15,-0.73,-0.33,1.4
5.233710050582886,1.44,-0.72,-0.01,1.61
5.246369123458862,1.63,-0.5,0.26,1.72
5.2528650760650635,1.55,-0.15,0.26,1.57
5.2629499435424805,1.24,0.12,-0.06,1.24
5.273139953613281,0.81,0.14,-0.48,0.95
5.283645868301392,0.37,-0.26,-0.8,0.91
5.2965171337127686,0.01,-0.73,-0.98,1.22
5.302869081497192,-0.43,-1.29,-1.13,1.76
5.313007116317749,-0.67,-1.94,-1.11,2.33
5.323182821273804,-0.76,-2.53,-0.95,2.8
5.333643913269043,-0.75,-3.07,-0.66,3.22
5.346530914306641,-0.62,-3.56,-0.32,3.62
5.352849960327148,-0.39,-4.04,-0.12,4.06
5.363133907318115,-0.08,-4.32,-0.03,4.32
5.373160123825073,0.19,-4.33,0.02,4.33
5.383690118789673,0.18,-4.12,-0.09,4.12
5.39651083946228,0.1,-3.74,-0.24,3.74
5.402892827987671,0.08,-3.35,-0.35,3.36
5.412987947463989,-0.07,-3.01,-0.29,3.02
5.423392057418823,-0.06,-2.61,-0.14,2.61
5.433773994445801,0.16,-2.25,0.19,2.26
5.4466729164123535,0.31,-1.98,0.56,2.08
5.452945947647095,0.5,-1.67,0.85,1.93
5.463025808334351,0.65,-1.31,0.91,1.72
5.473294973373413,0.83,-0.93,0.89,1.53
5.4836859703063965,0.98,-0.38,0.99,1.44
5.496495962142944,0.95,0.33,1.3,1.64
5.502968072891235,0.66,1.06,1.73,2.13
5.513049840927124,0.5,1.87,2.28,2.99
5.523360967636108,0.27,2.59,2.53,3.63
5.533586025238037,0.06,3.16,2.25,3.87
5.546154022216797,-0.06,3.6,1.69,3.97
5.552850008010864,-0.08,3.82,1.06,3.96
5.563053846359253,0.21,4.0,0.73,4.07
5.573292016983032,0.25,4.35,0.82,4.43
5.583580017089844,0.06,4.78,1.1,4.9
5.595953941345215,-0.35,4.81,1.14,4.95
5.603092908859253,-0.27,5.11,0.7,5.16
5.613030910491943,-0.57,5.13,-0.21,5.16
5.623379945755005,-0.97,4.56,-1.25,4.82
5.63370680809021,-1.17,3.57,-1.81,4.17
5.646294832229614,-1.18,2.63,-1.85,3.42
5.653062105178833,-1.31,1.54,-1.78,2.69
5.66314697265625,-1.16,0.5,-1.88,2.26
5.673602819442749,-1.06,-0.26,-1.87,2.16
5.683836936950684,-1.13,-0.73,-1.5,2.01
5.696857929229736,-1.2,-0.97,-0.9,1.78
5.703059911727905,-1.35,-1.15,-0.45,1.82
5.71384596824646,-1.4,-1.26,-0.3,1.9
5.723807096481323,-1.28,-1.05,-0.27,1.67
5.733572959899902,-1.09,-0.56,-0.2,1.24
5.746644973754883,-0.81,-0.12,-0.06,0.82
5.753074884414673,-0.41,0.08,0.02,0.41
5.7631800174713135,0.01,0.02,-0.26,0.26
5.774142026901245,0.34,-0.25,-0.68,0.8
5.783522844314575,0.51,-0.73,-1.01,1.34
5.796425104141235,0.68,-1.38,-1.19,1.94
5.802944898605347,0.93,-1.63,-1.07,2.16
5.813153028488159,0.78,-2.25,-0.94,2.56
5.824329137802124,0.85,-2.85,-0.86,3.09
5.833834886550903,0.75,-3.39,-0.66,3.53
5.846840143203735,0.73,-3.8,-0.44,3.89
5.853101015090942,0.75,-3.94,-0.21,4.01
5.863173007965088,0.61,-3.89,-0.09,3.93
5.87420392036438,0.28,-3.73,-0.12,3.74
5.883630990982056,0.07,-3.42,0.01,3.42
5.896198987960815,0.08,-3.03,0.15,3.03
5.903146028518677,-0.06,-2.74,0.16,2.74
5.91320013999939,-0.06,-2.57,-0.01,2.57
5.9241368770599365,-0.13,-2.36,-0.28,2.38
5.933801889419556,-0.33,-1.92,-0.43,1.99
5.94702410697937,-0.38,-1.4,-0.38,1.49
5.953187942504883,-0.58,-0.99,-0.25,1.17
5.963227987289429,-0.67,-0.53,0.1,0.86
5.973791837692261,-0.73,0.03,0.62,0.95
5.983986139297485,-0.79,0.72,1.08,1.51
5.996891975402832,-0.77,1.38,1.38,2.09
6.003165006637573,-0.67,2.07,1.56,2.67
6.013229131698608,-0.55,2.74,1.54,3.19
6.023924112319946,-0.59,3.2,1.31,3.5
6.0337278842926025,-0.71,3.47,1.05,3.69
6.047106981277466,-0.88,3.54,0.96,3.77
6.053271055221558,-0.91,3.45,0.89,3.67
6.063317060470581,-0.98,3.62,1.02,3.88
6.074479818344116,-1.06,3.88,1.58,4.32
6.083824872970581,-0.95,3.38,1.9,3.99
6.09683895111084,0.19,3.39,1.6,3.75
6.103290796279907,0.72,3.19,0.64,3.33
6.113253831863403,1.09,3.14,-0.3,3.33
6.124177932739258,1.32,3.27,-0.6,3.57
6.133784055709839,1.22,2.9,-0.68,3.21
6.146600961685181,1.22,2.2,-0.74,2.62
6.15313196182251,1.21,1.35,-0.92,2.03
6.163309812545776,1.34,0.61,-1.2,1.89
6.174690008163452,1.37,0.08,-1.38,1.94
6.183758974075317,1.34,-0.43,-1.46,2.02
6.196647882461548,1.3,-0.91,-1.52,2.19
6.203519105911255,1.29,-1.35,-1.47,2.37
6.213328123092651,1.41,-1.55,-1.37,2.5
6.224581003189087,1.47,-1.27,-1.14,2.25
6.233771085739136,1.11,-0.79,-0.73,1.54
6.246937036514282,0.76,-0.34,-0.31,0.88
6.253267049789429,0.45,0.05,0.09,0.46
6.263375997543335,0.02,0.21,0.29,0.35
6.274508953094482,-0.3,0.08,0.12,0.33
6.283874988555908,-0.62,-0.35,-0.24,0.75
6.297001123428345,-0.88,-0.93,-0.66,1.44
6.30324912071228,-1.14,-1.57,-0.93,2.15
6.313652992248535,-1.19,-2.18,-0.97,2.66
6.324744939804077,-1.13,-2.69,-0.79,3.02
6.33397102355957,-0.97,-3.12,-0.57,3.31
6.347015142440796,-0.8,-3.44,-0.4,3.55
6.353104829788208,-0.54,-3.54,-0.28,3.59
6.36332893371582,-0.44,-3.41,-0.29,3.45
6.374695062637329,-0.31,-3.13,-0.27,3.15
6.383935928344727,-0.04,-2.78,-0.23,2.78
6.397011041641235,0.12,-2.44,-0.27,2.45
6.403199911117554,0.21,-2.16,-0.35,2.19
6.413367986679077,0.33,-1.94,-0.36,2.0
6.42470908164978,0.33,-1.75,-0.21,1.79
6.4340598583221436,0.4,-1.59,0.0,1.63
6.446987867355347,0.43,-1.48,0.19,1.55
6.4532599449157715,0.42,-1.46,0.37,1.56
6.4633729457855225,0.63,-1.32,0.51,1.54
6.474668979644775,0.74,-1.02,0.71,1.44
6.483899831771851,0.79,-0.44,1.02,1.36
6.49824595451355,0.72,0.28,1.57,1.74
6.50322699546814,0.55,1.03,2.15,2.44
6.514065980911255,0.22,1.74,2.5,3.05
6.524742841720581,-0.12,2.34,2.54,3.45
6.533922910690308,-0.21,2.79,2.19,3.55
6.548322916030884,0.02,3.15,1.53,3.5
6.553380012512207,0.32,3.52,0.89,3.64
6.564131021499634,0.67,4.17,0.64,4.27
6.574601888656616,0.89,5.0,0.84,5.14
6.5840818881988525,0.64,5.41,0.98,5.53
6.59710693359375,0.11,5.16,0.52,5.18
6.603377103805542,-0.31,4.59,-0.3,4.61
6.614054918289185,-0.85,4.12,-0.9,4.3
6.624680995941162,-1.32,3.56,-1.15,3.96
6.63376784324646,-1.48,2.57,-1.36,3.26
6.6473610401153564,-1.58,1.38,-1.92,2.84
6.653435945510864,-1.47,0.33,-2.49,2.91
6.664118051528931,-1.35,-0.38,-2.54,2.9
6.675060987472534,-1.43,-0.75,-1.96,2.53
6.684041976928711,-1.52,-0.84,-1.22,2.12
6.697260141372681,-1.6,-0.84,-0.58,1.89
6.7032999992370605,-1.4,-0.76,-0.2,1.6
6.7134668827056885,-1.15,-0.48,-0.03,1.24
6.72508692741394,-0.78,-0.09,0.12,0.79
6.7339928150177,-0.52,0.21,0.2,0.59
6.748363018035889,-0.28,0.19,0.14,0.36
6.754120111465454,0.03,-0.01,-0.07,0.07
6.76422905921936,0.18,-0.33,-0.39,0.54
6.775100946426392,0.36,-0.81,-0.64,1.09
6.784223794937134,0.39,-1.39,-0.91,1.7
6.799149990081787,0.48,-1.98,-1.09,2.31
6.8033998012542725,0.67,-2.52,-1.09,2.82
6.81356406211853,0.66,-3.13,-1.02,3.35
6.825210809707642,0.57,-3.65,-0.99,3.82
6.834072828292847,0.58,-3.89,-0.88,4.03
6.848223924636841,0.48,-3.92,-0.64,4.0
6.853447914123535,0.26,-3.78,-0.53,3.82
6.863530874252319,-0.04,-3.44,-0.42,3.46
6.8752501010894775,-0.23,-3.01,-0.24,3.02
6.884100914001465,-0.34,-2.65,-0.2,2.67
6.898488998413086,-0.42,-2.33,-0.36,2.39
6.903517961502075,-0.4,-2.12,-0.55,2.22
6.9144980907440186,-0.42,-1.93,-0.73,2.1
6.925509929656982,-0.56,-1.68,-0.75,1.92
6.934388875961304,-0.69,-1.32,-0.55,1.58
6.948240041732788,-0.78,-0.83,0.04,1.13
6.95342493057251,-0.96,-0.29,0.84,1.3
6.964242935180664,-1.07,0.27,1.57,1.91
6.9751129150390625,-1.09,0.86,1.98,2.41
6.983935117721558,-0.71,1.53,2.26,2.82
6.999099016189575,-0.44,2.13,2.2,3.09
7.003680944442749,-0.22,2.6,1.89,3.22
7.014332056045532,-0.25,2.93,1.32,3.22
7.025115966796875,-0.41,3.11,0.88,3.25
7.034147024154663,-0.67,3.12,0.6,3.24
7.047985792160034,-0.84,3.1,0.69,3.28
7.053409814834595,-0.89,3.26,1.24,3.59
7.064196825027466,-0.83,3.42,2.02,4.05
7.0752809047698975,-0.35,3.36,2.31,4.09
7.084099054336548,0.27,2.83,1.56,3.24
7.098797082901001,0.88,2.21,0.32,2.4
7.103645086288452,1.26,2.16,-0.53,2.55
7.114236116409302,1.19,2.28,-0.64,2.65
7.125643014907837,1.11,2.01,-0.47,2.34
7.13408899307251,0.91,1.36,-0.47,1.7
7.149137020111084,0.71,0.5,-0.73,1.13
7.153585910797119,0.86,-0.22,-1.07,1.39
7.163648843765259,1.0,-0.65,-1.24,1.72
7.175782918930054,1.07,-0.85,-1.09,1.74
7.184082984924316,1.16,-0.99,-0.89,1.76
7.197832822799683,1.31,-1.03,-0.79,1.84
7.20356011390686,1.56,-0.83,-0.8,1.93
7.214369058609009,1.65,-0.29,-0.76,1.83
7.225270986557007,1.5,0.53,-0.76,1.76
7.23456883430481,1.24,1.16,-0.79,1.87
7.248616933822632,0.74,1.48,-0.84,1.85
7.2534449100494385,0.19,1.53,-0.83,1.75
7.2636168003082275,-0.36,1.13,-0.84,1.45
7.275820970535278,-0.92,0.48,-0.73,1.26
7.28405499458313,-1.18,-0.22,-0.45,1.28
7.298559904098511,-1.33,-1.01,-0.25,1.68
7.303547143936157,-1.34,-1.82,-0.13,2.26
7.314319849014282,-1.17,-2.54,-0.06,2.79
7.325495958328247,-0.95,-3.15,-0.08,3.29
7.334154844284058,-0.62,-3.52,-0.1,3.57
7.348850965499878,-0.32,-3.64,-0.2,3.65
7.353665113449097,-0.13,-3.48,-0.42,3.5
7.364394903182983,0.02,-3.25,-0.53,3.29
7.375643968582153,-0.02,-2.96,-0.41,2.98
7.384639024734497,0.03,-2.66,-0.18,2.66
7.398939847946167,0.12,-2.41,-0.01,2.41
7.403679132461548,0.22,-2.22,0.18,2.23
7.413740873336792,0.38,-2.11,0.23,2.15
7.425972938537598,0.47,-2.03,0.23,2.09
7.434168100357056,0.47,-1.89,0.34,1.97
7.448972940444946,0.5,-1.75,0.55,1.9
7.45367693901062,0.56,-1.58,0.79,1.85
7.463758945465088,0.64,-1.28,1.04,1.76
7.476179838180542,0.71,-0.75,1.32,1.67
7.483970880508423,0.69,-0.01,1.78,1.9
7.499356985092163,0.53,0.74,2.17,2.35
7.503567934036255,0.49,1.45,2.26,2.72
7.514517068862915,0.5,2.05,1.95,2.87
7.525870084762573,0.42,2.62,1.17,2.89
7.534250974655151,0.33,3.16,0.3,3.19
7.549129009246826,0.45,3.63,-0.32,3.67
7.553725957870483,0.67,4.14,-0.41,4.21
7.563694000244141,0.68,4.83,0.23,4.88
7.576466798782349,0.55,5.47,1.08,5.6
7.584208965301514,0.15,5.56,1.29,5.7
7.598704099655151,-0.4,4.84,0.49,4.88
7.603740930557251,-0.62,3.8,-0.29,3.86
7.614557981491089,-0.79,2.96,-0.48,3.1
7.626266002655029,-0.89,2.22,-0.43,2.43
7.6344709396362305,-0.92,1.43,-0.46,1.76
7.6491429805755615,-0.95,0.54,-1.04,1.5
7.653899908065796,-1.0,-0.18,-1.67,1.95
7.664569139480591,-1.04,-0.57,-1.85,2.19
7.676357984542847,-1.27,-0.76,-1.58,2.16
7.684484004974365,-1.53,-0.8,-1.23,2.11
7.699208974838257,-1.79,-0.76,-0.98,2.17
7.703817129135132,-1.75,-0.63,-0.75,2.0
7.713864088058472,-1.58,-0.42,-0.56,1.72
7.7265379428863525,-1.37,-0.07,-0.32,1.4
7.7343549728393555,-0.98,0.27,-0.01,1.01
7.749430894851685,-0.49,0.26,-0.03,0.55
7.753772974014282,0.0,-0.03,-0.3,0.3
7.764614820480347,0.36,-0.4,-0.64,0.83
7.773952007293701,0.53,-0.8,-0.9,1.31
7.784798860549927,0.58,-1.34,-0.92,1.72
7.799320936203003,0.59,-2.07,-0.97,2.36
7.803880929946899,0.57,-2.89,-0.9,3.08
7.813896894454956,0.77,-3.35,-0.67,3.5
7.826256990432739,0.57,-3.76,-0.35,3.81
7.83431601524353,0.45,-4.09,-0.07,4.11
7.849319934844971,0.34,-4.14,-0.02,4.15
7.853803873062134,0.16,-3.94,-0.21,3.94
7.863805055618286,0.04,-3.6,-0.28,3.61
7.87618613243103,-0.03,-3.26,-0.21,3.26
7.884828805923462,-0.08,-2.93,-0.05,2.93
7.89864706993103,-0.35,-2.66,-0.01,2.68
7.903671979904175,-0.66,-2.42,-0.01,2.5
7.914522886276245,-0.77,-1.85,-0.07,2.0
7.926347017288208,-0.86,-1.38,-0.17,1.63
7.934797048568726,-1.07,-1.08,-0.3,1.54
7.95002007484436,-0.93,-0.7,-0.23,1.18
7.953809976577759,-0.46,-0.03,0.09,0.46
7.964829921722412,-0.97,0.47,0.49,1.18
7.9740149974823,-1.09,0.9,1.34,1.94
7.984705924987793,-1.09,1.52,2.14,2.84
8.000131845474243,-1.12,2.18,2.54,3.52
8.003803968429565,-1.06,2.61,2.54,3.79
8.014503002166748,-1.23,2.63,2.02,3.53
8.024117946624756,-0.79,3.18,1.5,3.6
8.034727811813354,-0.86,3.44,0.9,3.65
8.048918008804321,-1.16,3.19,0.35,3.41
8.053740978240967,-0.91,3.26,0.46,3.41
8.064382791519165,-0.55,3.71,1.13,3.91
8.074489831924438,0.14,4.03,1.62,4.34
8.084852933883667,0.76,4.11,1.4,4.4
8.10036301612854,1.39,3.82,0.62,4.11
8.103835821151733,1.69,3.47,-0.23,3.86
8.114464044570923,1.8,3.02,-0.75,3.59
8.124336957931519,1.73,2.28,-1.11,3.06
8.134589910507202,1.4,1.35,-1.49,2.45
8.148719072341919,1.32,0.44,-1.85,2.31
8.153743982315063,1.49,-0.22,-2.12,2.6
8.164418935775757,1.57,-0.68,-2.15,2.74
8.174455881118774,1.45,-1.01,-1.87,2.57
8.18466591835022,1.5,-1.18,-1.46,2.4
8.199281930923462,1.62,-1.27,-1.16,2.36
8.20428204536438,1.42,-1.07,-1.06,2.07
8.21431279182434,1.12,-0.47,-0.9,1.51
8.223877906799316,0.7,0.31,-0.67,1.01
8.2343270778656,0.36,1.02,-0.3,1.12
8.250121831893921,-0.03,1.31,0.17,1.32
8.254101037979126,-0.43,1.05,0.37,1.19
8.264382123947144,-0.73,0.42,0.22,0.87
8.274021863937378,-1.05,-0.26,-0.08,1.08
8.284416913986206,-1.21,-0.97,-0.41,1.6
8.300334930419922,-1.32,-1.71,-0.64,2.25
8.304094076156616,-1.35,-2.44,-0.69,2.87
8.314364910125732,-1.14,-3.05,-0.69,3.32
8.324634790420532,-0.9,-3.47,-0.59,3.63
8.334481954574585,-0.65,-3.66,-0.49,3.74
8.350506067276001,-0.62,-3.74,-0.51,3.82
8.3540780544281,-0.55,-3.58,-0.46,3.65
8.364434003829956,-0.51,-3.26,-0.21,3.3
8.37385106086731,-0.51,-2.97,-0.02,3.01
8.384390115737915,-0.49,-2.63,0.17,2.68
8.401330947875977,-0.45,-2.29,0.3,2.35
8.404603004455566,-0.41,-2.05,0.37,2.12
8.414756059646606,-0.29,-1.89,0.41,1.95
8.424085855484009,-0.1,-1.8,0.38,1.84
8.434677839279175,0.1,-1.66,0.37,1.7
8.450901985168457,0.36,-1.36,0.59,1.52
8.45409607887268,0.5,-1.02,0.79,1.38
8.46453595161438,0.47,-0.63,0.94,1.22
8.474076986312866,0.45,-0.06,1.26,1.33
8.484645128250122,0.31,0.61,1.61,1.74
8.501077890396118,0.11,1.26,1.89,2.27
8.504179954528809,-0.16,1.76,1.93,2.61
8.514617919921875,-0.32,2.23,1.76,2.85
8.524154901504517,-0.24,2.75,1.7,3.24
8.534645795822144,-0.04,3.09,1.54,3.45
8.551181077957153,0.33,3.19,1.13,3.4
8.554282903671265,0.79,3.34,0.78,3.51
8.564564943313599,1.09,3.77,0.76,3.99
8.574142932891846,1.06,4.35,0.95,4.57
8.584612131118774,0.6,4.73,0.91,4.85
8.601094961166382,-0.03,4.69,0.53,4.71
8.604197025299072,-0.4,4.33,-0.01,4.34
8.614578008651733,-0.84,3.66,-0.48,3.78
8.624204874038696,-0.97,2.9,-0.76,3.15
8.634709119796753,-1.13,2.03,-0.92,2.49
8.651111841201782,-1.3,0.99,-1.27,2.06
8.654395818710327,-1.25,0.01,-1.76,2.15
8.66475796699524,-1.29,-0.77,-2.11,2.59
8.674147844314575,-1.49,-1.1,-2.04,2.75
8.68474292755127,-1.73,-1.15,-1.7,2.68
8.701560974121094,-1.83,-1.06,-1.28,2.47
8.704173803329468,-1.76,-1.03,-0.9,2.22
8.714679956436157,-1.59,-0.97,-0.58,1.95
8.724261045455933,-1.28,-0.74,-0.25,1.49
8.734713792800903,-0.96,-0.4,0.0,1.04
8.751503944396973,-0.62,-0.13,0.17,0.65
8.754311800003052,-0.2,-0.08,0.19,0.28
8.764682054519653,0.19,-0.24,-0.01,0.3
8.774194955825806,0.53,-0.53,-0.34,0.82
8.78466796875,0.78,-0.9,-0.62,1.34
8.80130410194397,0.89,-1.34,-0.86,1.82
8.804111957550049,0.89,-1.88,-0.92,2.27
8.816344022750854,0.64,-2.43,-0.89,2.66
8.825870990753174,0.57,-2.91,-0.72,3.05
8.836556911468506,0.56,-3.25,-0.54,3.34
8.854987859725952,0.22,-3.42,-0.36,3.44
8.855677843093872,-0.05,-3.31,-0.1,3.31
8.86470103263855,-0.25,-3.06,0.14,3.07
8.874812841415405,-0.33,-2.82,0.28,2.85
8.885321855545044,-0.38,-2.63,0.36,2.68
8.901294946670532,-0.46,-2.37,0.32,2.43
8.90422797203064,-0.48,-2.11,0.12,2.16
8.914925813674927,-0.54,-1.86,0.01,1.93
8.924407005310059,-0.65,-1.67,-0.04,1.79
8.93523907661438,-0.73,-1.54,0.0,1.7
8.951278924942017,-0.77,-1.5,0.08,1.68
8.954263925552368,-0.75,-1.41,0.09,1.59
8.96432089805603,-0.74,-1.07,0.13,1.3
8.975137948989868,-0.76,-0.42,0.45,0.97
8.98487401008606,-0.88,0.4,1.07,1.44
9.0015709400177,-0.97,1.34,1.75,2.4
9.004338026046753,-0.95,2.24,2.22,3.29
9.014322996139526,-0.78,2.93,2.19,3.74
9.02505898475647,-0.59,3.39,1.57,3.78
9.034937143325806,-0.52,3.6,0.76,3.71
9.0504629611969,-0.49,3.68,0.27,3.72
9.05410099029541,-0.57,3.7,0.19,3.74
9.064942121505737,-0.63,3.88,0.46,3.95
9.074556112289429,-0.54,4.11,1.07,4.28
9.0853750705719,-0.21,4.2,1.47,4.45
9.101424932479858,0.31,4.06,1.14,4.22
9.104259014129639,0.77,3.71,0.35,3.8
9.115012884140015,0.96,3.28,-0.19,3.42
9.124427080154419,0.92,2.71,-0.33,2.88
9.135425806045532,0.75,1.95,-0.52,2.15
9.151628971099854,0.6,1.04,-0.97,1.54
9.154364824295044,0.78,0.18,-1.56,1.75
9.164250135421753,1.01,-0.45,-1.93,2.22
9.175091981887817,1.19,-0.86,-2.13,2.58
9.185009002685547,1.46,-1.02,-2.02,2.69
9.200836896896362,1.62,-1.09,-1.79,2.64
9.204220056533813,1.72,-0.95,-1.51,2.47
9.215068101882935,1.82,-0.48,-1.1,2.18
9.224452018737793,1.55,0.13,-0.68,1.69
9.235410928726196,1.25,0.69,-0.34,1.46
9.251651048660278,0.85,0.92,-0.06,1.25
9.254388093948364,0.29,0.85,0.06,0.9
9.264361143112183,-0.33,0.53,0.07,0.62
9.275146961212158,-0.75,0.01,-0.03,0.75
9.285141944885254,-0.95,-0.66,-0.31,1.19
9.301837921142578,-1.2,-1.44,-0.59,1.96
9.30435299873352,-0.96,-2.24,-0.79,2.56
9.314232110977173,-0.7,-2.99,-0.73,3.15
9.325230836868286,-0.29,-3.67,-0.42,3.7
9.335417032241821,0.09,-4.05,-0.29,4.06
9.351799011230469,0.23,-4.08,-0.41,4.1
9.35435700416565,0.18,-3.78,-0.57,3.82
9.364385843276978,0.11,-3.37,-0.52,3.41
9.375235795974731,0.04,-2.97,-0.28,2.98
9.38510799407959,-0.05,-2.59,0.13,2.59
9.400729894638062,0.07,-2.22,0.54,2.28
9.40433382987976,0.16,-1.9,0.65,2.01
9.414344072341919,0.21,-1.48,0.63,1.62
9.425152063369751,0.66,-1.23,0.64,1.53
9.434909105300903,0.8,-1.18,0.56,1.53
9.450469017028809,0.77,-0.97,0.44,1.31
9.454384088516235,0.66,-0.62,0.25,0.93
9.464338064193726,0.52,-0.2,0.25,0.61
9.475246906280518,0.47,0.22,0.73,0.89
9.485134840011597,0.32,0.68,1.52,1.69
9.501085996627808,0.28,1.09,2.19,2.46
9.504244089126587,0.19,1.55,2.23,2.72
9.514426946640015,-0.06,2.04,1.7,2.65
9.525140047073364,-0.12,2.61,0.98,2.79
9.53540301322937,0.1,3.13,0.34,3.15
9.551841974258423,0.3,3.35,-0.1,3.36
9.554433107376099,0.46,3.65,-0.15,3.68
9.564483880996704,0.31,4.03,0.26,4.05
9.575187921524048,0.08,4.14,0.64,4.18
9.585294008255005,-0.2,3.77,0.42,3.79
9.601684808731079,-0.55,3.06,-0.18,3.11
9.604521989822388,-0.9,2.49,-0.51,2.69
9.615234136581421,-1.2,1.85,-0.4,2.24
9.624835014343262,-1.27,1.04,-0.35,1.67
9.63546109199524,-1.28,0.18,-0.73,1.48
9.651941061019897,-1.14,-0.45,-1.17,1.69
9.65450406074524,-1.18,-0.68,-1.31,1.88
9.664438009262085,-1.46,-0.61,-1.2,1.98
9.675321817398071,-1.58,-0.42,-0.99,1.91
9.685529947280884,-1.73,-0.19,-1.01,2.01
9.70185399055481,-1.69,0.1,-1.07,2.0
9.704528093338013,-1.42,0.49,-0.94,1.77
9.715366125106812,-1.07,0.88,-0.65,1.53
9.725116968154907,-0.64,1.05,-0.4,1.29
9.735750913619995,-0.27,1.03,-0.36,1.12
9.752377986907959,0.04,0.73,-0.44,0.85
9.754467010498047,0.44,0.33,-0.44,0.7
9.765372037887573,0.55,-0.19,-0.42,0.71
9.774975061416626,0.5,-0.8,-0.54,1.08
9.785475969314575,0.46,-1.43,-0.68,1.64
9.802109956741333,0.3,-2.09,-0.84,2.27
9.804533958435059,0.15,-2.61,-0.89,2.76
9.814487934112549,0.08,-3.08,-0.79,3.18
9.825304985046387,0.12,-3.54,-0.62,3.59
9.835530042648315,0.14,-3.82,-0.41,3.84
9.852558851242065,-0.01,-3.82,-0.28,3.83
9.854503870010376,-0.13,-3.59,-0.18,3.59
9.865302801132202,-0.25,-3.27,-0.11,3.28
9.874632120132446,-0.33,-2.86,-0.01,2.87
9.885507822036743,-0.37,-2.48,0.05,2.5
9.902454137802124,-0.41,-2.14,-0.02,2.17
9.90451192855835,-0.42,-1.85,-0.24,1.91
9.914529085159302,-0.46,-1.62,-0.55,1.77
9.925217866897583,-0.46,-1.39,-0.65,1.6
9.935715913772583,-0.42,-1.13,-0.58,1.33
9.951509952545166,-0.49,-0.8,-0.37,1.0
9.954456090927124,-0.55,-0.22,-0.03,0.59
9.964422941207886,-0.62,0.44,0.46,0.88
9.975389957427979,-0.66,1.13,0.99,1.64
9.985458135604858,-0.64,1.81,1.42,2.38
10.00246787071228,-0.63,2.35,1.53,2.87
10.00461196899414,-0.58,2.8,1.39,3.17
10.01453709602356,-0.6,3.1,1.07,3.33
10.025382995605469,-0.69,3.43,0.85,3.6
10.035242795944214,-0.79,3.61,0.83,3.78
10.05199408531189,-0.84,3.73,0.98,3.94
10.05460810661316,-0.83,3.84,1.18,4.1
10.064548015594482,-0.73,3.7,1.32,3.99
10.075408935546875,-0.03,3.24,1.02,3.39
10.0853750705719,0.73,2.93,0.52,3.06
10.102452993392944,1.39,3.05,0.33,3.36
10.104659795761108,1.55,3.15,0.4,3.53
10.114458799362183,1.42,2.65,0.13,3.0
10.125369787216187,1.3,1.68,-0.33,2.14
10.135556936264038,1.12,0.69,-0.83,1.55
10.153196096420288,0.92,0.0,-1.22,1.52
10.154739141464233,0.89,-0.46,-1.43,1.74
10.165539026260376,0.98,-0.95,-1.5,2.02
10.174808979034424,1.18,-1.31,-1.34,2.21
10.185601949691772,1.45,-1.51,-0.99,2.31
10.203160047531128,1.73,-1.53,-0.69,2.41
10.204721927642822,1.81,-1.3,-0.54,2.29
10.214534997940063,1.74,-0.73,-0.41,1.93
10.225606918334961,1.47,-0.04,-0.25,1.49
10.235405921936035,1.08,0.42,-0.03,1.15
10.25303602218628,0.56,0.49,0.09,0.74
10.254755973815918,-0.04,0.23,-0.05,0.23
10.264609098434448,-0.4,-0.15,-0.24,0.49
10.275399923324585,-0.54,-0.75,-0.43,1.01
10.285611867904663,-0.6,-1.56,-0.68,1.8
10.302842855453491,-0.44,-2.25,-0.82,2.43
10.30479884147644,-0.38,-2.86,-0.84,3.0
10.315100908279419,-0.19,-3.28,-0.79,3.37
10.325041055679321,-0.05,-3.48,-0.74,3.55
10.335577011108398,-0.2,-3.5,-0.64,3.56
10.353984117507935,-0.16,-3.32,-0.45,3.35
10.35473084449768,-0.12,-3.05,-0.06,3.05
10.365466833114624,-0.1,-2.84,0.34,2.86
10.375035047531128,-0.04,-2.59,0.78,2.7
10.38565993309021,-0.08,-2.24,0.98,2.44
10.40334701538086,0.03,-1.98,0.85,2.15
10.404706001281738,0.22,-1.78,0.64,1.9
10.415266990661621,0.43,-1.51,0.48,1.64
10.425084829330444,0.64,-1.18,0.41,1.4
10.435630083084106,0.7,-0.9,0.32,1.18
10.45343279838562,0.72,-0.59,0.24,0.96
10.454783916473389,0.68,-0.14,0.29,0.75
10.465688943862915,0.51,0.38,0.58,0.86
10.475259065628052,0.35,0.88,1.14,1.48
10.48555302619934,0.24,1.37,1.71,2.2
10.50375485420227,0.06,1.86,2.0,2.73
10.50489091873169,-0.03,2.21,1.88,2.9
10.514648914337158,0.04,2.5,1.44,2.88
10.525482892990112,0.3,2.84,0.8,2.96
10.53554081916809,0.63,3.24,0.41,3.32
10.55303692817688,0.79,3.85,0.51,3.96
10.554727792739868,0.68,4.45,0.78,4.56
10.564854860305786,0.52,4.68,0.74,4.76
10.575505018234253,0.18,4.46,0.25,4.47
10.585434913635254,-0.31,4.17,-0.24,4.18
10.603611946105957,-0.73,3.82,-0.6,3.93
10.604846954345703,-0.97,3.19,-0.78,3.42
10.615721940994263,-1.26,2.14,-0.85,2.62
10.6251380443573,-1.38,0.99,-1.15,2.05
10.63595986366272,-1.45,0.01,-1.66,2.2
10.654550790786743,-1.59,-0.58,-1.98,2.6
10.65535283088684,-1.68,-0.68,-1.73,2.5
10.66494107246399,-1.81,-0.6,-1.1,2.2
10.675471067428589,-1.99,-0.58,-0.63,2.16
10.685298919677734,-1.92,-0.58,-0.36,2.03
10.703717947006226,-1.58,-0.34,-0.17,1.62
10.70490288734436,-1.18,-0.01,-0.15,1.18
10.714805841445923,-0.64,0.18,-0.06,0.66
10.725624799728394,-0.17,0.09,-0.12,0.22
10.735458135604858,0.15,-0.11,-0.29,0.34
10.75424313545227,0.55,-0.32,-0.26,0.68
10.755021810531616,0.8,-0.69,-0.28,1.09
10.764909982681274,0.88,-1.16,-0.5,1.53
10.775667905807495,0.95,-1.69,-0.74,2.07
10.785515069961548,0.85,-2.39,-0.92,2.69
10.794978857040405,0.79,-3.06,-0.91,3.28
10.8052818775177,0.84,-3.58,-0.62,3.72
10.814697027206421,0.87,-4.01,-0.36,4.11
10.825424909591675,0.76,-4.31,-0.2,4.38
10.835580110549927,0.48,-4.31,-0.02,4.33
10.853595972061157,0.16,-3.97,0.11,3.97
10.85486388206482,-0.16,-3.36,0.15,3.36
10.865358114242554,-0.34,-2.73,0.11,2.75
10.875325918197632,-0.48,-2.19,0.01,2.24
10.885670900344849,-0.54,-1.72,-0.06,1.8
10.894971132278442,-0.72,-1.21,-0.25,1.43
10.905151128768921,-0.92,-0.74,-0.54,1.29
10.914951086044312,-1.15,-0.36,-0.74,1.41
10.925718069076538,-1.26,-0.11,-0.82,1.5
10.935714960098267,-1.2,0.08,-0.53,1.31
10.945197820663452,-1.02,0.36,0.09,1.08
10.95549988746643,-1.03,0.7,0.7,1.42
10.964938879013062,-0.92,1.15,1.28,1.95
10.975657939910889,-0.72,1.62,1.63,2.4
10.985499143600464,-0.63,1.96,1.61,2.61
10.995052099227905,-0.59,2.1,1.3,2.53
11.005172967910767,-0.53,2.25,1.05,2.53
11.014883995056152,-0.49,2.34,0.83,2.53
11.025775909423828,-0.54,2.37,0.62,2.5
11.035642862319946,-0.58,2.61,0.66,2.75
11.045393943786621,-0.62,3.04,0.97,3.25
11.056062936782837,-0.66,3.48,1.16,3.72
11.06538200378418,-0.21,3.88,1.06,4.02
11.075549840927124,0.5,4.13,0.65,4.21
11.08604884147644,1.1,4.37,0.33,4.51
11.095343828201294,1.4,4.56,0.1,4.77
11.105078935623169,1.14,4.12,-0.51,4.3
11.114782094955444,1.09,3.08,-1.22,3.48
11.125555992126465,1.07,2.02,-1.78,2.89
11.135591983795166,0.81,1.13,-2.02,2.45
11.145599126815796,0.64,0.35,-1.81,1.95
11.1558678150177,0.53,-0.53,-1.39,1.57
11.165560960769653,0.57,-1.37,-0.96,1.76
11.175323009490967,0.84,-1.9,-0.68,2.18
11.1859290599823,1.22,-1.91,-0.58,2.33
11.195142984390259,1.55,-1.62,-0.46,2.28
11.205277919769287,1.67,-1.03,-0.4,2.0
11.215409994125366,1.5,-0.25,-0.39,1.56
11.225436925888062,1.11,0.29,-0.45,1.23
11.235785007476807,0.59,0.38,-0.45,0.83
11.245008945465088,-0.07,0.21,-0.34,0.4
11.255231142044067,-0.62,-0.19,-0.24,0.69
11.265451908111572,-0.89,-0.76,-0.17,1.18
11.275275945663452,-1.01,-1.49,-0.12,1.8
11.285989046096802,-1.05,-2.25,-0.17,2.48
11.295594930648804,-1.02,-2.89,-0.33,3.08
11.305116891860962,-0.9,-3.36,-0.54,3.52
11.314975023269653,-0.75,-3.66,-0.62,3.78
11.325845003128052,-0.55,-3.63,-0.57,3.71
11.33559799194336,-0.42,-3.35,-0.34,3.39
11.344913959503174,-0.45,-3.04,-0.04,3.07
11.355122804641724,-0.44,-2.68,0.22,2.72
11.36493706703186,-0.41,-2.33,0.45,2.4
11.375861883163452,-0.38,-2.03,0.55,2.13
11.385656118392944,-0.21,-1.73,0.63,1.85
11.395095109939575,-0.02,-1.52,0.58,1.62
11.405192136764526,0.11,-1.4,0.49,1.48
11.414965867996216,0.29,-1.33,0.4,1.41
11.425719022750854,0.37,-1.19,0.4,1.3
11.435640096664429,0.54,-1.04,0.43,1.24
11.44508695602417,0.55,-0.79,0.53,1.09
11.455201864242554,0.46,-0.31,0.84,1.0
11.464931011199951,0.43,0.26,1.32,1.41
11.475714921951294,0.27,0.86,1.8,2.01
11.485620021820068,0.04,1.47,2.09,2.55
11.49511194229126,-0.05,2.02,2.09,2.9
11.505234003067017,-0.17,2.42,1.74,2.98
11.514977931976318,0.02,2.69,1.3,2.98
11.525849103927612,0.37,2.92,0.87,3.06
11.535980939865112,0.51,3.25,0.64,3.35
11.545216798782349,0.6,3.86,0.76,3.97
11.555185079574585,0.44,4.48,1.06,4.62
11.564979791641235,0.1,4.84,1.17,4.98
11.575998067855835,-0.32,4.65,0.77,4.72
11.585824966430664,-0.64,4.1,0.16,4.15
11.59529995918274,-0.75,3.37,-0.17,3.45
11.605237007141113,-0.83,2.62,-0.38,2.77
11.615162134170532,-0.88,1.94,-0.5,2.18
11.625643014907837,-1.01,0.95,-0.92,1.66
11.63571810722351,-1.13,-0.18,-1.7,2.04
11.645484924316406,-1.3,-0.96,-2.25,2.77
11.655225038528442,-1.52,-1.34,-2.19,2.98
11.665149927139282,-1.7,-1.47,-1.73,2.83
11.67588210105896,-1.84,-1.54,-1.22,2.69
11.686063051223755,-1.82,-1.58,-0.91,2.57
11.695244073867798,-1.61,-1.5,-0.68,2.3
11.705321073532104,-1.33,-1.12,-0.46,1.79
11.715673923492432,-1.0,-0.58,-0.24,1.18
11.725697994232178,-0.52,-0.11,-0.22,0.57
11.73603081703186,-0.07,0.12,-0.35,0.37
11.745348930358887,0.23,0.19,-0.44,0.53
11.756122827529907,0.37,0.13,-0.47,0.61
11.765540838241577,0.39,-0.13,-0.52,0.66
11.775730848312378,0.38,-0.58,-0.6,0.91
11.786043882369995,0.41,-1.25,-0.69,1.48
11.795300006866455,0.48,-1.96,-0.76,2.15
11.806153059005737,0.45,-2.59,-0.83,2.75
11.815572023391724,0.52,-3.03,-0.89,3.2
11.825729131698608,0.48,-3.26,-0.85,3.4
11.836106061935425,0.33,-3.32,-0.68,3.4
11.845348119735718,0.13,-3.2,-0.38,3.22
11.856189966201782,-0.08,-2.93,-0.01,2.93
11.86576795578003,-0.26,-2.64,0.25,2.66
11.875724077224731,-0.37,-2.37,0.26,2.41
11.886157989501953,-0.38,-2.0,0.13,2.03
11.895371913909912,-0.44,-1.62,-0.15,1.68
11.906439065933228,-0.58,-1.29,-0.46,1.48
11.915572881698608,-0.66,-0.99,-0.6,1.33
11.925749063491821,-0.79,-0.78,-0.55,1.23
11.936073064804077,-0.85,-0.51,-0.27,1.02
11.945446014404297,-0.86,-0.09,0.26,0.9
11.955671072006226,-0.93,0.35,0.81,1.28
11.96574091911316,-0.91,0.75,1.17,1.66
11.975687980651855,-0.83,1.17,1.27,1.91
11.986164808273315,-0.68,1.67,1.29,2.21
11.995356798171997,-0.53,2.17,1.25,2.55
12.005962133407593,-0.54,2.49,1.14,2.79
12.015488862991333,-0.62,2.63,1.07,2.9
12.025788068771362,-0.86,2.7,0.98,2.99
12.035598993301392,-0.94,2.81,0.95,3.11
12.045239925384521,-0.95,3.06,1.12,3.39
12.055137872695923,-0.83,3.53,1.46,3.9
12.065701007843018,-0.55,3.88,1.49,4.19
12.075834035873413,0.03,3.76,0.85,3.85
12.086086988449097,0.61,3.45,-0.03,3.5
12.095494985580444,0.85,3.24,-0.52,3.38
12.107300996780396,0.91,2.71,-0.61,2.92
12.115064859390259,0.6,1.94,-0.62,2.12
12.125873804092407,0.44,1.06,-0.76,1.37
12.135806798934937,0.39,0.15,-1.01,1.09
12.145224809646606,0.44,-0.62,-1.3,1.5
12.155159950256348,0.66,-1.17,-1.35,1.9
12.165818929672241,0.97,-1.43,-1.1,2.04
12.175530910491943,1.23,-1.48,-0.69,2.04
12.185930013656616,1.46,-1.4,-0.35,2.05
12.19554591178894,1.71,-1.14,-0.17,2.06
12.206571817398071,1.84,-0.67,-0.24,1.97
12.215501070022583,1.78,0.07,-0.37,1.81
12.225623846054077,1.45,0.75,-0.3,1.65
12.236110925674438,0.95,0.93,-0.2,1.34
12.245585918426514,0.34,0.7,-0.11,0.78
12.255162954330444,-0.1,0.27,-0.04,0.29
12.265697002410889,-0.59,-0.3,-0.25,0.7
12.275836944580078,-1.04,-1.04,-0.61,1.59
12.286147832870483,-0.87,-1.79,-0.82,2.15
12.295314073562622,-0.71,-2.47,-0.77,2.68
12.305215120315552,-0.58,-2.98,-0.64,3.1
12.315647840499878,-0.3,-3.35,-0.56,3.4
12.326334953308105,-0.07,-3.43,-0.51,3.46
12.335899114608765,0.05,-3.16,-0.43,3.18
12.34550404548645,0.0,-2.81,-0.45,2.84
12.355525016784668,-0.13,-2.57,-0.34,2.59
12.36571192741394,-0.11,-2.36,-0.05,2.36
12.375854015350342,-0.1,-2.14,0.25,2.15
12.385777950286865,-0.13,-1.92,0.42,1.96
12.39699101448059,0.0,-1.69,0.54,1.77
12.406744956970215,0.18,-1.52,0.55,1.62
12.416482925415039,0.39,-1.38,0.55,1.53
12.427474021911621,0.56,-1.22,0.62,1.47
12.437235116958618,0.65,-1.04,0.65,1.38
12.446749925613403,0.67,-0.84,0.68,1.27
12.456723928451538,0.67,-0.5,0.75,1.12
12.466650009155273,0.59,0.06,0.92,1.09
12.477478981018066,0.49,0.75,1.21,1.5
12.48713994026184,0.31,1.46,1.4,2.04
12.496722936630249,0.17,2.02,1.45,2.49
12.506794929504395,0.0,2.4,1.33,2.74
12.517482995986938,-0.04,2.62,1.06,2.82
12.526899099349976,0.22,2.82,0.77,2.93
12.537661790847778,0.38,2.97,0.45,3.02
12.54681396484375,0.58,3.39,0.33,3.45
12.556843042373657,0.55,3.9,0.44,3.96
12.566770792007446,0.34,4.23,0.61,4.28
12.577394008636475,0.09,4.23,0.6,4.27
12.587527990341187,-0.31,3.91,0.22,3.92
12.596813917160034,-0.7,3.54,-0.15,3.61
12.606839895248413,-0.95,3.06,-0.22,3.21
12.616687059402466,-1.08,2.23,-0.26,2.49
12.627525091171265,-1.01,1.17,-0.6,1.65
12.637498140335083,-0.94,0.11,-1.16,1.49
12.646891832351685,-0.9,-0.7,-1.61,1.97
12.65686583518982,-0.96,-1.14,-1.66,2.23
12.666797876358032,-1.04,-1.3,-1.28,2.1
12.677570104598999,-1.2,-1.32,-1.01,2.05
12.687363862991333,-1.13,-1.2,-0.78,1.82
12.696935892105103,-0.98,-1.0,-0.58,1.51
12.707263946533203,-0.81,-0.59,-0.32,1.05
12.716907024383545,-0.59,-0.09,-0.05,0.59
12.727577924728394,-0.27,0.25,0.1,0.38
12.73741888999939,-0.01,0.3,0.04,0.3
12.746878862380981,0.29,0.09,-0.16,0.34
12.75688910484314,0.53,-0.34,-0.41,0.75
12.766845941543579,0.54,-0.79,-0.64,1.15
12.777629137039185,0.56,-1.28,-0.8,1.6
12.787508010864258,0.49,-1.91,-0.84,2.14
12.796868085861206,0.43,-2.57,-0.75,2.71
12.806983947753906,0.32,-3.1,-0.53,3.16
12.816630125045776,0.23,-3.45,-0.32,3.47
12.827605962753296,0.08,-3.52,-0.05,3.52
12.837458848953247,-0.15,-3.31,0.14,3.31
12.846815824508667,-0.32,-2.99,0.14,3.01
12.856909990310669,-0.41,-2.65,0.13,2.68
12.866611003875732,-0.5,-2.29,0.13,2.34
12.87721300125122,-0.54,-1.93,0.13,2.0
12.88731598854065,-0.57,-1.62,0.09,1.71
12.896955013275146,-0.63,-1.38,0.04,1.51
12.907152891159058,-0.72,-1.21,0.06,1.4
12.916635990142822,-0.82,-1.11,0.11,1.38
12.927438020706177,-0.88,-1.07,0.2,1.39
12.937323808670044,-0.86,-1.04,0.2,1.36
12.947186946868896,-0.74,-0.75,0.3,1.09
12.95697283744812,-0.66,-0.22,0.63,0.93
12.966684103012085,-0.61,0.45,1.11,1.34
12.977605104446411,-0.63,1.2,1.64,2.12
12.987704038619995,-0.61,1.89,1.97,2.79
12.996928930282593,-0.59,2.43,1.8,3.08
13.007024049758911,-0.46,2.86,1.31,3.17
13.016639947891235,-0.61,3.19,0.79,3.34
13.027872800827026,-0.83,3.28,0.38,3.4
13.037532091140747,-0.95,3.38,0.34,3.52
13.04702091217041,-0.94,3.62,0.65,3.79
13.056907892227173,-0.96,3.83,1.1,4.09
13.066744089126587,-0.58,3.87,1.46,4.17
13.077593088150024,0.08,3.58,1.19,3.77
13.087409973144531,0.75,2.98,0.31,3.08
13.097027063369751,1.17,2.6,-0.47,2.88
13.106961965560913,1.2,2.48,-0.7,2.84
13.11670708656311,0.98,2.2,-0.49,2.45
13.127602815628052,0.77,1.58,-0.42,1.8
13.137702941894531,0.68,0.83,-0.79,1.33
13.147089004516602,0.8,0.04,-1.45,1.65
13.157572031021118,1.06,-0.55,-1.84,2.19
13.16745114326477,1.2,-0.87,-1.74,2.28
13.177724123001099,1.22,-1.03,-1.29,2.05
13.187877893447876,1.34,-1.13,-0.76,1.91
13.197021961212158,1.46,-1.07,-0.51,1.88
13.207165002822876,1.42,-0.6,-0.45,1.6
13.217157125473022,1.14,0.13,-0.38,1.2
13.227531909942627,0.85,0.65,-0.21,1.09
13.237498998641968,0.42,0.71,0.04,0.82
13.246958017349243,-0.1,0.41,0.19,0.46
13.257812976837158,-0.53,-0.14,0.14,0.56
13.266992807388306,-0.92,-0.82,-0.08,1.23
13.277808904647827,-1.12,-1.57,-0.34,1.95
13.287652015686035,-1.04,-2.31,-0.5,2.58
13.297220945358276,-0.73,-3.02,-0.43,3.13
13.3075110912323,-0.39,-3.6,-0.29,3.63
13.316792964935303,-0.1,-3.95,-0.23,3.95
13.327737092971802,0.05,-3.98,-0.3,3.99
13.33790397644043,0.13,-3.68,-0.36,3.69
13.347048997879028,0.13,-3.31,-0.28,3.32
13.357628107070923,0.14,-2.93,-0.07,2.93
13.367698907852173,0.19,-2.56,0.16,2.57
13.377578020095825,0.18,-2.22,0.33,2.25
13.387876987457275,0.24,-1.86,0.46,1.93
13.397037982940674,0.43,-1.52,0.46,1.64
13.407646894454956,0.63,-1.26,0.38,1.45
13.41708493232727,0.73,-1.12,0.22,1.35
13.427721977233887,0.65,-0.92,0.12,1.13
13.437588930130005,0.68,-0.65,0.3,0.98
13.447128057479858,0.64,-0.37,0.67,0.99
13.45809006690979,0.48,0.11,1.14,1.24
13.466969013214111,0.35,0.75,1.66,1.85
13.477837800979614,0.2,1.35,2.02,2.43
13.487470865249634,0.06,1.77,2.03,2.69
13.497281789779663,0.13,2.06,1.66,2.64
13.507452011108398,0.25,2.48,1.14,2.74
13.516855955123901,0.43,2.91,0.56,2.99
13.527806997299194,0.48,3.28,0.09,3.31
13.53796100616455,0.56,3.75,-0.03,3.79
13.547159910202026,0.54,4.37,0.31,4.41
13.557873010635376,0.36,4.96,0.82,5.04
13.567353963851929,0.12,5.23,0.9,5.3
13.577532052993774,-0.26,4.79,0.43,4.81
13.587625980377197,-0.5,3.94,-0.02,3.97
13.597126007080078,-0.66,3.12,-0.04,3.18
13.60825490951538,-0.81,2.37,0.04,2.5
13.616878986358643,-0.73,1.46,-0.24,1.64
13.627847909927368,-0.7,0.41,-0.9,1.21
13.637823820114136,-0.74,-0.51,-1.59,1.82
13.647222995758057,-0.92,-1.07,-1.77,2.26
13.657902956008911,-1.19,-1.31,-1.41,2.26
13.667269945144653,-1.4,-1.39,-0.95,2.18
13.677653074264526,-1.52,-1.45,-0.71,2.21
13.687505960464478,-1.44,-1.45,-0.57,2.12
13.697245836257935,-1.21,-1.25,-0.51,1.81
13.708286046981812,-0.97,-0.73,-0.33,1.25
13.716893911361694,-0.66,-0.25,-0.05,0.7
13.727864980697632,-0.27,-0.08,-0.04,0.28
13.73777985572815,0.12,-0.15,-0.38,0.42
13.747153043746948,0.38,-0.37,-0.73,0.9
13.758358001708984,0.49,-0.69,-0.88,1.22
13.767504930496216,0.39,-1.13,-0.86,1.47
13.777701139450073,0.36,-1.71,-0.8,1.92
13.787667036056519,0.43,-2.31,-0.66,2.44
13.797170877456665,0.48,-2.86,-0.46,2.93
13.808346033096313,0.47,-3.35,-0.38,3.4
13.816859006881714,0.38,-3.67,-0.38,3.7
13.827801942825317,0.14,-3.71,-0.41,3.73
13.837788820266724,-0.03,-3.45,-0.36,3.46
13.847223997116089,-0.11,-3.05,-0.21,3.05
13.858506917953491,-0.17,-2.66,-0.04,2.66
13.867628812789917,-0.28,-2.34,0.09,2.35
13.877517938613892,-0.43,-2.0,0.11,2.04
13.887623071670532,-0.57,-1.69,-0.07,1.78
13.897305965423584,-0.77,-1.48,-0.31,1.69
13.908533811569214,-0.92,-1.29,-0.52,1.66
13.916878938674927,-0.97,-1.06,-0.52,1.52
13.927940130233765,-1.01,-0.83,-0.32,1.34
13.937582969665527,-1.09,-0.46,-0.04,1.18
13.947057008743286,-1.19,0.1,0.49,1.29
13.957616090774536,-1.18,0.63,1.24,1.82
13.966984033584595,-1.13,1.12,1.9,2.47
13.977792978286743,-1.09,1.64,2.23,2.97
13.987622022628784,-1.09,2.11,2.16,3.21
13.997112035751343,-1.15,2.53,1.75,3.28
14.008019924163818,-1.18,2.81,1.3,3.31
14.016970872879028,-1.16,3.05,1.11,3.44
14.028011083602905,-1.19,3.39,1.3,3.82
14.037811994552612,-1.21,3.88,1.75,4.42
14.047252893447876,-0.93,4.39,2.1,4.95
14.058658838272095,-0.42,4.58,1.75,4.92
14.066981077194214,0.38,4.49,0.72,4.56
14.077976942062378,0.97,4.31,-0.32,4.42
14.087762117385864,1.26,3.94,-0.99,4.25
14.097468137741089,1.2,3.32,-1.17,3.71
14.108647108078003,1.16,2.42,-1.26,2.96
14.11794900894165,0.92,1.28,-1.54,2.2
14.127573013305664,0.85,0.22,-1.84,2.03
14.137787103652954,0.91,-0.68,-1.82,2.14
14.147330045700073,1.1,-1.35,-1.41,2.24
14.158873796463013,1.24,-1.71,-0.83,2.26
14.16703200340271,1.31,-1.78,-0.42,2.24
14.178017854690552,1.36,-1.64,-0.23,2.14
14.187774896621704,1.46,-1.2,-0.08,1.89
14.197462797164917,1.35,-0.48,0.02,1.43
14.20900297164917,1.02,0.16,-0.04,1.03
14.21701979637146,0.63,0.52,-0.11,0.82
14.227895975112915,0.2,0.5,-0.26,0.59
14.237937927246094,-0.16,0.19,-0.53,0.58
14.24714994430542,-0.49,-0.29,-0.78,0.96
14.258688926696777,-0.8,-0.92,-0.93,1.53
14.267120122909546,-1.02,-1.61,-0.94,2.12
14.27802300453186,-1.15,-2.33,-0.87,2.74
14.287813901901245,-1.13,-2.99,-0.73,3.27
14.297439813613892,-0.84,-3.48,-0.55,3.62
14.308552980422974,-0.46,-3.78,-0.41,3.82
14.317016839981079,-0.16,-3.86,-0.4,3.88
14.327954053878784,0.0,-3.63,-0.4,3.65
14.337899923324585,0.02,-3.19,-0.32,3.2
14.347254037857056,0.02,-2.72,-0.19,2.72
14.35884404182434,0.0,-2.29,-0.08,2.29
14.368068933486938,0.02,-1.92,0.23,1.93
14.377820014953613,0.24,-1.66,0.62,1.78
14.387857913970947,0.4,-1.49,0.8,1.73
14.39751410484314,0.61,-1.33,0.86,1.69
14.409156084060669,0.72,-1.1,0.76,1.51
14.41714882850647,0.81,-0.77,0.58,1.25
14.427989959716797,0.84,-0.41,0.58,1.1
14.43789291381836,0.76,-0.02,0.8,1.1
14.44744610786438,0.67,0.33,1.06,1.29
14.458674907684326,0.65,0.79,1.39,1.72
14.467160940170288,0.53,1.37,1.77,2.3
14.478065013885498,0.35,1.92,1.95,2.75
14.487929105758667,0.31,2.44,1.88,3.09
14.497493028640747,0.3,2.74,1.48,3.12
14.508884906768799,0.42,2.83,0.9,2.99
14.517186880111694,0.54,2.76,0.31,2.82
14.528189897537231,0.59,2.88,-0.1,2.94
14.537946939468384,0.53,3.32,-0.11,3.36
14.547574996948242,0.32,3.84,0.19,3.85
14.559199094772339,-0.11,4.15,0.4,4.17
14.567214012145996,-0.5,4.06,0.13,4.09
14.578248977661133,-0.89,3.45,-0.36,3.58
14.58830714225769,-1.11,2.66,-0.59,2.94
14.597450971603394,-1.18,2.03,-0.63,2.43
14.6091468334198,-1.22,1.35,-0.74,1.96
14.618391990661621,-1.25,0.66,-0.88,1.66
14.627967119216919,-1.36,0.12,-0.88,1.62
14.637994050979614,-1.33,-0.11,-0.69,1.5
14.647547006607056,-1.37,-0.19,-0.66,1.53
14.65909194946289,-1.37,-0.23,-0.78,1.59
14.667259931564331,-1.31,-0.24,-0.93,1.62
14.678378820419312,-1.1,-0.1,-0.88,1.41
14.688052892684937,-0.76,0.14,-0.53,0.93
14.697713136672974,-0.47,0.27,-0.1,0.55
14.708455801010132,-0.18,0.2,0.11,0.29
14.717488050460815,0.12,-0.04,0.0,0.12
14.728331804275513,0.43,-0.39,-0.3,0.65
14.738023042678833,0.62,-0.81,-0.54,1.15
14.747740983963013,0.72,-1.32,-0.71,1.66
14.759618043899536,0.74,-1.9,-0.87,2.21
14.768874883651733,0.69,-2.49,-0.98,2.76
14.778033018112183,0.68,-3.11,-1.04,3.34
14.788397073745728,0.57,-3.61,-1.04,3.79
14.797537088394165,0.41,-3.86,-0.84,3.97
14.809163808822632,0.27,-3.91,-0.52,3.95
14.818403959274292,0.05,-3.75,-0.25,3.75
14.82810091972351,-0.06,-3.47,-0.02,3.47
14.83806300163269,-0.13,-3.16,0.1,3.16
14.84762692451477,-0.17,-2.85,0.09,2.85
14.859380960464478,-0.2,-2.5,0.02,2.5
14.867582082748413,-0.23,-2.14,-0.15,2.15
14.878435850143433,-0.3,-1.81,-0.42,1.88
14.888353109359741,-0.43,-1.57,-0.71,1.77
14.897640943527222,-0.56,-1.36,-0.84,1.69
14.90921401977539,-0.74,-1.06,-0.62,1.43
14.918660879135132,-0.85,-0.59,-0.09,1.03
14.928383111953735,-1.01,-0.06,0.64,1.19
14.938114881515503,-1.1,0.49,1.36,1.81
14.947571039199829,-1.0,1.1,1.99,2.48
14.959487915039062,-0.83,1.73,2.32,3.01
14.967737913131714,-0.69,2.25,2.2,3.22
14.978387117385864,-0.71,2.65,1.79,3.27
14.988106966018677,-0.83,2.93,1.31,3.31
14.997601985931396,-0.94,3.04,0.89,3.3
15.00973105430603,-1.06,3.12,0.65,3.35
15.018602132797241,-1.04,3.37,0.8,3.61
15.02845311164856,-0.81,3.75,1.35,4.06
15.038125991821289,-0.41,4.19,1.92,4.62
15.047693967819214,0.22,4.35,1.81,4.71
15.05939793586731,0.96,4.07,0.79,4.25
15.067736864089966,1.3,3.61,-0.33,3.85
15.078448057174683,1.43,3.14,-0.82,3.54
15.088084936141968,1.39,2.49,-0.96,3.0
15.097720861434937,1.21,1.58,-1.2,2.32
15.109873056411743,1.07,0.53,-1.66,2.04
15.118755102157593,0.99,-0.44,-2.14,2.39
15.127990007400513,0.99,-1.18,-2.29,2.75
15.13813591003418,1.03,-1.58,-1.94,2.7
15.147701025009155,1.11,-1.62,-1.31,2.36
15.159327983856201,1.02,-1.47,-0.67,1.91
15.167886018753052,1.04,-1.27,-0.17,1.65
15.178461790084839,1.18,-0.93,0.18,1.51
15.188097953796387,1.17,-0.38,0.34,1.27
15.19748592376709,1.13,0.38,0.34,1.23
15.20943284034729,0.98,0.97,0.36,1.42
15.217826128005981,0.69,1.11,0.17,1.31
15.22848391532898,0.21,0.81,-0.21,0.86
15.23835802078247,-0.31,0.28,-0.51,0.65
15.24764895439148,-0.79,-0.32,-0.65,1.07
15.260102987289429,-1.23,-1.09,-0.74,1.8
15.269071817398071,-1.22,-1.88,-0.68,2.34
15.278259038925171,-1.06,-2.63,-0.52,2.88
15.288100004196167,-0.81,-3.21,-0.37,3.33
15.297784090042114,-0.49,-3.55,-0.21,3.58
15.309741973876953,-0.2,-3.62,-0.08,3.62
15.318830013275146,-0.01,-3.45,-0.04,3.45
15.328129053115845,0.1,-3.12,-0.09,3.12
15.338099002838135,0.18,-2.77,-0.08,2.77
15.347738027572632,0.15,-2.45,-0.04,2.45
15.3597891330719,0.1,-2.17,0.05,2.17
15.367969989776611,0.09,-2.02,0.06,2.02
15.378529787063599,0.15,-1.98,-0.01,1.98
15.388185977935791,0.23,-1.94,0.02,1.95
15.397661924362183,0.32,-1.88,0.13,1.91
15.410000085830688,0.38,-1.69,0.25,1.75
15.41928505897522,0.39,-1.22,0.43,1.35
15.428116083145142,0.41,-0.42,0.81,1.0
15.43822979927063,0.33,0.44,1.27,1.38
15.447659969329834,0.21,1.22,1.74,2.13
15.460121870040894,0.13,1.92,2.09,2.84
15.468143939971924,0.09,2.45,2.0,3.16
15.47854208946228,0.16,2.8,1.38,3.12
15.488198041915894,0.45,3.12,0.52,3.19
15.497864961624146,0.55,3.38,-0.14,3.42
15.509854078292847,0.75,3.74,-0.25,3.82
15.519471883773804,0.61,4.27,0.07,4.31
15.528001070022583,0.26,4.71,0.56,4.75
15.53820013999939,-0.22,4.73,0.74,4.79
15.547719955444336,-0.65,4.25,0.4,4.31
15.559821844100952,-0.78,3.45,-0.05,3.53
15.569318056106567,-0.99,2.69,-0.33,2.88
15.578207969665527,-1.06,1.86,-0.42,2.18
15.588363885879517,-0.88,0.88,-0.7,1.42
15.598050832748413,-0.66,-0.06,-1.23,1.39
15.609587907791138,-0.55,-0.84,-1.71,1.98
15.618196964263916,-0.64,-1.17,-1.86,2.28
15.628546953201294,-1.04,-1.02,-1.75,2.27
15.63832688331604,-1.45,-0.6,-1.38,2.08
15.647786855697632,-1.69,-0.22,-0.75,1.86
15.65897798538208,-1.65,0.17,-0.07,1.66
15.668313980102539,-1.43,0.57,0.56,1.63
15.67861008644104,-1.02,0.92,0.85,1.61
15.688309907913208,-0.61,1.14,0.84,1.54
15.69779086112976,-0.18,1.2,0.51,1.31
15.709535837173462,0.21,0.98,-0.03,1.0
15.71928095817566,0.58,0.47,-0.56,0.93
15.728225946426392,0.77,-0.23,-1.02,1.29
15.738276958465576,0.69,-1.04,-1.35,1.83
15.74813199043274,0.63,-1.77,-1.4,2.34
15.75994610786438,0.5,-2.51,-1.18,2.81
15.768409967422485,0.44,-3.2,-0.75,3.31
15.778520822525024,0.42,-3.79,-0.29,3.82
15.788624048233032,0.3,-4.22,-0.06,4.23
15.797804117202759,0.09,-4.37,0.04,4.37
15.810306787490845,-0.11,-4.18,0.05,4.18
15.818362951278687,-0.31,-3.83,0.16,3.84
15.828514814376831,-0.46,-3.55,0.33,3.59
15.838331937789917,-0.61,-3.26,0.4,3.34
15.848098039627075,-0.65,-2.92,0.32,3.0
15.859851121902466,-0.74,-2.43,0.03,2.54
15.86847710609436,-0.93,-1.86,-0.18,2.08
15.878688097000122,-1.0,-1.34,-0.14,1.67
15.888449907302856,-1.01,-0.91,0.02,1.35
15.89805293083191,-0.99,-0.49,0.29,1.14
15.90991997718811,-0.96,-0.02,0.66,1.16
15.919648885726929,-0.93,0.52,1.15,1.56
15.92817997932434,-0.88,1.17,1.65,2.2
15.938381910324097,-0.89,1.86,1.91,2.81
15.948053121566772,-0.95,2.53,1.83,3.26
15.960300922393799,-0.95,3.14,1.5,3.6
15.968537092208862,-1.01,3.52,1.19,3.85
15.978496789932251,-0.98,3.54,1.01,3.8
15.988352060317993,-0.87,3.41,0.85,3.62
15.998029947280884,-0.74,3.51,0.92,3.7
16.01046586036682,-0.5,3.72,1.25,3.95
16.016239881515503,0.06,4.07,1.5,4.33
16.027060985565186,0.44,4.33,1.17,4.5
16.036834955215454,0.58,3.8,0.16,3.84
16.046613931655884,0.78,2.81,-0.84,3.03
16.059963941574097,0.98,2.15,-1.2,2.65
16.06645894050598,1.04,1.57,-1.09,2.17
16.07754898071289,0.96,0.86,-0.98,1.61
16.0870840549469,0.95,0.22,-1.0,1.39
16.096824884414673,1.12,-0.25,-1.1,1.58
16.10971713066101,1.32,-0.6,-1.26,1.92
16.116272926330566,1.53,-0.77,-1.34,2.17
16.127267122268677,1.56,-0.72,-1.21,2.1
16.137091875076294,1.6,-0.6,-0.98,1.96
16.14659285545349,1.6,-0.42,-0.8,1.83
16.160387992858887,1.46,-0.03,-0.7,1.61
16.166821002960205,1.2,0.47,-0.55,1.4
16.177078008651733,0.83,0.83,-0.36,1.22
16.18742799758911,0.37,0.92,-0.25,1.02
16.196947813034058,-0.03,0.74,-0.3,0.79
16.21118712425232,-0.35,0.32,-0.38,0.6
16.216688871383667,-0.71,-0.19,-0.43,0.85
16.22734808921814,-1.03,-0.8,-0.49,1.39
16.237242937088013,-1.12,-1.51,-0.57,1.96
16.247071027755737,-1.01,-2.27,-0.58,2.55
16.26091980934143,-0.73,-2.93,-0.4,3.04
16.26679301261902,-0.32,-3.52,-0.22,3.54
16.27717614173889,-0.07,-3.9,-0.14,3.9
16.287096977233887,0.01,-3.95,-0.19,3.95
16.29679799079895,-0.06,-3.67,-0.22,3.67
16.309976816177368,-0.2,-3.29,-0.15,3.29
16.317065954208374,-0.37,-2.98,-0.05,3.0
16.327564001083374,-0.48,-2.68,0.09,2.72
16.337365865707397,-0.36,-2.34,0.28,2.38
16.34691095352173,-0.22,-2.03,0.34,2.06
16.359781980514526,0.01,-1.76,0.21,1.77
16.3671658039093,0.27,-1.56,0.03,1.58
16.377140998840332,0.46,-1.54,-0.13,1.61
16.387001991271973,0.62,-1.53,-0.13,1.65
16.39717411994934,0.71,-1.4,0.04,1.57
16.410383939743042,0.72,-1.13,0.29,1.37
16.41663098335266,0.67,-0.76,0.63,1.19
16.427554845809937,0.68,-0.18,1.2,1.39
16.437367916107178,0.64,0.48,1.84,2.0
16.446990966796875,0.56,1.21,2.25,2.61
16.460891008377075,0.42,1.84,2.28,2.95
16.466563940048218,0.19,2.47,1.91,3.12
16.47732400894165,0.04,3.08,1.4,3.38
16.48713183403015,0.11,3.54,0.85,3.64
16.496936082839966,0.36,3.81,0.31,3.83
16.511078119277954,0.67,4.22,0.12,4.27
16.51660704612732,0.78,4.77,0.3,4.84
16.527284860610962,0.67,5.08,0.46,5.14
16.53725790977478,0.44,4.69,-0.13,4.71
16.546900987625122,-0.4,4.47,-0.95,4.58
16.56113600730896,-0.96,3.77,-1.36,4.12
16.56676697731018,-1.24,2.69,-1.27,3.22
16.576967000961304,-1.4,1.75,-1.19,2.53
16.5866539478302,-1.38,0.81,-1.14,1.96
16.59676194190979,-1.39,0.01,-0.99,1.7
16.60970401763916,-1.46,-0.4,-0.72,1.67
16.616729021072388,-1.56,-0.37,-0.52,1.68
16.626785039901733,-1.58,-0.25,-0.51,1.67
16.63736891746521,-1.52,-0.25,-0.62,1.66
16.64684796333313,-1.29,-0.24,-0.56,1.42
16.660736799240112,-0.98,-0.12,-0.3,1.03
16.66674780845642,-0.61,0.05,0.03,0.61
16.67659091949463,-0.24,0.1,0.24,0.35
16.68784999847412,0.14,-0.06,0.19,0.24
16.697001934051514,0.41,-0.38,-0.15,0.57
16.711127042770386,0.49,-0.76,-0.49,1.02
16.716699838638306,0.54,-1.25,-0.68,1.52
16.727422952651978,0.65,-1.84,-0.82,2.11
16.737408876419067,0.62,-2.59,-0.89,2.8
16.74708580970764,0.5,-3.27,-0.85,3.41
16.761433839797974,0.62,-3.87,-0.64,3.97
16.766786813735962,0.67,-4.38,-0.46,4.45
16.7775239944458,0.56,-4.64,-0.27,4.68
16.787359952926636,0.45,-4.59,-0.19,4.61
16.796984910964966,0.29,-4.14,-0.09,4.15
16.811707019805908,0.05,-3.46,0.08,3.46
16.816649913787842,-0.2,-2.79,0.19,2.8
16.827491998672485,-0.44,-2.21,0.18,2.26
16.837589025497437,-0.62,-1.73,-0.04,1.83
16.847009897232056,-0.75,-1.22,-0.3,1.46
16.86161208152771,-0.87,-0.81,-0.49,1.28
16.8668110370636,-0.89,-0.58,-0.65,1.24
16.877346992492676,-1.02,-0.32,-0.66,1.25
16.88756799697876,-1.12,0.06,-0.32,1.16
16.897264003753662,-1.2,0.63,0.34,1.39
16.91114902496338,-1.22,1.26,1.18,2.11
16.916788816452026,-1.05,1.77,1.9,2.8
16.92758011817932,-0.86,2.08,2.08,3.06
16.937938928604126,-0.8,2.35,1.84,3.09
16.94728684425354,-0.77,2.72,1.52,3.2
16.96183180809021,-0.82,3.08,1.23,3.41
16.966821908950806,-0.84,3.25,1.08,3.52
16.977710962295532,-0.91,3.29,1.08,3.58
16.987523794174194,-0.91,3.41,1.29,3.75
16.997339010238647,-0.66,3.59,1.7,4.02
17.011642932891846,-0.22,3.76,1.92,4.22
17.01684880256653,0.22,3.62,1.4,3.88
17.027674913406372,0.79,3.05,0.23,3.15
17.037609815597534,1.2,2.6,-0.61,2.92
17.047300100326538,1.3,2.36,-0.75,2.79
17.06179690361023,1.2,1.9,-0.61,2.32
17.066867113113403,1.01,1.18,-0.72,1.71
17.077529907226562,1.06,0.4,-1.07,1.55
17.087687015533447,1.1,-0.31,-1.6,1.96
17.097184896469116,1.32,-0.81,-1.99,2.52
17.112239122390747,1.26,-1.12,-2.02,2.63
17.116873025894165,1.33,-1.27,-1.72,2.51
17.12782597541809,1.4,-1.25,-1.33,2.3
17.13802194595337,1.45,-1.1,-0.96,2.05
17.14727282524109,1.31,-0.77,-0.59,1.63
17.162065982818604,0.9,-0.2,-0.25,0.95
17.166913986206055,0.69,0.31,0.07,0.75
17.177729845046997,0.39,0.5,0.27,0.68
17.188234090805054,-0.1,0.33,0.32,0.47
17.197328805923462,-0.57,-0.16,0.37,0.69
17.21213698387146,-0.94,-0.71,0.3,1.21
17.216895818710327,-1.2,-1.24,0.19,1.73
17.22758984565735,-1.23,-1.84,0.11,2.21
17.237976789474487,-1.24,-2.44,0.04,2.73
17.24727201461792,-1.15,-2.97,-0.05,3.18
17.262593030929565,-0.89,-3.26,-0.08,3.38
17.266880989074707,-0.58,-3.23,-0.1,3.28
17.276948928833008,-0.35,-3.07,-0.18,3.09
17.28827691078186,-0.2,-2.88,-0.34,2.9
17.29723811149597,-0.04,-2.58,-0.39,2.6
17.31185507774353,0.22,-2.18,-0.27,2.2
17.316949129104614,0.26,-1.89,-0.11,1.91
17.3276789188385,0.31,-1.68,-0.01,1.7
17.338144063949585,0.34,-1.61,0.04,1.64
17.34709906578064,0.42,-1.57,0.03,1.62
17.36185908317566,0.48,-1.51,0.04,1.58
17.366967916488647,0.55,-1.36,0.12,1.47
17.377563953399658,0.61,-1.09,0.25,1.27
17.388041973114014,0.57,-0.67,0.46,0.99
17.397324800491333,0.44,-0.09,0.75,0.87
17.411720037460327,0.27,0.67,1.16,1.36
17.416951894760132,0.07,1.38,1.5,2.03
17.427962064743042,-0.04,1.96,1.59,2.52
17.43846893310547,-0.06,2.36,1.32,2.7
17.44759488105774,0.09,2.6,0.69,2.69
17.462549924850464,0.45,2.82,-0.04,2.85
17.466996908187866,0.72,3.18,-0.42,3.28
17.477654933929443,0.94,3.76,-0.25,3.88
17.488910913467407,0.98,4.56,0.38,4.67
17.49750590324402,0.68,5.12,0.77,5.22
17.512513875961304,0.27,5.07,0.45,5.09
17.517005920410156,-0.23,4.5,-0.26,4.51
17.527957916259766,-0.78,3.66,-0.63,3.79
17.538678884506226,-1.0,2.68,-0.75,2.95
17.54765796661377,-1.17,1.68,-1.02,2.28
17.562196969985962,-1.26,0.76,-1.46,2.07
17.566959142684937,-1.46,0.04,-1.85,2.35
17.577912092208862,-1.53,-0.35,-1.83,2.41
17.588395833969116,-1.53,-0.42,-1.51,2.19
17.59769892692566,-1.6,-0.32,-1.18,2.01
17.611997842788696,-1.59,-0.15,-0.83,1.79
17.61720299720764,-1.45,0.04,-0.47,1.52
17.627821922302246,-1.31,0.29,-0.11,1.34
17.638365983963013,-1.05,0.47,0.26,1.17
17.647042989730835,-0.73,0.43,0.48,0.97
17.66210389137268,-0.33,0.12,0.42,0.54
17.66708493232727,0.04,-0.39,0.09,0.4
17.677145957946777,0.36,-0.98,-0.27,1.07
17.688910961151123,0.42,-1.67,-0.61,1.82
17.696985960006714,0.46,-2.37,-0.73,2.52
17.712239980697632,0.49,-3.04,-0.63,3.14
17.717230081558228,0.38,-3.67,-0.4,3.71
17.727911949157715,0.23,-4.15,-0.19,4.16
17.73858380317688,0.03,-4.46,-0.08,4.46
17.747334957122803,-0.12,-4.47,-0.03,4.47
17.762331008911133,-0.26,-4.14,0.03,4.14
17.767117977142334,-0.4,-3.62,0.12,3.64
17.77699899673462,-0.46,-3.15,0.12,3.18
17.788788080215454,-0.44,-2.79,0.01,2.82
17.797675848007202,-0.4,-2.54,-0.19,2.57
17.81207013130188,-0.22,-2.32,-0.4,2.36
17.816983938217163,-0.2,-2.11,-0.58,2.19
17.827834844589233,-0.32,-1.9,-0.66,2.03
17.83901596069336,-0.45,-1.68,-0.56,1.82
17.847826957702637,-0.66,-1.32,-0.34,1.51
17.862528085708618,-0.88,-0.79,0.1,1.18
17.86712384223938,-1.09,-0.05,0.74,1.31
17.877960920333862,-1.27,0.77,1.4,2.04
17.88898992538452,-1.29,1.66,2.03,2.92
17.89763903617859,-1.1,2.5,2.41,3.64
17.911911010742188,-0.91,3.19,2.21,3.98
17.917106866836548,-0.91,3.67,1.44,4.04
17.927807092666626,-0.9,3.87,0.58,4.01
17.93880295753479,-0.82,3.81,0.13,3.89
17.947721004486084,-0.72,3.78,0.26,3.85
17.962547063827515,-0.69,4.02,0.89,4.17
17.967089891433716,-0.39,4.38,1.83,4.76
17.977781057357788,0.11,4.82,2.48,5.42
17.98866295814514,0.47,4.69,2.09,5.15
17.997663974761963,0.83,3.86,0.89,4.04
18.012451887130737,1.06,3.09,-0.12,3.26
18.017112970352173,1.1,2.56,-0.53,2.83
18.02783703804016,0.94,1.9,-0.71,2.23
18.038615942001343,0.58,1.0,-0.99,1.52
18.047645807266235,0.41,0.03,-1.35,1.41
18.062607049942017,0.67,-0.79,-1.67,1.96
18.067105054855347,0.98,-1.46,-1.79,2.5
18.077796936035156,1.2,-1.89,-1.66,2.78
18.088418006896973,1.47,-1.94,-1.24,2.73
18.09762692451477,1.74,-1.72,-0.71,2.54
18.11364483833313,1.81,-1.31,-0.41,2.27
18.117541074752808,1.66,-0.72,-0.29,1.83
18.127851009368896,1.45,0.08,-0.25,1.47
18.139107942581177,1.07,0.81,-0.24,1.36
18.147794008255005,0.62,1.13,-0.32,1.32
18.163424968719482,0.16,0.89,-0.58,1.07
18.167141914367676,-0.24,0.37,-0.92,1.02
18.17785382270813,-0.55,-0.26,-1.19,1.33
18.188390970230103,-0.93,-0.93,-1.29,1.84
18.19763684272766,-1.17,-1.63,-1.12,2.29
18.212028980255127,-1.11,-2.22,-0.66,2.56
18.217176914215088,-0.69,-2.73,-0.23,2.82
18.22792887687683,-0.48,-3.18,-0.02,3.21
18.23903489112854,-0.2,-3.45,-0.03,3.45
18.24777579307556,0.03,-3.46,-0.15,3.46
18.263123989105225,0.0,-3.21,-0.28,3.22
18.267217874526978,0.03,-2.83,-0.27,2.84
18.277647972106934,-0.02,-2.46,-0.13,2.46
18.289469003677368,-0.16,-2.1,0.09,2.1
18.297917127609253,-0.12,-1.78,0.34,1.81
18.313602924346924,0.07,-1.55,0.47,1.62
18.317277908325195,0.23,-1.44,0.54,1.55
18.327871084213257,0.43,-1.39,0.51,1.54
18.33895492553711,0.59,-1.34,0.41,1.52
18.347579956054688,0.69,-1.24,0.3,1.45
18.36227583885193,0.66,-1.11,0.2,1.3
18.367171049118042,0.66,-0.84,0.32,1.11
18.377937078475952,0.66,-0.36,0.64,0.98
18.388971090316772,0.53,0.33,1.12,1.28
18.39761710166931,0.42,1.06,1.68,2.03
18.413079023361206,0.29,1.66,2.02,2.63
18.417132139205933,0.19,2.17,1.9,2.89
18.42810893058777,0.17,2.74,1.39,3.07
18.439314126968384,0.21,3.25,0.8,3.35
18.44729495048523,0.37,3.5,0.36,3.53
18.463470935821533,0.55,4.01,0.39,4.06
18.467319011688232,0.57,4.73,0.83,4.83
18.47725200653076,0.33,5.22,1.22,5.37
18.48950695991516,0.05,5.15,0.88,5.22
18.49730610847473,-0.17,4.48,0.04,4.48
18.512605905532837,-0.75,3.95,-0.49,4.05
18.517143964767456,-0.9,2.91,-0.65,3.11
18.527379989624023,-0.7,1.56,-0.87,1.91
18.539615869522095,-0.62,0.34,-1.42,1.58
18.547292947769165,-0.65,-0.64,-1.91,2.11
18.559244871139526,-0.74,-1.22,-1.79,2.28
18.567521810531616,-0.93,-1.37,-1.12,1.99
18.5783269405365,-1.14,-1.29,-0.56,1.81
18.589754819869995,-1.33,-1.15,-0.35,1.79
18.597893953323364,-1.43,-1.0,-0.26,1.76
18.61371397972107,-1.43,-0.64,-0.11,1.57
18.618032932281494,-1.35,-0.1,0.16,1.36
18.628000020980835,-1.16,0.21,0.28,1.21
18.63970398902893,-1.13,0.55,0.09,1.25
18.647944927215576,-0.94,0.66,-0.22,1.16
18.664752960205078,-0.37,0.05,-0.61,0.71
18.667887926101685,-0.08,-0.63,-1.03,1.21
18.67820906639099,0.14,-1.29,-1.2,1.76
18.68978500366211,0.3,-1.94,-1.15,2.27
18.697715044021606,0.3,-2.59,-0.98,2.78
18.712958097457886,0.36,-3.13,-0.71,3.22
18.717389822006226,0.42,-3.57,-0.44,3.62
18.728179931640625,0.38,-3.93,-0.24,3.95
18.739354848861694,0.43,-3.99,-0.06,4.01
18.747931957244873,0.27,-3.71,0.05,3.72
18.763237953186035,0.02,-3.26,-0.02,3.26
18.76809597015381,-0.07,-2.85,-0.06,2.85
18.778155088424683,-0.21,-2.59,-0.06,2.59
18.789443016052246,-0.27,-2.38,-0.1,2.39
18.797959089279175,-0.32,-2.12,-0.17,2.15
18.81346106529236,-0.45,-1.75,-0.27,1.82
18.817289113998413,-0.58,-1.37,-0.39,1.53
18.828160047531128,-0.73,-0.99,-0.38,1.28
18.839979887008667,-0.93,-0.59,-0.09,1.1
18.84820008277893,-0.96,-0.14,0.49,1.08
18.863611936569214,-0.97,0.39,1.27,1.64
18.867383003234863,-0.84,0.95,2.0,2.36
18.878153085708618,-0.55,1.44,2.29,2.76
18.88788104057312,-0.44,1.97,2.01,2.84
18.900836944580078,-0.42,2.57,1.54,3.02
18.907421827316284,-0.53,3.02,1.2,3.29
18.917406797409058,-0.68,3.12,1.08,3.37
18.928220987319946,-0.78,3.09,1.15,3.38
18.937652826309204,-0.89,3.21,1.32,3.58
18.95111107826233,-0.79,3.62,1.68,4.06
18.957397937774658,-0.41,3.89,2.02,4.4
18.968158960342407,0.24,3.91,1.71,4.27
18.978116989135742,0.86,3.64,0.7,3.8
18.988109827041626,1.25,3.45,-0.23,3.67
19.002012968063354,1.34,3.51,-0.48,3.78
19.007424116134644,1.1,2.91,-0.62,3.17
19.01810598373413,1.05,2.15,-0.89,2.55
19.02804207801819,0.79,1.27,-1.32,1.99
19.038075923919678,0.73,0.43,-1.78,1.97
19.052693128585815,0.81,-0.31,-2.12,2.29
19.0575749874115,0.94,-0.87,-2.21,2.55
19.06815505027771,1.22,-1.23,-1.96,2.61
19.078086137771606,1.48,-1.34,-1.56,2.53
19.087899923324585,1.56,-1.39,-1.15,2.38
19.102545976638794,1.7,-1.12,-0.76,2.17
19.107563972473145,1.69,-0.49,-0.47,1.82
19.118130922317505,1.43,0.24,-0.32,1.48
19.128237009048462,1.08,0.8,-0.16,1.35
19.13813090324402,0.57,0.89,-0.06,1.05
19.15224599838257,0.06,0.53,-0.15,0.55
19.157653093338013,-0.39,-0.04,-0.29,0.48
19.16820001602173,-0.67,-0.62,-0.44,1.01
19.17810297012329,-0.95,-1.37,-0.62,1.77
19.18819308280945,-1.22,-2.15,-0.71,2.57
19.201640844345093,-1.18,-2.81,-0.62,3.11
19.207425832748413,-0.94,-3.38,-0.41,3.53
19.217549085617065,-0.61,-3.67,-0.29,3.73
19.228240966796875,-0.27,-3.63,-0.34,3.65
19.238219022750854,-0.01,-3.44,-0.39,3.46
19.252156972885132,0.03,-3.19,-0.39,3.21
19.25760293006897,0.0,-2.89,-0.32,2.9
19.267574071884155,-0.01,-2.58,-0.15,2.58
19.278121948242188,-0.01,-2.32,0.09,2.32
19.28817391395569,0.12,-2.14,0.31,2.16
19.30131983757019,0.3,-1.95,0.33,2.0
19.307533979415894,0.47,-1.78,0.35,1.87
19.31754183769226,0.48,-1.63,0.39,1.74
19.328181982040405,0.48,-1.43,0.49,1.58
19.33827805519104,0.46,-1.12,0.6,1.35
19.352225065231323,0.47,-0.62,0.73,1.06
19.35761284828186,0.4,-0.02,1.0,1.07
19.368396997451782,0.22,0.69,1.44,1.61
19.3782320022583,0.07,1.52,1.91,2.44
19.388025999069214,-0.1,2.27,2.1,3.09
19.40228295326233,-0.12,2.89,1.85,3.43
19.407612085342407,0.0,3.34,1.15,3.53
19.418272972106934,0.26,3.66,0.41,3.69
19.42808985710144,0.4,3.84,-0.09,3.86
19.438183069229126,0.66,4.3,-0.05,4.35
19.45220398902893,0.66,4.86,0.41,4.92
19.45753502845764,0.37,5.1,0.68,5.15
19.46760106086731,0.13,4.83,0.48,4.85
19.478264093399048,0.12,4.05,-0.13,4.05
19.488142013549805,-0.64,3.56,-0.37,3.63
19.50260901451111,-0.83,2.59,-0.38,2.74
19.507724046707153,-0.87,1.48,-0.53,1.79
19.51846480369568,-0.9,0.42,-1.04,1.43
19.528254985809326,-0.84,-0.48,-1.61,1.87
19.53821301460266,-0.92,-1.02,-1.8,2.26
19.552479028701782,-1.22,-1.2,-1.57,2.32
19.55769181251526,-1.56,-1.12,-1.32,2.33
19.568380117416382,-1.72,-0.89,-1.1,2.22
19.578200101852417,-1.71,-0.62,-0.75,1.96
19.588256120681763,-1.52,-0.3,-0.3,1.57
19.602725982666016,-1.2,0.14,0.11,1.21
19.607742071151733,-0.94,0.39,0.33,1.06
19.618331909179688,-0.67,0.42,0.24,0.82
19.628199815750122,-0.33,0.24,-0.08,0.41
19.638322114944458,0.0,-0.15,-0.43,0.45
19.653047800064087,0.25,-0.66,-0.69,0.98
19.657801866531372,0.34,-1.29,-0.81,1.56
19.668339014053345,0.29,-1.98,-0.82,2.16
19.678262948989868,0.33,-2.56,-0.7,2.67
19.688241004943848,0.31,-3.11,-0.5,3.16
19.703187942504883,0.25,-3.64,-0.31,3.66
19.707793951034546,0.15,-4.0,-0.2,4.0
19.7183620929718,0.09,-4.13,-0.19,4.13
19.728343963623047,-0.06,-3.97,-0.21,3.97
19.738116979599,-0.23,-3.59,-0.19,3.6
19.752504110336304,-0.36,-3.22,-0.15,3.24
19.75773000717163,-0.44,-2.86,-0.12,2.89
19.76842498779297,-0.51,-2.57,-0.19,2.62
19.778383016586304,-0.64,-2.31,-0.38,2.42
19.788339853286743,-0.68,-1.93,-0.6,2.13
19.802910089492798,-0.7,-1.45,-0.69,1.75
19.80780291557312,-0.82,-0.95,-0.47,1.34
19.818403959274292,-0.97,-0.39,0.1,1.05
19.828378915786743,-1.09,0.28,0.89,1.43
19.83814311027527,-1.04,1.03,1.77,2.29
19.85226798057556,-0.92,1.74,2.43,3.12
19.85784411430359,-0.78,2.38,2.49,3.53
19.868454933166504,-0.61,2.93,1.97,3.58
19.878371953964233,-0.51,3.33,1.25,3.59
19.888395071029663,-0.45,3.43,0.79,3.54
19.901754140853882,-0.47,3.3,0.62,3.39
19.90771198272705,-0.51,3.21,0.62,3.3
19.917723894119263,-0.65,3.18,0.75,3.33
19.928436994552612,-0.47,3.34,1.1,3.54
19.938399076461792,-0.17,3.55,1.51,3.86
19.95254111289978,0.25,3.65,1.57,3.98
19.95784306526184,0.7,3.21,0.83,3.38
19.96854591369629,1.03,2.55,-0.2,2.75
19.978477954864502,1.08,2.37,-0.7,2.69
19.988404035568237,1.03,2.19,-0.57,2.48
20.002432107925415,0.94,1.6,-0.41,1.9
20.0080509185791,0.87,0.91,-0.6,1.39
20.018338918685913,0.9,0.15,-1.16,1.47
20.0281879901886,1.02,-0.49,-1.88,2.19
20.038389921188354,1.09,-0.94,-2.21,2.63
20.051565885543823,1.27,-1.2,-2.09,2.72
20.057724952697754,1.36,-1.3,-1.64,2.49
20.068344831466675,1.61,-1.24,-1.03,2.27
20.078540086746216,1.68,-0.96,-0.44,1.98
20.088660955429077,1.58,-0.39,-0.01,1.62
20.10371994972229,1.34,0.31,0.15,1.38
20.107862949371338,1.0,0.77,0.17,1.27
20.11857581138611,0.55,0.8,0.06,0.97
20.12830090522766,0.11,0.43,-0.21,0.49
20.138261079788208,-0.54,-0.1,-0.42,0.69
20.150541067123413,-0.99,-0.69,-0.5,1.3
20.15761685371399,-1.21,-1.42,-0.5,1.93
20.168457984924316,-1.17,-2.17,-0.48,2.51
20.17832589149475,-0.9,-2.87,-0.45,3.04
20.188345909118652,-0.56,-3.51,-0.42,3.57
20.202785968780518,-0.23,-3.95,-0.39,3.97
20.207876920700073,-0.03,-4.04,-0.38,4.05
20.218583822250366,0.1,-3.83,-0.27,3.84
20.228384971618652,0.22,-3.5,-0.06,3.5
20.23822808265686,0.36,-3.07,0.21,3.09
20.250576972961426,0.41,-2.64,0.42,2.7
20.2581570148468,0.46,-2.19,0.55,2.3
20.26847195625305,0.62,-1.81,0.54,1.98
20.278834104537964,0.83,-1.44,0.41,1.71
20.288974046707153,0.97,-1.09,0.24,1.47
20.303723096847534,1.0,-0.89,0.05,1.33
20.30883002281189,1.08,-0.77,-0.05,1.32
20.319114923477173,1.14,-0.62,0.06,1.29
20.32894802093506,0.95,-0.28,0.39,1.06
20.338764905929565,0.72,0.32,1.01,1.28
20.352903127670288,0.41,0.98,1.7,2.0
20.357892990112305,0.22,1.64,2.3,2.83
20.368422985076904,0.01,2.14,2.62,3.38
20.37841796875,-0.03,2.41,2.46,3.44
20.392753839492798,0.17,3.01,0.73,3.1
20.402162790298462,0.09,3.53,0.22,3.53
20.416929960250854,0.16,4.23,0.39,4.25
20.421690940856934,0.23,4.97,0.8,5.03
20.43264412879944,0.33,5.33,0.87,5.41
20.442749977111816,0.35,5.11,0.31,5.13
20.45234990119934,-0.32,5.29,-0.36,5.31
20.46540594100952,-0.73,5.09,-0.75,5.19
20.47171902656555,-1.04,4.03,-0.76,4.23
20.482693910598755,-1.03,2.49,-0.8,2.81
20.492443799972534,-1.02,1.23,-0.99,1.87
20.502171993255615,-0.99,0.16,-1.28,1.62
20.51517081260681,-0.94,-0.82,-1.44,1.9
20.52186894416809,-1.0,-1.54,-1.46,2.34
20.532848119735718,-1.1,-1.86,-1.32,2.53
20.54275894165039,-1.33,-1.93,-1.1,2.58
20.552218914031982,-1.47,-1.82,-0.83,2.48
20.566092014312744,-1.47,-1.58,-0.5,2.21
20.572329998016357,-1.19,-1.28,-0.18,1.75
20.582719087600708,-0.77,-1.03,0.13,1.29
20.592676877975464,-0.36,-0.88,0.32,1.0
20.602193117141724,0.01,-0.89,0.24,0.92
20.616248846054077,0.27,-1.06,-0.15,1.1
20.62244200706482,0.39,-1.28,-0.61,1.47
20.632714986801147,0.34,-1.62,-0.84,1.85
20.642385959625244,0.26,-2.03,-0.8,2.19
20.652331113815308,0.14,-2.41,-0.6,2.48
20.66641092300415,-0.08,-2.78,-0.36,2.8
20.671864986419678,-0.25,-3.08,-0.11,3.09
20.682920932769775,-0.4,-3.29,0.01,3.31
20.692652940750122,-0.41,-3.38,0.02,3.4
20.70242691040039,-0.38,-3.28,-0.06,3.3
20.71604895591736,-0.38,-3.06,-0.08,3.08
20.721797943115234,-0.39,-2.73,0.03,2.75
20.732860803604126,-0.41,-2.34,0.15,2.38
20.742413997650146,-0.43,-2.05,0.14,2.09
20.752652883529663,-0.46,-1.83,0.02,1.88
20.765849828720093,-0.54,-1.57,-0.16,1.66
20.772612810134888,-0.66,-1.33,-0.28,1.51
20.78291893005371,-0.58,-1.02,-0.23,1.19
20.792309045791626,-0.65,-0.68,-0.04,0.94
20.802428007125854,-0.77,-0.17,0.49,0.92
20.815990924835205,-0.69,0.43,1.25,1.49
20.821873903274536,-0.66,1.04,1.92,2.28
20.83285689353943,-0.54,1.66,2.28,2.87
20.842530965805054,-0.45,2.32,2.19,3.22
20.85225510597229,-0.46,2.95,1.84,3.5
20.866001844406128,-0.56,3.35,1.42,3.68
20.872010946273804,-0.68,3.54,1.06,3.75
20.882906913757324,-0.77,3.58,0.86,3.76
20.892647981643677,-0.79,3.72,1.0,3.93
20.902384996414185,-0.66,3.94,1.59,4.29
20.91581392288208,-0.18,4.19,2.18,4.72
20.922027826309204,0.42,4.18,1.87,4.59
20.932832956314087,1.08,3.71,0.46,3.89
20.942495107650757,1.41,3.1,-0.87,3.51
20.95232391357422,1.4,2.56,-1.33,3.2
20.966126918792725,1.2,1.89,-1.32,2.59
20.97186779975891,0.96,1.16,-1.36,2.02
20.98291301727295,0.81,0.44,-1.55,1.8
20.992410898208618,0.77,-0.24,-1.85,2.01
21.002336978912354,0.94,-0.74,-1.99,2.32
21.016597986221313,1.12,-1.11,-1.87,2.44
21.022648096084595,1.34,-1.3,-1.52,2.4
21.032646894454956,1.53,-1.26,-1.14,2.28
21.042556047439575,1.68,-1.12,-0.86,2.19
21.05235505104065,1.75,-0.75,-0.61,1.99
21.066065073013306,1.7,0.05,-0.34,1.73
21.072130918502808,1.43,0.88,-0.09,1.68
21.08297896385193,0.99,1.29,0.0,1.62
21.09244990348816,0.39,1.28,0.01,1.33
21.102218866348267,-0.11,0.91,0.0,0.91
21.116059064865112,-0.53,0.25,-0.04,0.58
21.12199902534485,-0.9,-0.53,-0.19,1.06
21.132549047470093,-1.18,-1.42,-0.34,1.87
21.142285108566284,-1.18,-2.29,-0.43,2.61
21.15256381034851,-0.99,-3.07,-0.44,3.25
21.16621708869934,-0.65,-3.66,-0.39,3.73
21.171944856643677,-0.32,-4.0,-0.53,4.04
21.18273401260376,-0.02,-3.97,-0.63,4.01
21.19253706932068,0.0,-3.68,-0.59,3.72
21.20243191719055,-0.07,-3.28,-0.55,3.32
21.216547966003418,-0.22,-2.95,-0.44,2.99
21.221970796585083,-0.31,-2.69,-0.21,2.71
21.232934951782227,-0.29,-2.48,0.09,2.49
21.2424259185791,-0.29,-2.27,0.27,2.3
21.25232696533203,-0.17,-2.05,0.25,2.07
21.26655602455139,0.1,-1.85,0.14,1.85
21.271962881088257,0.28,-1.67,-0.02,1.69
21.282992124557495,0.38,-1.43,-0.11,1.48
21.29253101348877,0.52,-1.07,-0.01,1.18
21.302278995513916,0.64,-0.48,0.31,0.85
21.31608295440674,0.64,0.31,0.77,1.04
21.322019815444946,0.6,1.25,1.34,1.92
21.33280301094055,0.6,2.03,1.74,2.74
21.342561960220337,0.54,2.59,1.7,3.14
21.352585077285767,0.39,2.88,1.29,3.17
21.367153882980347,0.06,3.39,0.79,3.48
21.372010946273804,-0.25,3.94,0.45,3.97
21.383012056350708,-0.17,4.21,0.53,4.24
21.392701864242554,-0.12,4.79,1.08,4.91
21.40242099761963,0.05,5.24,1.43,5.43
21.41657280921936,0.05,5.13,0.83,5.19
21.422080993652344,-0.12,4.55,-0.29,4.56
21.433105945587158,-0.38,4.07,-0.82,4.16
21.442568063735962,-0.61,3.36,-0.7,3.48
21.45255994796753,-0.89,2.32,-0.76,2.59
21.466781854629517,-1.03,1.28,-1.19,2.02
21.47212791442871,-1.08,0.37,-1.6,1.96
21.4828679561615,-1.14,-0.32,-1.57,1.96
21.492944955825806,-1.38,-0.66,-1.15,1.91
21.50267004966736,-1.64,-0.71,-0.74,1.93
21.51716685295105,-1.72,-0.65,-0.66,1.95
21.522846937179565,-1.61,-0.54,-0.72,1.84
21.53286600112915,-1.31,-0.31,-0.64,1.49
21.542958974838257,-0.98,0.02,-0.29,1.02
21.552608966827393,-0.65,0.25,0.14,0.71
21.56697392463684,-0.26,0.23,0.29,0.45
21.572759866714478,0.07,-0.09,0.08,0.13
21.58293604850769,0.26,-0.53,-0.32,0.67
21.593148946762085,0.41,-1.03,-0.61,1.26
21.602553129196167,0.48,-1.59,-0.76,1.82
21.61693000793457,0.39,-2.22,-0.77,2.38
21.62285304069519,0.36,-2.9,-0.71,3.0
21.632840871810913,0.34,-3.51,-0.55,3.56
21.643264055252075,0.31,-4.01,-0.41,4.04
21.652613878250122,0.33,-4.32,-0.34,4.34
21.666393041610718,0.2,-4.34,-0.32,4.35
21.672128915786743,-0.03,-4.08,-0.31,4.09
21.68287682533264,-0.21,-3.65,-0.32,3.67
21.692739009857178,-0.32,-3.17,-0.16,3.19
21.702741861343384,-0.34,-2.76,-0.01,2.78
21.716336965560913,-0.38,-2.5,-0.1,2.53
21.722342014312744,-0.44,-2.28,-0.38,2.35
21.73316192626953,-0.5,-2.01,-0.67,2.17
21.743044137954712,-0.66,-1.81,-0.82,2.09
21.75256085395813,-0.78,-1.61,-0.71,1.92
21.767127990722656,-0.92,-1.32,-0.44,1.66
21.772186994552612,-0.95,-0.81,0.09,1.25
21.783017873764038,-1.02,-0.16,0.91,1.37
21.793263912200928,-1.07,0.63,1.8,2.18
21.802708864212036,-1.03,1.43,2.51,3.06
21.81664204597473,-0.95,2.09,2.71,3.55
21.822255849838257,-0.76,2.55,2.46,3.62
21.832958936691284,-0.75,2.91,1.9,3.55
21.84303307533264,-0.73,3.17,1.46,3.56
21.85281491279602,-0.7,3.18,1.31,3.5
21.867264986038208,-0.71,3.05,1.25,3.37
21.872976064682007,-0.79,3.07,1.27,3.41
21.8831307888031,-0.73,3.25,1.56,3.67
21.893386125564575,-0.29,3.54,1.86,4.0
21.902734994888306,0.2,3.65,1.66,4.01
21.917140007019043,0.72,3.46,0.78,3.61
21.92227005958557,1.07,3.22,-0.18,3.39
21.932987928390503,1.18,2.98,-0.63,3.26
21.94328498840332,1.13,2.5,-0.76,2.84
21.952556848526,0.92,1.77,-0.92,2.19
21.967381954193115,0.86,0.96,-1.1,1.69
21.97224497795105,1.16,0.29,-1.2,1.69
21.98323702812195,1.36,-0.21,-1.3,1.89
21.993544816970825,1.47,-0.57,-1.3,2.04
22.00282597541809,1.61,-0.79,-1.17,2.14
22.0165798664093,1.73,-0.85,-1.04,2.19
22.022408962249756,1.91,-0.6,-0.95,2.21
22.032850980758667,1.91,0.05,-0.85,2.09
22.043647050857544,1.56,0.67,-0.75,1.85
22.05266499519348,1.25,1.07,-0.6,1.75
22.067728996276855,0.91,1.19,-0.62,1.62
22.072892904281616,0.35,1.12,-0.8,1.42
22.08317494392395,-0.21,0.65,-0.97,1.18
22.093712091445923,-0.75,0.09,-1.12,1.35
22.102678060531616,-1.27,-0.51,-0.97,1.67
22.11669397354126,-1.52,-1.43,-0.73,2.21
22.122514963150024,-1.44,-2.38,-0.58,2.84
22.132988929748535,-1.1,-3.06,-0.35,3.27
22.143537998199463,-0.69,-3.49,-0.2,3.56
22.152750968933105,-0.23,-3.7,-0.21,3.71
22.16787600517273,0.16,-3.66,-0.34,3.67
22.172334909439087,0.22,-3.49,-0.48,3.52
22.18313193321228,0.22,-3.26,-0.51,3.3
22.19340491294861,0.12,-2.97,-0.38,2.99
22.202889919281006,0.0,-2.71,-0.15,2.71
22.21790909767151,-0.01,-2.55,0.09,2.55
22.222349882125854,-0.02,-2.47,0.36,2.49
22.233139991760254,0.0,-2.28,0.47,2.32
22.243556022644043,0.05,-2.06,0.32,2.08
22.253004789352417,0.16,-1.85,0.11,1.86
22.267998933792114,0.26,-1.63,-0.09,1.65
22.27298903465271,0.34,-1.42,-0.15,1.46
22.283056020736694,0.4,-1.03,0.07,1.1
22.29408097267151,0.41,-0.39,0.62,0.83
22.302736043930054,0.29,0.45,1.37,1.47
22.318027019500732,0.15,1.34,2.17,2.55
22.322952032089233,0.05,2.1,2.77,3.47
22.333277940750122,-0.06,2.62,2.71,3.76
22.344074964523315,-0.03,3.21,2.02,3.79
22.353008031845093,-0.05,3.84,1.0,3.96
22.368006944656372,0.13,4.19,0.32,4.2
22.372380018234253,0.5,4.5,0.33,4.53
22.383119821548462,0.63,4.85,0.75,4.94
22.394438982009888,0.51,5.06,1.1,5.2
22.402853965759277,0.18,5.05,0.87,5.12
22.41871190071106,-0.18,4.74,0.25,4.75
22.42241597175598,-0.57,4.1,-0.25,4.14
22.433214902877808,-0.97,3.29,-0.59,3.48
22.44386601448059,-1.07,2.31,-0.89,2.69
22.452901124954224,-1.11,1.2,-1.31,2.09
22.46772599220276,-1.12,0.18,-1.9,2.21
22.472482919692993,-1.04,-0.64,-2.27,2.57
22.483164072036743,-0.95,-1.14,-2.18,2.63
22.49399209022522,-1.1,-1.19,-1.86,2.46
22.502768993377686,-1.3,-0.9,-1.62,2.26
22.517910957336426,-1.35,-0.57,-1.11,1.83
22.5224289894104,-1.35,-0.39,-0.45,1.47
22.533045053482056,-1.14,-0.23,0.14,1.17
22.544102907180786,-0.82,-0.11,0.53,0.98
22.552668809890747,-0.46,-0.1,0.63,0.78
22.56840991973877,-0.1,-0.21,0.51,0.56
22.572449922561646,0.26,-0.41,0.29,0.56
22.583200931549072,0.54,-0.74,0.03,0.91
22.594223976135254,0.75,-1.18,-0.26,1.42
22.60293984413147,0.91,-1.77,-0.59,2.07
22.618417978286743,0.74,-2.28,-0.89,2.55
22.622504949569702,0.55,-2.7,-0.98,2.92
22.633163928985596,0.42,-3.2,-0.86,3.34
22.644181966781616,0.32,-3.71,-0.69,3.78
22.65294909477234,0.26,-4.12,-0.44,4.15
22.66856098175049,0.16,-4.36,-0.15,4.36
22.672526121139526,-0.02,-4.39,0.02,4.39
22.683297872543335,-0.13,-4.11,0.13,4.11
22.694321870803833,-0.24,-3.66,0.21,3.67
22.703030824661255,-0.28,-3.23,0.26,3.25
22.71867799758911,-0.27,-2.8,0.15,2.81
22.72256898880005,-0.45,-2.28,-0.13,2.32
22.73337697982788,-0.54,-1.65,-0.36,1.77
22.7445228099823,-0.67,-1.07,-0.44,1.33
22.75305700302124,-0.91,-0.59,-0.24,1.11
22.76857590675354,-1.07,-0.06,0.34,1.12
22.7725031375885,-1.2,0.48,1.13,1.71
22.783354997634888,-1.24,1.12,1.92,2.54
22.794366121292114,-1.14,1.82,2.5,3.29
22.802962064743042,-0.9,2.46,2.61,3.69
22.81930184364319,-0.78,2.98,2.34,3.86
22.82243514060974,-0.7,3.42,1.82,3.93
22.83330798149109,-0.69,3.67,1.36,3.97
22.844977140426636,-0.72,3.69,1.04,3.9
22.85284686088562,-0.72,3.6,0.78,3.75
22.86936092376709,-0.74,3.75,0.94,3.93
22.872527837753296,-0.6,4.0,1.69,4.38
22.883268117904663,-0.09,4.18,2.29,4.76
22.894441843032837,0.44,4.1,1.92,4.54
22.903023958206177,0.86,3.57,0.68,3.73
22.91811490058899,1.26,3.06,-0.5,3.34
22.922518014907837,1.36,2.6,-1.15,3.15
22.933308839797974,1.28,1.96,-1.47,2.76
22.945552110671997,1.08,1.15,-1.68,2.3
22.952932119369507,1.0,0.41,-1.91,2.19
22.968617916107178,0.94,-0.29,-2.19,2.4
22.972620964050293,1.01,-0.83,-2.28,2.62
22.983407020568848,1.27,-1.11,-2.06,2.66
22.994753122329712,1.39,-1.22,-1.62,2.45
23.00295400619507,1.49,-1.24,-1.12,2.23
23.018317937850952,1.59,-1.15,-0.66,2.07
23.0226309299469,1.68,-0.79,-0.22,1.86
23.033283948898315,1.63,-0.18,0.09,1.64
23.044425010681152,1.34,0.38,0.21,1.4
23.05294895172119,0.89,0.58,0.17,1.07
23.069434881210327,0.39,0.48,-0.02,0.61
23.072608947753906,-0.12,0.08,-0.29,0.32
23.08273196220398,-0.58,-0.43,-0.5,0.87
23.09487295150757,-0.95,-1.01,-0.58,1.5
23.1025550365448,-1.24,-1.73,-0.64,2.22
23.118271112442017,-1.36,-2.46,-0.66,2.88
23.12249779701233,-1.15,-3.05,-0.59,3.31
23.133430004119873,-0.8,-3.47,-0.54,3.6
23.143083810806274,-0.38,-3.72,-0.63,3.79
23.156235933303833,-0.09,-3.72,-0.67,3.78
23.1626980304718,-0.03,-3.43,-0.6,3.48
23.17258596420288,-0.06,-3.02,-0.4,3.04
23.18337082862854,-0.13,-2.66,-0.21,2.67
23.19342589378357,-0.22,-2.3,-0.03,2.31
23.207452058792114,-0.18,-1.94,0.13,1.95
23.212560892105103,-0.18,-1.69,0.27,1.72
23.22336196899414,-0.06,-1.48,0.39,1.53
23.233484983444214,0.07,-1.36,0.46,1.43
23.243350982666016,0.23,-1.26,0.5,1.37
23.257088899612427,0.35,-1.1,0.61,1.3
23.262671947479248,0.42,-0.76,0.78,1.16
23.272621870040894,0.44,-0.17,1.05,1.15
23.283416032791138,0.38,0.52,1.36,1.5
23.29344892501831,0.27,1.18,1.53,1.95
23.307416915893555,0.04,1.86,1.57,2.43
23.31262707710266,-0.04,2.4,1.44,2.79
23.32328701019287,-0.06,2.8,1.16,3.03
23.333245992660522,0.15,3.11,0.75,3.2
23.343329906463623,0.24,3.39,0.33,3.41
23.356703996658325,0.45,3.83,0.15,3.85
23.36263680458069,0.53,4.58,0.4,4.62
23.37269401550293,0.41,5.19,0.58,5.23
23.383409023284912,0.22,5.4,0.24,5.4
23.39319396018982,-0.03,5.3,-0.43,5.31
23.407535791397095,-0.42,5.09,-0.87,5.18
23.412750005722046,-0.84,4.39,-0.97,4.57
23.42337393760681,-1.04,3.22,-1.13,3.56
23.43341898918152,-1.15,2.1,-1.38,2.76
23.44339680671692,-1.23,1.01,-1.63,2.27
23.45754098892212,-1.35,0.1,-1.81,2.26
23.462764024734497,-1.42,-0.52,-1.68,2.26
23.472721815109253,-1.5,-0.93,-1.44,2.27
23.483455896377563,-1.59,-1.26,-1.25,2.38
23.49369502067566,-1.52,-1.48,-0.95,2.32
23.507192850112915,-1.23,-1.53,-0.42,2.0
23.51268982887268,-0.85,-1.35,0.09,1.59
23.523475885391235,-0.44,-1.13,0.33,1.25
23.533385038375854,-0.14,-1.06,0.19,1.08
23.543497800827026,0.15,-1.16,-0.19,1.18
23.557559967041016,0.34,-1.37,-0.57,1.52
23.56283211708069,0.42,-1.63,-0.79,1.85
23.57343101501465,0.46,-1.98,-0.9,2.22
23.583658933639526,0.41,-2.43,-0.95,2.64
23.593507051467896,0.32,-2.93,-0.79,3.05
23.60723900794983,0.3,-3.37,-0.55,3.42
23.612792015075684,0.29,-3.71,-0.32,3.73
23.62357783317566,0.16,-3.97,-0.22,3.97
23.633445978164673,0.05,-4.03,-0.25,4.03
23.643250942230225,-0.05,-3.77,-0.11,3.77
23.656912088394165,-0.15,-3.36,0.11,3.36
23.662786960601807,-0.24,-2.94,0.28,2.96
23.67272686958313,-0.31,-2.52,0.33,2.56
23.68351101875305,-0.27,-2.12,0.24,2.15
23.693561792373657,-0.37,-1.85,-0.05,1.88
23.708441019058228,-0.44,-1.58,-0.4,1.68
23.712881803512573,-0.52,-1.25,-0.56,1.46
23.72342610359192,-0.64,-0.87,-0.45,1.17
23.733492136001587,-0.74,-0.42,-0.01,0.85
23.74364686012268,-0.82,0.03,0.69,1.07
23.759077787399292,-0.86,0.56,1.47,1.79
23.762955904006958,-0.77,1.26,2.07,2.54
23.773499965667725,-0.7,1.95,2.56,3.29
23.78342080116272,-0.62,2.57,2.72,3.79
23.793229818344116,-0.5,3.07,2.42,3.94
23.80791997909546,-0.39,3.41,1.84,3.89
23.81285786628723,-0.38,3.52,1.4,3.8
23.82346796989441,-0.4,3.43,1.11,3.62
23.833505868911743,-0.47,3.35,0.87,3.49
23.843511819839478,-0.54,3.49,0.97,3.66
23.857959985733032,-0.49,3.51,1.34,3.78
23.862963914871216,-0.13,3.5,1.62,3.85
23.873542070388794,0.22,3.21,1.2,3.43
23.883485078811646,0.67,2.72,0.44,2.83
23.893604040145874,0.97,2.52,-0.11,2.7
23.907038927078247,0.95,2.44,-0.38,2.64
23.912899017333984,0.87,1.96,-0.57,2.21
23.922842979431152,0.92,1.21,-0.88,1.75
23.93353295326233,1.08,0.48,-1.33,1.77
23.943694829940796,1.26,-0.14,-1.86,2.25
23.956939935684204,1.35,-0.69,-2.29,2.74
23.962958097457886,1.39,-1.04,-2.59,3.11
23.972970008850098,1.23,-1.36,-2.58,3.16
23.98363184928894,1.33,-1.48,-2.22,2.98
23.99377179145813,1.54,-1.17,-1.63,2.52
24.007893800735474,1.47,-0.61,-0.98,1.86
24.012973070144653,1.3,-0.01,-0.42,1.36
24.02353310585022,1.04,0.46,0.12,1.14
24.03354501724243,0.53,0.7,0.5,1.01
24.04315209388733,0.02,0.68,0.5,0.84
24.05786681175232,-0.41,0.28,0.28,0.57
24.06301712989807,-0.85,-0.37,-0.11,0.93
24.073627948760986,-1.21,-0.95,-0.35,1.57
24.083522081375122,-1.46,-1.71,-0.52,2.3
24.093739986419678,-1.49,-2.54,-0.66,3.01
24.10830283164978,-1.1,-3.14,-0.58,3.37
24.112865924835205,-0.55,-3.53,-0.35,3.58
24.123538970947266,-0.05,-3.74,-0.28,3.75
24.133644819259644,0.33,-3.69,-0.31,3.71
24.143589973449707,0.45,-3.41,-0.38,3.46
24.15783381462097,0.48,-2.98,-0.46,3.05
24.16292691230774,0.37,-2.51,-0.46,2.57
24.173632860183716,0.23,-2.1,-0.3,2.13
24.183692932128906,0.24,-1.73,-0.1,1.74
24.193758964538574,0.21,-1.53,-0.06,1.54
24.20775294303894,0.24,-1.44,-0.15,1.46
24.21299695968628,0.32,-1.32,-0.23,1.37
24.222856998443604,0.41,-1.23,-0.18,1.3
24.233675003051758,0.51,-1.1,0.06,1.21
24.24352192878723,0.57,-0.75,0.46,1.04
24.257399797439575,0.46,-0.2,1.01,1.12
24.262933015823364,0.3,0.44,1.73,1.81
24.27359890937805,0.14,1.14,2.38,2.64
24.283648014068604,-0.11,1.77,2.73,3.25
24.293579816818237,-0.37,2.31,2.61,3.5
24.30814003944397,-0.35,2.83,2.06,3.51
24.313035011291504,-0.1,3.14,1.33,3.41
24.32369899749756,0.29,3.31,0.72,3.39
24.333590984344482,0.65,3.66,0.7,3.78
24.343482971191406,0.68,4.23,1.04,4.4
24.357259035110474,0.57,4.71,1.17,4.88
24.363006830215454,0.39,4.79,0.66,4.85
24.373661994934082,-0.01,4.67,-0.18,4.67
24.38366198539734,-0.57,4.44,-0.76,4.54
24.39382290840149,-0.99,3.68,-0.92,3.92
24.407130002975464,-1.05,2.68,-1.01,3.05
24.412966012954712,-1.13,1.49,-1.32,2.28
24.423702001571655,-1.04,0.33,-1.85,2.14
24.433715105056763,-0.97,-0.61,-2.21,2.48
24.44357395172119,-0.99,-1.12,-2.23,2.68
24.457788944244385,-1.17,-1.22,-1.96,2.58
24.4630229473114,-1.42,-1.08,-1.65,2.43
24.473718881607056,-1.45,-0.83,-1.27,2.09
24.483621835708618,-1.47,-0.56,-0.74,1.73
24.493396997451782,-1.31,-0.41,-0.22,1.39
24.507972955703735,-1.0,-0.21,0.15,1.03
24.513118982315063,-0.7,0.0,0.39,0.8
24.523800134658813,-0.34,0.05,0.26,0.43
24.53364586830139,0.05,-0.18,-0.14,0.23
24.54369592666626,0.29,-0.5,-0.62,0.84
24.55814790725708,0.39,-0.92,-0.99,1.4
24.563177824020386,0.53,-1.37,-1.21,1.9
24.57375407218933,0.49,-1.8,-1.19,2.21
24.58370804786682,0.42,-2.32,-1.01,2.56
24.593604803085327,0.24,-2.9,-0.72,2.99
24.607342004776,0.03,-3.37,-0.33,3.38
24.6129789352417,0.05,-3.66,0.03,3.66
24.623736143112183,-0.02,-3.85,0.19,3.85
24.633716821670532,-0.09,-3.79,0.23,3.79
24.64345693588257,-0.21,-3.5,0.2,3.51
24.658041954040527,-0.29,-3.11,0.24,3.13
24.663177967071533,-0.4,-2.72,0.31,2.76
24.673834085464478,-0.47,-2.33,0.29,2.39
24.6838538646698,-0.53,-1.95,0.11,2.02
24.69345211982727,-0.61,-1.62,-0.16,1.73
24.707774877548218,-0.71,-1.37,-0.48,1.61
24.713188886642456,-0.75,-1.11,-0.59,1.46
24.72402000427246,-0.77,-0.8,-0.43,1.19
24.733712911605835,-0.85,-0.36,0.17,0.93
24.74360203742981,-0.96,0.23,1.11,1.48
24.758515119552612,-1.05,0.96,2.06,2.5
24.763128995895386,-1.05,1.81,2.67,3.39
24.77377700805664,-0.94,2.56,2.84,3.93
24.78376793861389,-0.86,3.13,2.47,4.07
24.79367184638977,-0.82,3.48,1.74,3.97
24.80739188194275,-0.77,3.7,1.11,3.93
24.813053846359253,-0.78,3.8,0.89,3.98
24.823734045028687,-0.76,3.99,1.16,4.22
24.83392095565796,-0.62,4.24,1.71,4.61
24.843703985214233,-0.41,4.31,2.07,4.79
24.857971906661987,0.22,4.22,1.75,4.57
24.86323094367981,0.63,3.63,0.65,3.74
24.874083995819092,0.89,3.02,-0.37,3.17
24.883992910385132,1.2,2.87,-0.82,3.21
24.89354395866394,1.09,2.59,-0.89,2.94
24.90847897529602,0.95,1.93,-0.98,2.36
24.91316795349121,0.91,1.07,-1.2,1.84
24.923825979232788,0.95,0.16,-1.61,1.87
24.933936834335327,1.16,-0.61,-2.03,2.41
24.943776845932007,1.28,-1.2,-2.13,2.75
24.957661867141724,1.37,-1.62,-1.84,2.8
24.963120937347412,1.47,-1.98,-1.35,2.81
24.97325587272644,1.51,-2.22,-0.87,2.82
24.98393988609314,1.56,-2.06,-0.55,2.64
24.99397587776184,1.47,-1.47,-0.44,2.12
25.007616996765137,1.15,-0.6,-0.4,1.35
25.013293981552124,0.74,0.04,-0.32,0.8
25.02314591407776,0.35,0.43,-0.25,0.6
25.033765077590942,-0.04,0.51,-0.24,0.56
25.043450117111206,-0.42,0.23,-0.3,0.56
25.056401014328003,-0.78,-0.18,-0.41,0.89
25.063540935516357,-1.1,-0.68,-0.52,1.39
25.074113130569458,-1.08,-1.37,-0.63,1.85
25.08389401435852,-1.07,-2.22,-0.71,2.56
25.09393000602722,-0.93,-2.97,-0.57,3.16
25.108198881149292,-0.58,-3.45,-0.38,3.51
25.113322019577026,-0.34,-3.6,-0.25,3.62
25.124002933502197,-0.17,-3.36,-0.18,3.36
25.133922815322876,-0.09,-3.02,-0.13,3.02
25.14375400543213,-0.1,-2.75,-0.02,2.75
25.158250093460083,-0.09,-2.48,0.12,2.48
25.163480043411255,-0.05,-2.16,0.35,2.18
25.17396593093872,-0.02,-1.87,0.59,1.96
25.183861017227173,0.06,-1.67,0.78,1.84
25.193608045578003,0.22,-1.53,0.78,1.73
25.208462953567505,0.36,-1.34,0.67,1.54
25.21353507041931,0.5,-1.15,0.59,1.38
25.224228143692017,0.6,-0.97,0.47,1.23
25.23381996154785,0.54,-0.58,0.57,0.97
25.243884801864624,0.4,-0.03,0.97,1.04
25.258983850479126,0.3,0.55,1.46,1.58
25.263502836227417,0.12,1.07,1.82,2.11
25.27412486076355,-0.02,1.56,1.94,2.48
25.28392195701599,-0.09,2.07,1.85,2.77
25.29390001296997,-0.07,2.5,1.57,2.95
25.308408975601196,0.09,2.82,1.14,3.04
25.31355881690979,0.25,2.96,0.56,3.02
25.32424283027649,0.33,3.29,0.19,3.31
25.333810091018677,0.46,3.99,0.35,4.03
25.343901872634888,0.45,4.52,0.73,4.6
25.358463048934937,0.33,4.52,0.63,4.57
25.363552808761597,0.21,4.19,-0.01,4.19
25.374086141586304,-0.08,3.87,-0.57,3.91
25.383890867233276,-0.62,3.1,-0.71,3.24
25.39387011528015,-0.69,2.02,-0.77,2.26
25.408199071884155,-0.77,1.13,-0.98,1.68
25.414171934127808,-1.02,0.41,-1.34,1.73
25.42420196533203,-1.23,-0.17,-1.53,1.97
25.434005975723267,-1.54,-0.54,-1.54,2.24
25.443827867507935,-1.81,-0.63,-1.49,2.42
25.45875096321106,-1.96,-0.62,-1.44,2.5
25.463824033737183,-1.88,-0.56,-1.23,2.31
25.47414803504944,-1.53,-0.26,-0.72,1.71
25.483917951583862,-1.29,0.14,-0.09,1.3
25.493955850601196,-0.98,0.42,0.29,1.1
25.508136987686157,-0.53,0.48,0.31,0.77
25.513947010040283,-0.08,0.21,0.05,0.23
25.524348974227905,0.24,-0.24,-0.32,0.46
25.534055948257446,0.4,-0.72,-0.6,1.01
25.543822050094604,0.42,-1.22,-0.82,1.52
25.558303117752075,0.37,-1.85,-0.96,2.11
25.564010858535767,0.36,-2.5,-0.86,2.66
25.57421898841858,0.4,-3.13,-0.65,3.22
25.58376693725586,0.4,-3.73,-0.46,3.77
25.59398579597473,0.45,-4.26,-0.36,4.29
25.60936999320984,0.42,-4.48,-0.32,4.51
25.613931894302368,0.34,-4.37,-0.26,4.39
25.62420892715454,0.18,-3.95,-0.12,3.95
25.633893966674805,-0.04,-3.43,0.09,3.43
25.643983125686646,-0.2,-2.9,0.13,2.9
25.658987998962402,-0.34,-2.43,0.06,2.45
25.664060831069946,-0.51,-2.04,-0.08,2.1
25.674248933792114,-0.59,-1.63,-0.26,1.75
25.6839599609375,-0.72,-1.29,-0.45,1.54
25.69368290901184,-0.82,-1.01,-0.48,1.38
25.70762801170349,-0.85,-0.68,-0.3,1.12
25.714335918426514,-0.86,-0.19,0.13,0.89
25.723551988601685,-0.86,0.44,0.85,1.28
25.734029054641724,-0.88,1.17,1.62,2.18
25.743619918823242,-0.86,1.9,2.21,3.03
25.757668018341064,-0.91,2.5,2.55,3.68
25.76428198814392,-0.85,3.03,2.52,4.03
25.77423405647278,-0.86,3.49,2.22,4.22
25.783914804458618,-0.86,3.76,1.77,4.24
25.79404902458191,-0.84,3.92,1.4,4.24
25.80924701690674,-0.72,4.13,1.38,4.41
25.814440965652466,-0.54,4.39,1.66,4.72
25.824229955673218,-0.22,4.44,1.81,4.79
25.834038972854614,0.23,4.37,1.43,4.6
25.844241857528687,0.7,4.04,0.55,4.13
25.859895944595337,1.15,3.67,-0.24,3.85
25.864457845687866,1.17,3.16,-0.71,3.44
25.874197959899902,0.94,2.51,-1.07,2.88
25.88399600982666,0.71,1.71,-1.5,2.38
25.89412808418274,0.61,0.67,-1.97,2.16
25.908759832382202,0.69,-0.34,-2.39,2.51
25.91343379020691,0.83,-1.0,-2.55,2.86
25.92429494857788,0.92,-1.35,-2.36,2.87
25.93399691581726,1.1,-1.61,-1.84,2.68
25.944211959838867,1.22,-1.71,-1.25,2.44
25.95989489555359,1.35,-1.56,-0.75,2.19
25.963544130325317,1.42,-1.23,-0.41,1.92
25.974298000335693,1.32,-0.69,-0.21,1.5
25.984095811843872,1.07,-0.02,-0.03,1.07
25.993953943252563,0.68,0.42,0.04,0.8
26.007635831832886,0.29,0.43,-0.1,0.52
26.013569116592407,-0.18,0.07,-0.46,0.49
26.024294137954712,-0.62,-0.42,-0.66,0.99
26.034007787704468,-1.11,-0.98,-0.68,1.62
26.044225931167603,-1.43,-1.65,-0.58,2.25
26.059090852737427,-1.52,-2.35,-0.41,2.82
26.06359601020813,-1.37,-2.94,-0.2,3.24
26.074549913406372,-1.08,-3.35,-0.07,3.52
26.08416485786438,-0.7,-3.5,-0.08,3.57
26.09431791305542,-0.27,-3.4,-0.21,3.41
26.110037088394165,-0.05,-3.03,-0.29,3.04
26.113549947738647,0.13,-2.55,-0.28,2.56
26.12438988685608,0.19,-2.15,-0.16,2.16
26.134072065353394,0.14,-1.93,-0.04,1.93
26.144218921661377,0.17,-1.74,0.17,1.75
26.1596999168396,0.21,-1.63,0.27,1.66
26.163586854934692,0.24,-1.61,0.18,1.63
26.174503087997437,0.32,-1.56,0.1,1.59
26.18413281440735,0.4,-1.47,0.11,1.52
26.194358110427856,0.44,-1.37,0.29,1.46
26.209481954574585,0.48,-1.19,0.63,1.42
26.213544130325317,0.52,-0.86,0.94,1.37
26.224358797073364,0.5,-0.3,1.32,1.44
26.2341411113739,0.52,0.38,1.87,1.97
26.24408197402954,0.54,1.08,2.4,2.68
26.25747513771057,0.43,1.7,2.71,3.22
26.263580083847046,0.45,2.24,2.56,3.43
26.273591995239258,0.42,2.72,1.88,3.33
26.284099817276,0.49,3.08,0.94,3.25
26.29391312599182,0.57,3.44,0.35,3.5
26.30682396888733,0.68,3.93,0.33,4.0
26.31343698501587,0.68,4.45,0.74,4.56
26.3243567943573,0.67,4.57,0.99,4.72
26.33398699760437,0.01,4.66,0.63,4.7
26.34395480155945,-0.62,4.52,-0.16,4.56
26.356798887252808,-1.35,3.79,-0.78,4.09
26.363602876663208,-1.65,2.81,-1.12,3.44
26.374282121658325,-1.45,1.71,-1.29,2.58
26.384044885635376,-1.37,0.71,-1.56,2.19
26.394092798233032,-1.36,0.0,-1.75,2.21
26.40758204460144,-1.56,-0.41,-1.85,2.45
26.414227962493896,-1.7,-0.5,-1.73,2.47
26.424425840377808,-1.59,-0.36,-1.5,2.21
26.43408703804016,-1.72,-0.24,-1.24,2.13
26.444123029708862,-1.61,-0.03,-0.84,1.81
26.457756996154785,-1.28,0.17,-0.45,1.36
26.46441102027893,-0.89,0.32,-0.14,0.95
26.474193811416626,-0.32,0.29,-0.03,0.43
26.484025955200195,0.14,-0.01,-0.15,0.2
26.494051933288574,0.53,-0.38,-0.39,0.75
26.508075952529907,0.79,-0.83,-0.55,1.27
26.514057874679565,0.89,-1.32,-0.65,1.71
26.524370908737183,0.87,-1.86,-0.67,2.15
26.534098863601685,0.95,-2.46,-0.8,2.75
26.544193029403687,0.77,-3.03,-0.85,3.23
26.55708909034729,0.64,-3.57,-0.84,3.72
26.56358504295349,0.51,-3.95,-0.78,4.05
26.57437491416931,0.3,-4.08,-0.61,4.13
26.584144830703735,0.14,-3.93,-0.4,3.95
26.59399390220642,-0.04,-3.62,-0.25,3.62
26.607183933258057,-0.16,-3.2,-0.06,3.2
26.61358094215393,-0.21,-2.74,0.12,2.75
26.624445915222168,-0.23,-2.33,0.14,2.34
26.63405680656433,-0.25,-1.96,0.04,1.97
26.644091844558716,-0.3,-1.58,-0.1,1.61
26.65729308128357,-0.37,-1.21,-0.22,1.28
26.66372799873352,-0.54,-0.9,-0.31,1.09
26.674405813217163,-0.72,-0.58,-0.23,0.95
26.68422293663025,-0.83,-0.25,0.03,0.86
26.69413685798645,-0.93,0.05,0.42,1.02
26.70716094970703,-1.06,0.39,0.93,1.46
26.713652849197388,-1.11,0.82,1.55,2.07
26.724483013153076,-1.06,1.38,2.02,2.66
26.734104871749878,-0.87,2.04,2.3,3.19
26.744046926498413,-0.8,2.67,2.32,3.62
26.75675892829895,-0.75,3.22,2.05,3.89
26.76435399055481,-0.8,3.57,1.59,3.98
26.77426505088806,-0.86,3.89,1.2,4.16
26.784114122390747,-0.85,4.3,1.28,4.56
26.793954133987427,-0.6,4.63,1.73,4.97
26.80730414390564,-0.21,4.75,1.92,5.12
26.814302921295166,0.33,4.6,1.47,4.84
26.82434582710266,0.72,3.83,0.57,3.93
26.833980798721313,1.22,3.11,-0.34,3.35
26.844043970108032,1.5,2.67,-0.89,3.18
26.857162952423096,1.31,2.06,-1.36,2.79
26.86440396308899,1.07,1.35,-1.82,2.5
26.874185800552368,0.85,0.53,-2.19,2.4
26.884044885635376,0.7,-0.27,-2.35,2.46
26.894032955169678,0.77,-0.8,-2.17,2.43
26.906949996948242,0.89,-1.08,-1.73,2.22
26.914500951766968,1.0,-1.24,-1.21,2.0
26.924689054489136,1.21,-1.39,-0.7,1.97
26.93408179283142,1.34,-1.5,-0.28,2.03
26.944276094436646,1.47,-1.41,0.0,2.03
26.95757293701172,1.47,-0.94,0.0,1.74
26.963741064071655,1.29,-0.27,-0.14,1.32
26.974578142166138,1.08,0.19,-0.26,1.12
26.984364986419678,0.71,0.2,-0.37,0.82
26.994303941726685,0.24,-0.1,-0.49,0.55
27.007555961608887,-0.17,-0.45,-0.66,0.81
27.013701915740967,-0.52,-0.89,-0.69,1.24
27.024501085281372,-0.85,-1.4,-0.58,1.73
27.034183025360107,-1.1,-1.9,-0.44,2.23
27.04452896118164,-1.12,-2.42,-0.28,2.68
27.057946920394897,-0.89,-2.84,-0.25,2.98
27.063838958740234,-0.58,-3.02,-0.28,3.08
27.074540853500366,-0.21,-3.02,-0.38,3.05
27.084448099136353,0.08,-3.01,-0.47,3.04
27.09449291229248,0.27,-2.82,-0.42,2.86
27.107801914215088,0.39,-2.58,-0.33,2.63
27.113801956176758,0.42,-2.27,-0.21,2.31
27.12454891204834,0.38,-1.99,-0.06,2.02
27.134138822555542,0.3,-1.76,0.05,1.78
27.1442289352417,0.21,-1.54,0.19,1.56
27.157360792160034,0.22,-1.37,0.29,1.41
27.163771867752075,0.29,-1.24,0.33,1.31
27.174407958984375,0.34,-1.14,0.31,1.22
27.184207916259766,0.44,-0.96,0.4,1.12
27.19415593147278,0.48,-0.56,0.65,0.98
27.209079027175903,0.34,-0.04,0.98,1.03
27.21416401863098,0.27,0.54,1.48,1.59
27.224497079849243,0.14,1.09,1.91,2.2
27.234121084213257,0.02,1.57,2.13,2.64
27.244269132614136,-0.04,1.97,2.09,2.87
27.25912308692932,-0.09,2.41,1.71,2.95
27.26432204246521,-0.07,2.87,1.27,3.13
27.274467945098877,0.1,3.23,0.87,3.34
27.284001111984253,0.19,3.67,0.79,3.75
27.294330835342407,0.16,4.28,1.02,4.4
27.308616876602173,0.05,4.81,1.18,4.95
27.31450390815735,-0.2,4.99,0.73,5.04
27.32474398612976,-0.62,4.85,-0.12,4.89
27.334283113479614,-0.99,4.52,-0.83,4.7
27.34445881843567,-1.27,3.55,-1.32,3.99
27.35769486427307,-1.28,2.39,-1.62,3.15
27.364721059799194,-1.36,1.29,-1.91,2.67
27.37475895881653,-1.36,0.3,-2.03,2.46
27.384622812271118,-1.38,-0.47,-1.85,2.35
27.395074129104614,-1.44,-0.96,-1.5,2.29
27.408036947250366,-1.53,-1.28,-1.22,2.33
27.41391682624817,-1.63,-1.43,-0.97,2.37
27.424686908721924,-1.6,-1.45,-0.71,2.27
27.4342520236969,-1.45,-1.25,-0.34,1.94
27.444652795791626,-1.4,-0.81,-0.03,1.61
27.458378076553345,-1.11,-0.42,0.11,1.19
27.463926076889038,-0.91,-0.28,-0.01,0.95
27.47477102279663,-0.52,-0.45,-0.43,0.81
27.484548807144165,-0.19,-0.7,-0.92,1.17
27.49476408958435,0.05,-1.02,-1.2,1.57
27.508023977279663,0.25,-1.46,-1.2,1.9
27.514055013656616,0.4,-1.91,-1.02,2.2
27.525085926055908,0.3,-2.46,-0.79,2.6
27.53524613380432,0.32,-3.04,-0.57,3.1
27.5452299118042,0.33,-3.54,-0.5,3.59
27.558727979660034,0.25,-3.83,-0.44,3.86
27.564198970794678,0.21,-3.89,-0.45,3.92
27.574105978012085,0.15,-3.62,-0.39,3.64
27.585134983062744,0.07,-3.16,-0.19,3.16
27.595229864120483,0.03,-2.76,0.01,2.76
27.60810899734497,0.0,-2.4,0.19,2.4
27.614015817642212,-0.04,-2.08,0.18,2.08
27.624210119247437,-0.1,-1.83,0.02,1.83
27.635707139968872,-0.26,-1.5,-0.16,1.53
27.64474892616272,-0.35,-1.17,-0.31,1.25
27.65748906135559,-0.39,-0.89,-0.3,1.01
27.66403293609619,-0.43,-0.56,-0.08,0.71
27.674060106277466,-0.57,-0.14,0.49,0.76
27.68535590171814,-0.62,0.35,1.17,1.36
27.695154905319214,-0.58,0.97,1.73,2.06
27.708965063095093,-0.49,1.61,2.02,2.62
27.714163064956665,-0.43,2.22,1.96,2.99
27.72408699989319,-0.39,2.74,1.58,3.18
27.73518991470337,-0.41,3.11,1.2,3.35
27.744925022125244,-0.43,3.35,0.99,3.51
27.757740020751953,-0.6,3.43,0.96,3.61
27.76410984992981,-0.81,3.58,1.2,3.86
27.774192094802856,-0.65,3.82,1.7,4.23
27.784887075424194,-0.14,4.06,2.01,4.53
27.795010805130005,0.28,3.95,1.6,4.27
27.807986974716187,0.7,3.37,0.41,3.46
27.814098119735718,1.07,3.07,-0.48,3.28
27.82408308982849,0.96,2.94,-0.8,3.19
27.835181951522827,0.64,2.49,-0.85,2.7
27.845178842544556,0.56,1.74,-1.02,2.09
27.85836911201477,0.52,1.0,-1.39,1.78
27.864242792129517,0.57,0.22,-1.82,1.91
27.874218940734863,0.79,-0.47,-2.14,2.32
27.885602951049805,0.95,-1.0,-2.14,2.54
27.89498782157898,1.18,-1.36,-1.85,2.58
27.90836787223816,1.38,-1.48,-1.45,2.48
27.91410183906555,1.6,-1.32,-1.14,2.36
27.924196004867554,1.56,-0.9,-0.94,2.03
27.935354948043823,1.37,-0.09,-0.62,1.5
27.945110082626343,1.17,0.76,-0.2,1.4
27.957947969436646,0.85,1.19,0.11,1.46
27.964157819747925,0.41,1.14,0.08,1.21
27.974189043045044,0.01,0.79,-0.17,0.8
27.98575496673584,-0.35,0.23,-0.44,0.6
27.99510407447815,-0.53,-0.4,-0.58,0.88
28.008217096328735,-0.67,-1.14,-0.67,1.48
28.013997793197632,-0.69,-1.87,-0.67,2.1
28.02416491508484,-0.55,-2.6,-0.55,2.71
28.03520894050598,-0.28,-3.13,-0.46,3.17
28.044625997543335,-0.05,-3.37,-0.46,3.4
28.059345960617065,0.19,-3.36,-0.55,3.41
28.06409001350403,0.25,-3.19,-0.61,3.25
28.074756860733032,0.21,-2.94,-0.51,2.99
28.08543610572815,0.21,-2.65,-0.3,2.67
28.094910860061646,0.16,-2.41,-0.04,2.41
28.109189987182617,0.12,-2.12,0.14,2.12
28.114117860794067,0.19,-1.76,0.33,1.8
28.124701976776123,0.19,-1.5,0.37,1.55
28.1353919506073,0.28,-1.33,0.32,1.39
28.144856929779053,0.47,-1.21,0.26,1.32
28.159690141677856,0.59,-1.08,0.24,1.25
28.16412591934204,0.64,-0.93,0.22,1.15
28.174798011779785,0.66,-0.7,0.24,0.99
28.18542504310608,0.68,-0.34,0.51,0.91
28.194827795028687,0.65,0.2,0.98,1.19
28.21010708808899,0.53,0.74,1.45,1.71
28.214093923568726,0.45,1.24,1.74,2.18
28.22472310066223,0.35,1.64,1.74,2.41
28.23534893989563,0.32,1.99,1.39,2.44
28.24465584754944,0.27,2.34,0.95,2.53
28.2607901096344,0.34,2.57,0.59,2.65
28.26467800140381,0.39,2.79,0.51,2.86
28.27467393875122,0.51,3.19,0.77,3.32
28.28589701652527,0.36,3.69,1.07,3.85
28.29546809196472,0.11,4.12,1.06,4.25
28.309759855270386,-0.16,4.17,0.44,4.19
28.314101934432983,-0.52,3.99,-0.35,4.03
28.324827909469604,-0.77,3.66,-0.67,3.79
28.335819005966187,-0.98,2.86,-0.75,3.11
28.344917058944702,-0.99,1.74,-0.98,2.22
28.36016011238098,-0.94,0.65,-1.5,1.88
28.364189863204956,-0.91,-0.3,-2.05,2.26
28.374732971191406,-0.9,-0.94,-2.05,2.42
28.3859441280365,-1.0,-1.23,-1.6,2.25
28.394958972930908,-1.18,-1.24,-1.08,2.02
28.40960383415222,-1.4,-1.09,-0.88,1.98
28.41436791419983,-1.5,-0.8,-0.76,1.86
28.424373865127563,-1.31,-0.34,-0.5,1.44
28.435869932174683,-0.97,0.25,-0.24,1.03
28.44493293762207,-0.72,0.66,-0.05,0.97
28.459012985229492,-0.36,0.9,0.02,0.96
28.46429705619812,0.04,0.97,-0.12,0.97
28.474358797073364,0.4,0.73,-0.46,0.95
28.486514806747437,0.68,0.27,-0.8,1.08
28.494871854782104,0.8,-0.28,-1.01,1.31
28.509567975997925,0.88,-0.92,-1.07,1.66
28.51427388191223,0.71,-1.67,-1.03,2.08
28.52504801750183,0.59,-2.38,-0.87,2.6
28.536195993423462,0.49,-2.96,-0.6,3.05
28.544819116592407,0.37,-3.43,-0.37,3.46
28.56122398376465,0.28,-3.68,-0.24,3.69
28.564348936080933,0.11,-3.61,-0.22,3.61
28.574984788894653,0.01,-3.25,-0.21,3.25
28.58609414100647,-0.01,-2.83,-0.11,2.83
28.59531807899475,0.01,-2.5,0.11,2.5
28.609869956970215,-0.07,-2.24,0.22,2.25
28.61430811882019,-0.19,-2.03,0.1,2.04
28.625113010406494,-0.33,-1.86,-0.28,1.9
28.63636612892151,-0.44,-1.7,-0.69,1.88
28.64520287513733,-0.58,-1.56,-0.78,1.83
28.659719944000244,-0.73,-1.33,-0.47,1.58
28.66421914100647,-0.92,-0.95,0.14,1.32
28.67439103126526,-1.06,-0.48,0.91,1.47
28.686304807662964,-1.19,0.0,1.5,1.91
28.694824934005737,-1.02,0.64,1.86,2.21
28.710465908050537,-0.98,1.31,2.0,2.58
28.714311838150024,-0.93,1.91,1.92,2.86
28.72435688972473,-0.82,2.4,1.59,2.99
28.736629009246826,-0.79,2.74,1.12,3.06
28.744813919067383,-0.74,2.91,0.63,3.06
28.760413885116577,-0.73,2.92,0.37,3.03
28.76424813270569,-0.63,2.92,0.43,3.01
28.77436900138855,-0.45,3.02,0.8,3.15
28.786921977996826,-0.23,3.14,1.23,3.38
28.79510188102722,0.31,3.29,1.28,3.54
28.81042504310608,0.8,3.31,0.79,3.49
28.81431293487549,1.05,3.36,0.18,3.52
28.82522988319397,1.13,3.38,-0.21,3.57
28.83468794822693,1.19,2.91,-0.48,3.18
28.84497594833374,1.12,2.03,-0.91,2.49
28.86044192314148,0.91,1.14,-1.56,2.13
28.864432096481323,0.8,0.15,-2.2,2.34
28.875212907791138,0.81,-0.7,-2.5,2.71
28.88474202156067,0.83,-1.33,-2.25,2.74
28.895155906677246,0.91,-1.69,-1.66,2.53
28.910154104232788,1.0,-1.66,-0.97,2.16
28.914418935775757,1.13,-1.5,-0.45,1.93
28.924465894699097,1.09,-1.26,-0.21,1.67
28.935335874557495,1.18,-0.69,-0.12,1.37
28.945194005966187,1.13,0.1,-0.07,1.13
28.96002984046936,0.87,0.74,0.01,1.14
28.96439290046692,0.59,1.15,0.04,1.29
28.974403142929077,0.16,1.27,-0.16,1.29
28.985201120376587,-0.3,1.03,-0.56,1.21
28.995365858078003,-0.66,0.48,-0.82,1.15
29.01065993309021,-1.03,-0.14,-0.91,1.38
29.014428853988647,-1.22,-0.82,-0.81,1.67
29.025190114974976,-1.21,-1.54,-0.64,2.06
29.0346360206604,-1.15,-2.14,-0.36,2.45
29.04516100883484,-0.87,-2.51,-0.25,2.66
29.060555934906006,-0.48,-2.66,-0.25,2.71
29.064515829086304,-0.06,-2.58,-0.35,2.6
29.075201988220215,0.1,-2.38,-0.41,2.41
29.084832906723022,0.12,-2.12,-0.36,2.15
29.095629930496216,0.1,-1.91,-0.24,1.92
29.111232042312622,0.04,-1.8,-0.09,1.8
29.11458706855774,-0.03,-1.73,0.05,1.73
29.124536991119385,-0.06,-1.68,0.18,1.69
29.13528084754944,0.01,-1.64,0.22,1.65
29.144840002059937,0.15,-1.64,0.17,1.65
29.159909963607788,0.34,-1.65,0.1,1.68
29.16423797607422,0.52,-1.65,0.15,1.73
29.175184965133667,0.64,-1.59,0.22,1.72
29.18469786643982,0.72,-1.36,0.31,1.56
29.195645093917847,0.68,-0.94,0.41,1.23
29.211050987243652,0.6,-0.37,0.74,1.02
29.214575052261353,0.52,0.27,1.19,1.32
29.225263833999634,0.43,0.81,1.62,1.86
29.234753847122192,0.38,1.26,1.77,2.2
29.24531579017639,0.39,1.77,1.57,2.39
29.26169180870056,0.47,2.26,1.06,2.54
29.2645480632782,0.53,2.58,0.5,2.68
29.275259017944336,0.62,2.81,0.27,2.89
29.284997940063477,0.64,3.15,0.52,3.25
29.29558300971985,0.49,3.61,0.92,3.75
29.31071901321411,0.25,3.87,1.02,4.0
29.314486980438232,-0.01,3.88,0.71,3.94
29.32534098625183,-0.36,3.8,0.29,3.82
29.33514904975891,-0.58,3.71,0.09,3.75
29.346076011657715,-0.69,3.32,-0.02,3.39
29.36137080192566,-0.75,2.5,-0.27,2.62
29.36462092399597,-0.78,1.55,-0.8,1.91
29.374403953552246,-0.85,0.47,-1.47,1.76
29.385517835617065,-0.93,-0.49,-2.01,2.26
29.39526891708374,-0.93,-1.12,-2.22,2.65
29.412183046340942,-1.01,-1.55,-2.15,2.83
29.414583921432495,-1.17,-1.82,-1.87,2.85
29.425420999526978,-1.2,-1.81,-1.35,2.55
29.434816122055054,-1.24,-1.5,-0.83,2.11
29.445762872695923,-1.21,-0.87,-0.42,1.54
29.46160387992859,-1.28,-0.16,-0.09,1.29
29.464558839797974,-1.1,0.57,0.11,1.24
29.47525906562805,-0.78,1.16,0.15,1.4
29.484691858291626,-0.47,1.47,-0.18,1.55
29.49584197998047,0.0,1.45,-0.74,1.62
29.51232600212097,0.4,1.14,-1.23,1.72
29.51457691192627,0.63,0.63,-1.42,1.67
29.525129079818726,0.77,0.0,-1.4,1.59
29.53487491607666,0.78,-0.7,-1.2,1.59
29.545854806900024,0.55,-1.45,-0.94,1.81
29.56178307533264,0.4,-2.15,-0.64,2.27
29.56461787223816,0.29,-2.69,-0.41,2.73
29.5746169090271,0.24,-3.01,-0.21,3.02
29.585423946380615,0.1,-3.01,-0.06,3.01
29.595381021499634,0.01,-2.76,-0.02,2.76
29.610926866531372,-0.04,-2.43,0.05,2.43
29.614526987075806,-0.08,-2.14,0.14,2.14
29.6251699924469,-0.14,-1.79,0.14,1.8
29.63504195213318,-0.21,-1.44,0.06,1.45
29.64580988883972,-0.31,-1.18,-0.09,1.22
29.661343812942505,-0.39,-1.01,-0.27,1.11
29.664704084396362,-0.46,-1.0,-0.46,1.19
29.674607038497925,-0.53,-1.11,-0.54,1.34
29.685590028762817,-0.58,-1.21,-0.48,1.42
29.69521689414978,-0.6,-1.23,-0.3,1.4
29.711068868637085,-0.76,-1.03,-0.03,1.28
29.714648962020874,-0.85,-0.66,0.45,1.16
29.72541880607605,-0.88,-0.18,0.83,1.22
29.73500084877014,-0.96,0.34,1.13,1.52
29.745468854904175,-0.89,0.93,1.35,1.86
29.76126194000244,-0.77,1.48,1.39,2.17
29.76474094390869,-0.63,1.95,1.23,2.39
29.774629831314087,-0.61,2.3,0.88,2.53
29.78554391860962,-0.54,2.54,0.62,2.66
29.795411825180054,-0.49,2.7,0.66,2.82
29.811983823776245,-0.36,2.79,0.91,2.95
29.81473183631897,-0.13,2.99,1.17,3.21
29.82466197013855,0.16,3.22,1.21,3.44
29.835461854934692,0.48,3.41,0.88,3.55
29.84528613090515,0.78,3.59,0.42,3.69
29.861395120620728,1.02,3.9,0.19,4.03
29.864702939987183,1.05,4.03,0.13,4.16
29.8746600151062,0.93,3.45,-0.26,3.58
29.885576009750366,0.74,2.55,-0.97,2.82
29.895437002182007,0.63,1.67,-1.74,2.49
29.911350965499878,0.39,0.77,-2.28,2.43
29.91464591026306,0.26,-0.19,-2.46,2.48
29.925474882125854,0.2,-1.08,-2.49,2.72
29.934979915618896,0.36,-1.79,-2.38,2.99
29.945802927017212,0.64,-2.36,-2.08,3.21
29.962570905685425,0.87,-2.69,-1.48,3.19
29.96484398841858,1.07,-2.7,-0.83,3.02
29.974697828292847,1.21,-2.41,-0.46,2.73
29.98554491996765,1.27,-1.84,-0.5,2.29
29.995441913604736,1.24,-0.97,-0.73,1.73
30.01218008995056,0.99,-0.07,-0.87,1.31
30.042689085006714,0.65,0.55,-0.83,1.18
30.044883966445923,0.35,0.87,-0.67,1.15
30.04565691947937,0.05,1.03,-0.63,1.2
30.0463969707489,-0.3,1.0,-0.82,1.32
30.060827016830444,-0.6,0.77,-1.09,1.46
30.064351797103882,-0.78,0.33,-1.19,1.46
30.075536966323853,-0.79,-0.18,-1.05,1.32
30.085165977478027,-0.75,-0.58,-0.75,1.2
30.09662413597107,-0.69,-0.88,-0.44,1.2
30.11112904548645,-0.42,-1.0,-0.28,1.12
30.114426851272583,-0.09,-1.06,-0.27,1.09
30.125550985336304,0.05,-1.05,-0.32,1.09
30.13552498817444,0.13,-0.9,-0.35,0.97
30.145743131637573,0.12,-0.75,-0.33,0.82
30.16050887107849,0.15,-0.61,-0.27,0.68
30.16485595703125,0.13,-0.44,-0.08,0.46
30.17549991607666,0.11,-0.42,0.14,0.45
30.185449838638306,0.21,-0.49,0.25,0.58
