time,ax,ay,az,atotal
0.013093948364257812,0.7,-0.37,1.6,1.78
0.013527870178222656,0.68,-0.11,0.85,1.09
0.028399944305419922,0.04,0.09,-0.14,0.17
0.030598878860473633,-0.19,0.01,-0.55,0.58
0.04048299789428711,-0.14,-0.04,-0.53,0.54
0.050638675689697266,-0.13,-0.05,-0.32,0.34
0.060591697692871094,-0.1,-0.08,-0.16,0.2
0.07892584800720215,-0.06,-0.1,-0.06,0.13
0.08042478561401367,0.04,-0.1,-0.01,0.1
0.09057998657226562,0.14,-0.04,0.02,0.14
0.1006937026977539,0.17,0.03,0.03,0.17
0.11075496673583984,0.11,0.09,0.11,0.17
0.12974071502685547,0.0,0.1,0.25,0.26
0.13042879104614258,-0.16,0.05,0.32,0.36
0.1406087875366211,-0.24,0.02,0.25,0.34
0.15076875686645508,-0.18,-0.01,0.06,0.19
0.16074085235595703,-0.05,-0.09,-0.14,0.17
0.1801137924194336,0.06,-0.13,-0.2,0.24
0.18061494827270508,0.19,-0.14,-0.03,0.23
0.19073200225830078,0.18,-0.12,0.15,0.26
0.2008190155029297,0.11,-0.16,0.29,0.34
0.21072983741760254,0.08,-0.18,0.35,0.4
0.23134589195251465,0.11,-0.18,0.27,0.34
0.23174190521240234,0.11,-0.12,0.12,0.2
0.24064397811889648,0.12,-0.06,0.0,0.13
0.2508659362792969,0.13,0.02,-0.03,0.13
0.2607128620147705,0.13,0.14,0.0,0.19
0.2800779342651367,0.19,0.26,0.1,0.33
0.28055477142333984,0.25,0.4,0.24,0.52
0.290712833404541,0.21,0.48,0.44,0.68
0.300933837890625,0.1,0.43,0.67,0.8
0.31082868576049805,-0.03,0.29,0.78,0.83
0.3308229446411133,-0.08,0.08,0.68,0.68
0.3313016891479492,-0.09,-0.11,0.42,0.44
0.34072279930114746,-0.04,-0.27,0.13,0.3
0.3509948253631592,0.05,-0.42,-0.04,0.42
0.36085987091064453,0.13,-0.52,-0.06,0.53
0.3808927536010742,0.18,-0.52,0.02,0.55
0.3813610076904297,0.17,-0.46,0.23,0.54
0.39071083068847656,0.11,-0.37,0.47,0.6
0.40123701095581055,0.04,-0.33,0.66,0.73
0.4109828472137451,-0.05,-0.38,0.72,0.81
0.4309098720550537,-0.16,-0.4,0.63,0.76
0.4313688278198242,-0.17,-0.42,0.52,0.68
0.4407367706298828,-0.12,-0.41,0.43,0.6
0.4513108730316162,-0.16,-0.37,0.31,0.5
0.460752010345459,-0.21,-0.35,0.26,0.48
0.4810178279876709,-0.3,-0.41,0.36,0.62
0.481475830078125,-0.44,-0.44,0.59,0.85
0.49072980880737305,-0.64,-0.57,0.91,1.25
0.5013928413391113,-0.85,-0.8,1.1,1.6
0.5108108520507812,-1.06,-0.88,1.09,1.75
0.5316677093505859,-1.19,-0.88,1.07,1.82
0.5321238040924072,-1.11,-0.83,1.02,1.72
0.5407168865203857,-1.08,-0.63,0.85,1.51
0.5514898300170898,-1.18,-0.23,0.77,1.42
0.5607268810272217,-1.38,0.25,0.88,1.65
0.5816516876220703,-1.39,0.7,1.18,1.95
0.5820980072021484,-1.14,1.0,1.6,2.2
0.5908327102661133,-0.82,1.18,1.91,2.39
0.6006689071655273,-0.58,1.17,1.99,2.38
0.6108007431030273,-0.44,1.08,1.92,2.24
0.6316068172454834,-0.22,0.92,1.77,2.0
0.6320748329162598,0.07,0.65,1.67,1.79
0.6407349109649658,0.31,0.3,1.6,1.65
0.6507277488708496,0.49,0.01,1.51,1.58
0.6614928245544434,0.61,-0.29,1.37,1.52
0.682316780090332,0.63,-0.62,1.32,1.58
0.6827619075775146,0.58,-0.85,1.35,1.69
0.690687894821167,0.48,-1.06,1.39,1.81
0.700678825378418,0.34,-1.23,1.41,1.9
0.7108938694000244,0.22,-1.33,1.42,1.95
0.7316288948059082,0.25,-1.37,1.37,1.95
0.7320857048034668,0.3,-1.34,1.31,1.89
0.7407259941101074,0.3,-1.14,1.29,1.74
0.7507767677307129,0.25,-0.91,1.31,1.61
0.760840892791748,0.13,-0.73,1.47,1.64
0.7816588878631592,0.0,-0.64,1.77,1.88
0.7821118831634521,-0.15,-0.58,1.99,2.07
0.7908039093017578,-0.38,-0.53,2.09,2.18
0.8006908893585205,-0.66,-0.56,2.13,2.29
0.8108868598937988,-0.81,-0.63,2.07,2.31
0.8324189186096191,-0.78,-0.76,2.02,2.29
0.8328638076782227,-0.72,-0.85,1.97,2.26
0.8407187461853027,-0.67,-0.92,1.97,2.27
0.8507599830627441,-0.58,-0.93,2.04,2.31
0.8608338832855225,-0.48,-0.92,2.18,2.41
0.882544994354248,-0.36,-0.9,2.31,2.5
0.8829917907714844,-0.27,-0.78,2.35,2.49
0.8907768726348877,-0.25,-0.63,2.31,2.4
0.9006428718566895,-0.24,-0.36,2.22,2.26
0.9117469787597656,-0.15,-0.03,2.22,2.22
0.9323627948760986,-0.09,0.35,2.3,2.32
0.9328207969665527,-0.06,0.86,2.42,2.56
0.9408469200134277,-0.02,1.41,2.56,2.92
0.9507558345794678,0.19,1.81,2.76,3.3
0.9609048366546631,0.41,2.02,2.88,3.54
0.9824247360229492,0.55,2.05,2.67,3.41
0.9828598499298096,0.63,2.02,2.19,3.04
0.9909458160400391,0.59,1.97,1.75,2.7
1.0007948875427246,0.52,2.02,1.51,2.57
1.01082181930542,0.49,2.15,1.54,2.68
1.0323028564453125,0.37,2.36,1.72,2.94
1.0327587127685547,0.23,2.51,2.07,3.26
1.0407578945159912,0.06,2.58,2.54,3.62
1.0508038997650146,-0.25,2.72,2.73,3.86
1.0609779357910156,-0.67,2.86,2.47,3.83
1.0825247764587402,-0.92,2.88,1.87,3.55
1.082967758178711,-0.86,2.67,1.15,3.03
1.0907728672027588,-0.84,2.22,0.56,2.43
1.1008896827697754,-0.72,1.66,-0.09,1.81
1.1109569072723389,-0.18,1.04,-1.08,1.51
1.132619857788086,0.33,0.55,-2.08,2.17
1.1330838203430176,0.3,0.33,-2.46,2.5
1.140845775604248,0.19,0.19,-2.17,2.18
1.1508078575134277,0.46,0.04,-1.76,1.81
1.1609477996826172,0.97,0.01,-1.27,1.59
1.1827418804168701,1.82,-0.02,-0.63,1.92
1.183194875717163,2.73,0.09,-0.26,2.74
1.1908979415893555,2.85,0.15,-0.74,2.94
1.2008278369903564,2.8,0.02,-1.34,3.1
1.2110300064086914,2.48,-0.26,-1.17,2.75
1.2326598167419434,1.8,-0.43,-0.74,1.99
1.233123779296875,1.23,-0.35,-0.11,1.28
1.240898847579956,0.61,-0.2,0.86,1.07
1.250910758972168,0.23,-0.29,1.55,1.59
1.2610208988189697,0.08,-0.5,1.68,1.75
1.2833356857299805,-0.08,-0.8,1.2,1.44
1.2837777137756348,-0.4,-1.33,0.77,1.58
1.29093599319458,-0.44,-1.8,0.58,1.94
1.3008317947387695,-0.55,-2.44,0.3,2.51
1.311020851135254,-0.71,-3.04,-0.07,3.12
1.3330729007720947,-0.82,-3.45,-0.13,3.54
1.333526849746704,-0.93,-3.66,-0.1,3.77
1.3408679962158203,-0.86,-3.79,0.13,3.88
1.350921869277954,-0.84,-3.87,0.27,3.96
1.3610048294067383,-0.85,-3.85,0.42,3.96
1.3835718631744385,-0.75,-3.81,0.65,3.93
1.3840157985687256,-0.42,-3.69,0.88,3.81
1.3909578323364258,-0.11,-3.62,1.05,3.77
1.4009499549865723,-0.15,-3.58,0.92,3.69
1.4110198020935059,-0.12,-3.42,0.52,3.46
1.4326918125152588,0.16,-3.02,0.7,3.1
1.4331459999084473,0.21,-2.54,0.82,2.67
1.4409537315368652,0.08,-2.09,0.67,2.19
1.450812816619873,-0.14,-1.65,0.74,1.81
1.4611377716064453,-0.27,-1.14,0.76,1.39
1.4829387664794922,-0.25,-0.57,0.82,1.02
1.4833898544311523,-0.07,0.12,1.25,1.25
1.4909639358520508,0.45,0.85,2.02,2.23
1.5010137557983398,1.15,1.55,2.46,3.12
1.5110158920288086,1.61,2.24,2.48,3.7
1.5332708358764648,1.84,2.92,2.54,4.28
1.533705711364746,1.89,3.72,2.74,4.99
1.5410168170928955,2.02,4.58,3.14,5.9
1.5509798526763916,2.23,5.22,3.84,6.85
1.5610136985778809,2.36,5.66,4.47,7.58
1.5832867622375488,2.21,5.77,4.48,7.63
1.5837218761444092,1.85,5.46,3.72,6.86
1.5909500122070312,1.62,4.73,2.79,5.72
1.600965976715088,1.33,4.04,2.04,4.71
1.6110877990722656,0.78,3.44,1.11,3.69
1.6336359977722168,0.29,2.66,0.34,2.69
1.634099006652832,-0.13,1.83,-0.44,1.88
1.6409897804260254,-0.78,0.94,-1.61,2.02
1.6510639190673828,-1.53,0.03,-3.01,3.37
1.6610989570617676,-1.85,-0.39,-3.54,4.01
1.6839919090270996,-1.82,-0.1,-3.03,3.53
1.6844687461853027,-1.91,0.62,-2.58,3.26
1.6911029815673828,-1.72,1.39,-1.99,2.97
1.7009708881378174,-1.07,1.92,-1.32,2.56
1.7111029624938965,-0.45,2.09,-0.8,2.28
1.733201026916504,-0.14,1.97,-0.44,2.02
1.7336397171020508,0.1,1.59,0.19,1.6
1.741001844406128,0.21,1.05,0.75,1.3
1.7508418560028076,0.3,0.39,0.79,0.93
1.7610929012298584,0.45,-0.35,0.59,0.82
1.7838020324707031,0.57,-1.26,0.31,1.41
1.7842659950256348,0.58,-2.28,0.04,2.35
1.7910327911376953,0.6,-3.13,-0.35,3.2
1.8010308742523193,0.62,-3.74,-0.65,3.84
1.8111448287963867,0.58,-4.33,-0.67,4.41
1.8341498374938965,0.45,-4.79,-0.47,4.83
1.8346047401428223,0.3,-5.14,-0.18,5.15
1.8410089015960693,0.15,-5.54,0.02,5.54
1.8510479927062988,-0.11,-5.86,0.07,5.86
1.8611228466033936,-0.33,-5.97,0.12,5.98
1.8837718963623047,-0.43,-5.84,0.13,5.85
1.8842368125915527,-0.45,-5.41,0.15,5.43
1.8911347389221191,-0.38,-4.76,-0.01,4.77
1.9010608196258545,-0.2,-3.9,-0.28,3.91
1.911120891571045,-0.01,-2.91,-0.28,2.92
1.9336609840393066,0.15,-1.87,-0.03,1.87
1.9341239929199219,0.21,-0.96,0.19,1.0
1.9410886764526367,0.22,-0.18,0.48,0.55
1.9509119987487793,0.1,0.48,0.92,1.04
1.9611377716064453,-0.27,1.01,1.17,1.56
1.983686923980713,-0.65,1.5,1.28,2.07
1.9841458797454834,-0.72,2.06,1.37,2.57
1.9910428524017334,-0.45,2.8,1.73,3.32
2.000941753387451,-0.35,3.56,2.37,4.29
2.0110628604888916,-0.42,4.35,3.02,5.31
2.0340099334716797,-0.63,5.16,3.29,6.15
2.0344529151916504,-0.88,5.8,3.0,6.58
2.0410757064819336,-0.7,6.1,2.82,6.75
2.050994873046875,-0.3,5.88,2.86,6.54
2.061187744140625,-0.11,5.31,2.79,5.99
2.0841007232666016,0.19,4.65,2.22,5.15
2.084542751312256,0.75,3.95,1.5,4.29
2.0910696983337402,1.24,3.13,0.8,3.46
2.1011269092559814,1.17,1.91,-0.65,2.33
2.1112136840820312,1.14,0.55,-2.75,3.02
2.134164810180664,1.24,-0.48,-3.75,3.97
2.134615898132324,1.0,-0.87,-3.53,3.77
2.141080856323242,0.89,-0.76,-2.74,2.97
2.1511497497558594,1.26,-0.28,-2.09,2.45
2.1611998081207275,1.68,0.34,-1.6,2.34
2.184508800506592,1.93,0.88,-0.86,2.28
2.1849358081817627,1.95,1.15,-0.29,2.28
2.1910758018493652,1.89,1.25,-0.35,2.29
2.20111083984375,1.8,1.19,-0.36,2.18
2.211246967315674,1.44,1.04,-0.13,1.78
2.2340760231018066,0.9,0.73,0.08,1.16
2.234517812728882,0.42,0.2,0.03,0.46
2.241117000579834,-0.02,-0.44,-0.04,0.44
2.2510600090026855,-0.5,-1.21,0.06,1.31
2.2613039016723633,-0.99,-2.09,0.1,2.31
2.2841897010803223,-1.22,-3.01,0.08,3.24
2.28463077545166,-1.21,-3.91,-0.02,4.09
2.2911298274993896,-1.07,-4.64,-0.17,4.76
2.3010177612304688,-0.81,-5.24,-0.34,5.31
2.311326026916504,-0.57,-5.7,-0.45,5.74
2.33394193649292,-0.55,-5.92,-0.54,5.96
2.3344078063964844,-0.61,-5.96,-0.51,6.01
2.3411648273468018,-0.63,-5.91,-0.33,5.95
2.3510818481445312,-0.74,-5.72,-0.21,5.77
2.361337900161743,-0.72,-5.36,-0.19,5.41
2.384315013885498,-0.54,-4.73,-0.09,4.76
2.384760856628418,-0.42,-3.89,-0.07,3.91
2.391237735748291,-0.33,-2.93,-0.1,2.95
2.401042938232422,0.0,-2.03,0.01,2.03
2.411327838897705,0.39,-1.23,0.1,1.29
2.4346609115600586,0.73,-0.32,0.06,0.79
2.435093879699707,0.95,0.67,0.09,1.16
2.441131830215454,0.95,1.67,0.28,1.94
2.4510316848754883,0.97,2.8,0.82,3.07
2.46147084236145,1.35,3.94,1.9,4.57
2.484477996826172,1.78,5.05,3.11,6.19
2.4849188327789307,2.15,6.07,3.72,7.43
2.4911999702453613,2.36,6.87,3.52,8.07
2.501088857650757,2.44,7.18,2.96,8.14
2.5113508701324463,2.42,6.73,2.37,7.53
2.53476881980896,2.03,5.93,1.31,6.4
2.5352230072021484,0.87,5.29,-0.12,5.36
2.5411739349365234,0.06,4.82,-0.22,4.82
2.551239013671875,-0.5,4.26,-0.44,4.31
2.561339855194092,-1.24,3.29,-2.19,4.14
2.58489990234375,-1.47,2.02,-3.34,4.17
2.5853519439697266,-1.18,0.85,-2.84,3.19
2.591216802597046,-1.06,0.19,-2.05,2.31
2.6010818481445312,-1.36,0.23,-1.33,1.91
2.611355781555176,-1.54,0.76,-0.6,1.81
2.634805679321289,-1.4,1.32,-0.35,1.95
2.6352577209472656,-1.02,1.74,-0.49,2.07
2.6411867141723633,-0.76,1.9,-0.51,2.1
2.65126371383667,-0.59,1.75,0.05,1.84
2.6614279747009277,-0.34,1.38,0.9,1.68
2.6848130226135254,0.08,0.69,1.11,1.3
2.6852569580078125,0.55,-0.38,0.62,0.91
2.691262722015381,0.72,-1.6,0.01,1.75
2.701200008392334,0.7,-2.82,-0.5,2.94
2.711418867111206,0.66,-3.94,-0.86,4.08
2.734914779663086,0.61,-4.93,-0.98,5.06
2.7353508472442627,0.48,-5.7,-0.92,5.79
2.7412819862365723,0.4,-6.23,-0.8,6.29
2.7511768341064453,0.17,-6.54,-0.68,6.57
2.7613778114318848,0.03,-6.67,-0.52,6.69
2.785095691680908,0.06,-6.65,-0.46,6.66
2.7855498790740967,-0.05,-6.4,-0.56,6.42
2.791231870651245,-0.2,-5.91,-0.64,5.94
2.8011927604675293,-0.45,-5.21,-0.75,5.28
2.8113598823547363,-0.77,-4.33,-0.44,4.41
2.834969997406006,-0.73,-3.23,0.02,3.31
2.8354268074035645,-0.47,-2.02,0.26,2.09
2.8412418365478516,-0.41,-0.81,0.35,0.97
2.851184844970703,-0.61,0.36,0.63,0.94
2.861466884613037,-0.98,1.28,0.87,1.83
2.885077953338623,-1.45,1.82,0.99,2.52
2.8855109214782715,-1.74,2.16,1.33,3.07
2.8913378715515137,-1.5,2.58,1.95,3.56
2.9011528491973877,-0.93,3.25,2.44,4.16
2.9114480018615723,-0.57,4.24,2.75,5.08
2.934886932373047,-0.27,5.27,2.92,6.03
2.9353208541870117,0.04,6.1,2.67,6.65
2.9411396980285645,0.28,6.62,2.32,7.02
2.951223850250244,0.11,6.46,2.55,6.94
2.9614577293395996,-0.32,5.6,2.83,6.28
2.985264778137207,-0.89,4.34,2.25,4.96
2.985715866088867,-0.88,3.0,1.08,3.3
2.9912848472595215,0.04,1.9,0.55,1.97
3.0011987686157227,0.57,1.02,-0.32,1.21
3.0114150047302246,0.97,0.1,-3.11,3.25
3.035648822784424,1.7,-0.32,-5.27,5.54
3.0360937118530273,2.1,0.31,-4.62,5.08
3.0411508083343506,2.44,1.59,-2.75,4.0
3.0512678623199463,3.01,2.7,-1.5,4.31
3.061460018157959,3.09,3.32,-0.46,4.55
3.0854358673095703,2.54,3.2,0.51,4.11
3.085909843444824,2.04,2.47,0.75,3.29
3.0913429260253906,1.7,1.44,0.44,2.27
3.101278781890869,1.3,0.5,0.02,1.39
3.1115427017211914,0.5,-0.26,-0.24,0.61
3.1361637115478516,-0.34,-0.95,-0.08,1.01
3.1366047859191895,-0.84,-1.76,0.25,1.96
3.1413068771362305,-1.1,-2.69,0.32,2.92
3.151312828063965,-1.26,-3.48,0.12,3.7
3.1612539291381836,-1.31,-4.19,-0.19,4.39
3.1855688095092773,-1.34,-4.84,-0.45,5.04
3.186028003692627,-1.42,-5.38,-0.62,5.59
3.1914219856262207,-1.42,-5.81,-0.59,6.01
3.2013678550720215,-1.32,-6.16,-0.65,6.33
3.211566925048828,-1.18,-6.34,-0.97,6.52
3.235562801361084,-1.04,-6.24,-1.26,6.45
3.2359976768493652,-0.84,-5.95,-1.33,6.15
3.241456985473633,-0.6,-5.43,-1.17,5.58
3.2513678073883057,-0.31,-4.72,-0.73,4.78
3.2615909576416016,-0.04,-3.91,-0.16,3.91
3.2855818271636963,0.06,-3.02,0.32,3.03
3.2860188484191895,0.11,-2.16,0.41,2.2
3.2912349700927734,0.18,-1.33,0.43,1.4
3.301304817199707,0.51,-0.51,0.54,0.9
3.3114728927612305,1.08,0.19,0.3,1.13
3.3356590270996094,1.34,0.69,0.17,1.51
3.3361077308654785,1.45,1.39,0.61,2.09
3.3413877487182617,1.46,2.33,1.65,3.2
3.351381778717041,1.47,3.34,2.78,4.58
3.361562728881836,1.19,4.34,3.16,5.49
3.3861899375915527,0.89,5.13,2.7,5.86
3.3866279125213623,0.87,5.79,2.28,6.28
3.3913869857788086,0.83,6.27,2.01,6.63
3.4013257026672363,0.97,6.47,1.66,6.74
3.411489963531494,0.91,6.52,0.53,6.6
3.4359447956085205,0.87,6.62,0.19,6.67
3.436378002166748,1.25,6.77,0.15,6.88
3.441481828689575,0.63,5.83,-1.46,6.04
3.4514217376708984,-0.75,4.06,-2.93,5.06
3.4615228176116943,-1.38,2.36,-2.59,3.76
3.4852938652038574,-2.02,1.19,-1.49,2.77
3.4857118129730225,-3.18,0.91,-0.94,3.43
3.4915127754211426,-3.63,1.15,-1.06,3.95
3.5013937950134277,-3.09,1.6,-1.27,3.7
3.511569023132324,-2.12,2.17,-1.31,3.3
3.535557746887207,-1.07,2.59,-1.03,2.98
3.5360207557678223,-0.59,2.48,-0.43,2.58
3.5415148735046387,-0.08,2.05,0.26,2.06
3.5514419078826904,0.46,1.22,0.46,1.38
3.5614988803863525,0.77,0.06,0.26,0.81
3.586075782775879,0.93,-1.35,-0.07,1.64
3.586526870727539,0.96,-2.74,-0.39,2.92
3.591514825820923,0.87,-3.97,-0.63,4.11
3.601395845413208,0.62,-5.01,-0.76,5.1
3.61152982711792,0.27,-5.88,-0.85,5.94
3.636240005493164,-0.09,-6.47,-0.96,6.54
3.6366708278656006,-0.42,-6.78,-0.98,6.86
3.6414589881896973,-0.68,-6.86,-0.93,6.95
3.6514430046081543,-0.65,-6.76,-0.91,6.85
3.661637783050537,-0.6,-6.43,-0.95,6.52
3.686560869216919,-0.56,-6.0,-1.05,6.11
3.686997890472412,-0.42,-5.4,-0.92,5.49
3.6915149688720703,-0.34,-4.63,-0.51,4.67
3.7014527320861816,-0.28,-3.82,-0.1,3.83
3.7116336822509766,-0.18,-2.98,0.32,3.0
3.7366788387298584,-0.1,-2.02,0.62,2.11
3.7371177673339844,-0.18,-0.96,0.73,1.21
3.7414817810058594,-0.54,-0.05,0.85,1.0
3.751452922821045,-0.88,0.74,0.95,1.49
3.7616567611694336,-1.03,1.55,1.24,2.23
3.786813735961914,-1.06,2.5,2.09,3.42
3.7872729301452637,-1.06,3.58,2.95,4.75
3.7916369438171387,-1.1,4.61,3.23,5.73
3.80142879486084,-1.17,5.49,3.07,6.39
3.8116579055786133,-1.05,6.1,2.56,6.69
3.8362648487091064,-0.81,6.39,2.12,6.78
3.836744785308838,-0.69,6.1,2.25,6.53
3.8415637016296387,-0.45,5.34,1.85,5.66
3.8515079021453857,-0.02,4.6,0.8,4.66
3.8617420196533203,0.89,4.09,0.67,4.23
3.871591806411743,1.16,3.3,0.54,3.53
3.886821746826172,0.93,2.01,-1.91,2.92
3.8915228843688965,1.57,0.89,-4.37,4.72
3.901578903198242,2.08,0.58,-3.97,4.51
3.911771774291992,2.16,1.02,-2.82,3.69
3.921623706817627,2.36,1.75,-2.39,3.78
3.9376487731933594,2.48,2.44,-1.84,3.93
3.9416658878326416,2.3,2.81,-1.11,3.79
3.9514946937561035,1.89,2.71,-0.56,3.35
3.9616668224334717,1.4,2.25,-0.57,2.71
3.9715356826782227,0.88,1.73,-0.57,2.02
3.987567901611328,0.34,1.24,-0.19,1.29
3.991588830947876,-0.2,0.7,0.14,0.74
4.001657009124756,-0.7,0.01,0.19,0.72
4.011960983276367,-1.04,-0.86,0.06,1.35
4.020484924316406,-1.3,-1.73,-0.14,2.16
4.036484718322754,-1.55,-2.53,-0.38,2.99
4.040130853652954,-1.72,-3.22,-0.43,3.67
4.050320863723755,-1.78,-3.94,-0.41,4.34
4.060406684875488,-1.75,-4.62,-0.42,4.95
4.070344924926758,-1.64,-5.24,-0.54,5.51
4.08625602722168,-1.48,-5.65,-0.77,5.89
4.090153694152832,-1.26,-5.9,-0.84,6.09
4.100366830825806,-1.05,-6.05,-1.01,6.22
4.110923767089844,-0.7,-6.06,-1.12,6.2
4.120296955108643,-0.4,-5.98,-1.06,6.08
4.1368608474731445,-0.23,-5.74,-0.89,5.81
4.140180826187134,0.0,-5.31,-0.83,5.37
4.150266885757446,0.26,-4.62,-0.76,4.68
4.160394906997681,0.51,-3.84,-0.48,3.9
4.170325756072998,0.54,-2.89,-0.05,2.94
4.186455726623535,0.44,-1.81,0.32,1.89
4.190126895904541,0.56,-0.79,0.57,1.12
4.2002198696136475,0.64,0.22,0.83,1.07
4.210330009460449,0.61,1.2,1.19,1.79
4.220271825790405,0.65,2.06,1.5,2.62
4.236691951751709,0.87,2.94,1.81,3.56
4.240108013153076,1.31,3.71,2.35,4.58
4.250271797180176,1.64,4.45,2.86,5.53
4.2604758739471436,1.7,5.09,2.75,6.02
4.270302772521973,1.75,5.78,2.67,6.6
4.286932945251465,1.66,6.34,2.81,7.13
4.290148735046387,1.25,6.44,2.54,7.03
4.300280809402466,0.71,6.33,1.42,6.52
4.310673713684082,0.37,6.5,1.28,6.63
4.3203349113464355,0.59,6.77,1.36,6.93
4.337482929229736,-0.04,5.88,-0.58,5.9
4.340240001678467,-1.15,3.91,-2.2,4.63
4.350315809249878,-1.32,1.93,-2.22,3.22
4.360398769378662,-1.09,0.35,-1.97,2.27
4.370340824127197,-1.45,-0.51,-2.1,2.6
4.387429714202881,-1.6,-0.38,-2.08,2.65
4.390241861343384,-1.22,0.26,-1.75,2.14
4.400329828262329,-0.88,1.06,-1.06,1.73
4.414467811584473,-0.33,1.7,-0.54,1.81
4.438212871551514,-0.37,1.39,-0.34,1.47
4.438653945922852,-0.23,0.91,0.01,0.93
4.444299697875977,0.03,0.24,-0.02,0.24
4.45426082611084,0.31,-0.68,-0.06,0.74
4.464311838150024,0.54,-1.74,-0.18,1.83
4.487401008605957,0.72,-2.75,-0.38,2.86
4.487849712371826,0.8,-3.69,-0.52,3.81
4.494383811950684,0.7,-4.51,-0.52,4.59
4.5043418407440186,0.61,-5.21,-0.65,5.28
4.5145978927612305,0.35,-5.8,-0.98,5.89
4.539039850234985,0.01,-6.16,-1.19,6.27
4.540228843688965,-0.28,-6.33,-1.22,6.45
4.544356822967529,-0.43,-6.29,-1.04,6.38
4.5542707443237305,-0.58,-5.96,-0.84,6.04
4.564404010772705,-0.72,-5.52,-0.68,5.6
4.587301731109619,-0.83,-4.9,-0.4,4.98
4.587759971618652,-0.96,-4.15,-0.23,4.26
4.594448804855347,-1.18,-3.32,-0.19,3.52
4.604285717010498,-1.2,-2.4,-0.06,2.68
4.614471912384033,-1.21,-1.54,0.19,1.96
4.638126850128174,-1.21,-0.71,0.45,1.47
4.638566970825195,-0.98,0.08,0.46,1.08
4.6443657875061035,-0.7,0.89,0.44,1.21
4.654417991638184,-0.64,1.72,0.88,2.03
4.664414882659912,-0.92,2.71,1.92,3.44
4.688293933868408,-1.15,3.74,2.97,4.91
4.688746929168701,-1.12,4.65,3.5,5.92
4.694410800933838,-0.93,5.48,3.23,6.42
4.7043328285217285,-0.61,6.23,2.37,6.69
4.714548826217651,-0.24,6.58,2.05,6.89
4.737785816192627,-0.04,6.26,2.31,6.67
4.738220691680908,0.13,5.53,1.94,5.86
4.744415760040283,0.46,4.82,0.85,4.91
4.7544426918029785,0.78,4.05,0.42,4.14
4.764477729797363,0.96,3.04,-0.63,3.24
4.788288831710815,1.5,1.83,-2.85,3.7
4.788769721984863,2.04,0.92,-3.47,4.12
4.794507026672363,2.04,0.72,-2.4,3.23
4.804405689239502,2.13,1.1,-2.15,3.22
4.814603805541992,2.27,1.8,-2.2,3.63
4.838504791259766,2.21,2.44,-1.66,3.68
4.838872909545898,1.91,2.7,-0.9,3.42
4.8444390296936035,1.55,2.54,-0.58,3.03
4.854424953460693,1.17,2.12,-0.56,2.48
4.864410877227783,0.8,1.56,-0.16,1.76
4.887844800949097,0.23,0.94,0.2,0.98
4.888314723968506,-0.49,0.21,0.3,0.61
4.894572734832764,-0.97,-0.66,0.02,1.17
4.904469966888428,-1.26,-1.5,-0.29,1.98
4.914622783660889,-1.39,-2.29,-0.32,2.69
4.937950849533081,-1.45,-3.08,-0.19,3.4
4.938317775726318,-1.46,-3.86,-0.14,4.12
4.944548845291138,-1.3,-4.55,-0.27,4.73
4.9545488357543945,-1.1,-5.15,-0.59,5.29
4.964486837387085,-0.83,-5.6,-0.91,5.73
4.988591909408569,-0.54,-5.85,-1.14,5.98
4.98897385597229,-0.24,-5.99,-1.24,6.12
4.994642734527588,0.02,-6.06,-1.19,6.17
5.004446029663086,0.19,-5.96,-1.03,6.05
5.014634847640991,0.24,-5.64,-0.76,5.69
5.0392069816589355,0.41,-5.27,-0.48,5.3
5.039575815200806,0.7,-4.66,-0.27,4.72
5.044628858566284,0.84,-3.96,-0.23,4.05
5.054535865783691,0.86,-3.2,-0.32,3.32
5.064563751220703,0.8,-2.38,-0.24,2.52
5.088711738586426,0.74,-1.5,0.17,1.68
5.089087009429932,0.58,-0.61,0.63,1.05
5.094563007354736,0.47,0.37,1.0,1.16
5.104434013366699,0.55,1.55,1.57,2.27
5.114596843719482,0.7,2.94,2.26,3.77
5.139075756072998,0.91,4.36,2.78,5.25
5.139455795288086,0.97,5.75,3.26,6.68
5.144519805908203,1.07,6.81,3.45,7.7
5.154515743255615,1.25,7.18,3.25,7.97
5.164543867111206,1.49,6.74,2.84,7.46
5.189119815826416,1.65,5.76,2.03,6.32
5.1894917488098145,1.25,5.09,0.59,5.27
5.194476842880249,0.51,4.97,0.38,5.01
5.204529762268066,0.31,5.07,0.98,5.17
5.214578866958618,-0.22,4.39,-0.89,4.48
5.238586902618408,-0.91,2.99,-2.77,4.17
5.2389960289001465,-0.89,1.65,-2.58,3.18
5.2444000244140625,-0.6,0.64,-1.55,1.78
5.254395961761475,-1.08,0.11,-1.19,1.61
5.264567852020264,-1.71,0.27,-1.09,2.04
5.288716793060303,-1.74,0.79,-1.07,2.19
5.289089679718018,-1.39,1.5,-1.21,2.37
5.29453182220459,-0.85,2.27,-1.4,2.79
5.304451942443848,-0.52,2.64,-1.15,2.92
5.314591884613037,-0.36,2.72,-0.28,2.75
5.339779853820801,-0.39,2.3,0.24,2.34
5.34080696105957,-0.4,1.32,0.17,1.38
5.344529867172241,-0.35,0.12,-0.09,0.38
5.354537010192871,-0.33,-1.15,-0.28,1.22
5.364584922790527,-0.25,-2.36,-0.37,2.4
5.3891377449035645,-0.1,-3.42,-0.54,3.46
5.389511823654175,0.02,-4.3,-0.69,4.35
5.3945159912109375,0.02,-4.99,-0.93,5.07
5.404514789581299,-0.05,-5.55,-1.27,5.69
5.414638996124268,-0.13,-5.89,-1.41,6.05
5.438724994659424,-0.07,-6.16,-1.43,6.32
5.439111709594727,0.03,-6.37,-1.52,6.54
5.444476842880249,0.06,-6.39,-1.43,6.54
5.454550743103027,-0.08,-6.16,-1.1,6.25
5.464648723602295,-0.2,-5.63,-0.69,5.67
5.488356828689575,-0.22,-4.84,-0.37,4.85
5.488720893859863,-0.24,-3.96,-0.28,3.97
5.494640827178955,-0.28,-2.95,-0.18,2.96
5.504561901092529,-0.37,-1.96,0.14,1.99
5.514732837677002,-0.41,-1.05,0.73,1.34
5.538846015930176,-0.51,-0.23,1.41,1.51
5.539220809936523,-0.54,0.62,1.58,1.78
5.544550895690918,-0.38,1.52,1.23,1.99
5.554593801498413,-0.35,2.59,1.21,2.88
5.564669847488403,-0.67,3.7,1.93,4.22
5.588874816894531,-1.12,4.71,2.67,5.52
5.5892438888549805,-1.39,5.49,2.87,6.34
5.594718933105469,-1.14,6.09,2.46,6.66
5.604526996612549,-0.89,6.36,2.09,6.75
5.614727020263672,-0.76,5.95,2.16,6.37
5.639118909835815,-0.6,4.9,1.97,5.31
5.639513969421387,-0.44,3.52,1.2,3.74
5.644612789154053,-0.02,2.29,0.28,2.3
5.6545867919921875,0.8,1.64,0.12,1.82
5.664580821990967,0.66,1.2,-0.6,1.49
5.689205884933472,0.62,0.65,-3.27,3.39
5.689570903778076,1.82,0.54,-4.76,5.12
5.694573879241943,2.28,1.17,-3.4,4.25
5.704554796218872,1.92,2.08,-1.78,3.34
5.71477484703064,2.0,2.85,-1.36,3.73
5.739107847213745,2.08,3.32,-1.04,4.05
5.739492893218994,2.04,3.2,-0.66,3.85
5.744649887084961,2.09,2.52,-0.63,3.33
5.754742860794067,1.94,1.75,-0.79,2.72
5.764736890792847,1.4,1.21,-0.55,1.93
5.789622783660889,0.65,0.75,-0.02,0.99
5.79011082649231,-0.05,0.17,0.32,0.36
5.794689893722534,-0.55,-0.57,0.21,0.81
5.804553985595703,-0.8,-1.32,-0.23,1.56
5.814764976501465,-1.08,-2.03,-0.58,2.37
5.839418888092041,-1.38,-2.71,-0.58,3.09
5.8397626876831055,-1.51,-3.4,-0.58,3.76
5.844588756561279,-1.57,-4.03,-0.63,4.37
5.854666709899902,-1.58,-4.49,-0.69,4.8
5.864773750305176,-1.58,-4.69,-0.72,5.0
5.88993501663208,-1.5,-4.81,-0.69,5.08
5.890305995941162,-1.35,-4.91,-0.61,5.12
5.894819736480713,-1.18,-4.96,-0.56,5.12
5.904560804367065,-0.93,-4.92,-0.34,5.01
5.914767742156982,-0.68,-4.81,-0.09,4.85
5.939809799194336,-0.37,-4.66,-0.02,4.67
5.940172910690308,-0.08,-4.37,-0.28,4.37
5.944647789001465,-0.01,-3.94,-0.44,3.96
5.954734802246094,0.33,-3.35,-0.2,3.37
5.964831829071045,0.54,-2.72,-0.09,2.77
5.99019193649292,0.53,-2.02,0.32,2.11
5.9905619621276855,0.39,-1.18,0.67,1.41
5.994779825210571,0.36,-0.35,0.84,0.97
6.004612922668457,0.56,0.53,1.1,1.34
6.014809846878052,0.83,1.66,1.19,2.2
6.039767742156982,1.24,3.07,1.57,3.66
6.040129899978638,1.52,4.67,2.32,5.43
6.044632911682129,1.54,6.02,2.92,6.86
6.054556846618652,1.69,6.81,3.0,7.63
6.064786911010742,1.49,6.97,2.52,7.55
6.0899248123168945,1.02,6.54,2.02,6.92
6.090287685394287,0.53,5.91,1.22,6.05
6.094854831695557,-0.08,5.65,0.99,5.73
6.104654788970947,0.07,5.74,1.47,5.92
6.114954948425293,-0.14,5.2,-0.32,5.21
6.139366865158081,-0.88,3.71,-2.69,4.66
6.139754772186279,-1.01,2.18,-3.05,3.88
6.144543886184692,-0.6,0.89,-2.22,2.46
6.154693841934204,-0.74,0.01,-1.34,1.53
6.164745807647705,-1.4,-0.12,-1.03,1.74
6.189651012420654,-1.84,0.37,-1.1,2.17
6.190186023712158,-1.76,1.13,-1.24,2.43
6.194802761077881,-1.31,1.87,-1.35,2.65
6.2047319412231445,-0.92,2.3,-1.07,2.69
6.214822769165039,-0.57,2.25,-0.3,2.34
6.224675893783569,-0.34,1.76,0.32,1.82
6.239930868148804,-0.18,0.9,0.36,0.98
6.2446448802948,0.1,-0.13,-0.03,0.16
6.254709720611572,0.39,-1.29,-0.4,1.4
6.264784812927246,0.64,-2.55,-0.68,2.71
6.274724006652832,0.72,-3.68,-0.94,3.86
6.289953708648682,0.59,-4.62,-1.01,4.76
6.294821739196777,0.4,-5.36,-0.95,5.45
6.3047027587890625,0.23,-5.9,-0.81,5.95
6.314881801605225,-0.02,-6.25,-0.77,6.29
6.324732780456543,-0.2,-6.49,-0.88,6.55
6.340073823928833,-0.35,-6.54,-0.99,6.62
6.344775676727295,-0.48,-6.32,-1.06,6.42
6.354763984680176,-0.41,-5.83,-1.06,5.93
6.364844799041748,-0.31,-5.08,-0.91,5.17
6.374802827835083,-0.39,-4.17,-0.59,4.22
6.389561891555786,-0.49,-3.19,-0.27,3.23
6.394848823547363,-0.54,-2.14,0.05,2.2
6.404782772064209,-0.59,-1.16,0.37,1.35
6.414899826049805,-0.78,-0.39,0.54,1.02
6.424815893173218,-0.98,0.12,0.67,1.19
6.441086769104004,-0.96,0.53,0.74,1.32
6.44478702545166,-0.86,1.16,0.91,1.7
6.454859733581543,-0.84,2.14,1.37,2.67
6.464874744415283,-0.95,3.29,2.06,3.99
6.474790811538696,-0.73,4.26,2.54,5.01
6.49083685874939,-0.37,5.08,2.51,5.67
6.494860887527466,-0.21,5.73,2.49,6.25
6.504745960235596,-0.28,6.06,2.44,6.53
6.514822959899902,-0.07,5.96,2.74,6.56
6.524735927581787,0.3,5.35,2.58,5.94
6.540418863296509,0.54,4.61,1.15,4.78
6.544921875,0.98,4.17,0.29,4.29
6.554926872253418,1.1,3.6,-0.13,3.76
6.564917802810669,0.9,2.36,-2.04,3.24
6.574831008911133,1.45,1.13,-3.81,4.23
6.590814828872681,1.91,0.58,-3.49,4.02
6.594927787780762,1.38,0.79,-2.37,2.85
6.60487699508667,1.21,1.32,-1.91,2.61
6.6148998737335205,1.58,1.96,-1.62,2.99
6.624825954437256,1.82,2.63,-1.12,3.38
6.640738010406494,1.96,2.76,-0.65,3.44
6.644891738891602,1.83,2.18,-0.44,2.88
6.654946804046631,1.43,1.4,-0.54,2.07
6.664846897125244,0.94,0.71,-0.42,1.25
6.674917697906494,0.35,0.07,-0.23,0.42
6.6907958984375,-0.15,-0.54,-0.15,0.58
6.694906711578369,-0.54,-1.2,-0.22,1.33
6.704845905303955,-0.92,-1.85,-0.23,2.07
6.714937686920166,-1.29,-2.44,-0.17,2.76
6.7248358726501465,-1.42,-3.11,-0.15,3.42
6.740890979766846,-1.47,-3.89,-0.29,4.16
6.744869709014893,-1.55,-4.61,-0.22,4.86
6.754971981048584,-1.56,-5.25,-0.17,5.47
6.764916896820068,-1.61,-5.83,-0.33,6.05
6.774834871292114,-1.61,-6.19,-0.44,6.41
6.791010856628418,-1.51,-6.33,-0.53,6.52
6.794878005981445,-1.31,-6.26,-0.63,6.42
6.804794788360596,-0.96,-5.96,-0.65,6.07
6.815023899078369,-0.62,-5.41,-0.43,5.46
6.82474684715271,-0.28,-4.73,-0.19,4.74
6.840742826461792,0.03,-3.85,-0.01,3.85
6.844842910766602,0.27,-2.78,0.22,2.8
6.85498571395874,0.3,-1.64,0.43,1.72
6.8648598194122314,0.36,-0.53,0.6,0.87
6.874856948852539,0.7,0.18,0.64,0.96
6.890749931335449,1.05,0.58,0.47,1.28
6.894759893417358,1.34,1.04,0.55,1.78
6.904774904251099,1.56,1.87,1.1,2.67
6.915004730224609,1.59,2.94,1.87,3.82
6.924901962280273,1.49,4.07,2.72,5.11
6.940335750579834,1.35,5.1,3.2,6.17
6.944926738739014,1.18,6.0,3.01,6.81
6.954971790313721,1.03,6.67,2.76,7.29
6.965011835098267,0.92,6.85,2.48,7.34
6.974981784820557,0.77,6.49,1.4,6.68
6.990579843521118,0.52,6.24,0.62,6.29
6.994755744934082,0.52,5.98,0.62,6.03
7.004868984222412,0.19,5.15,-0.62,5.19
7.015025854110718,-0.81,3.53,-2.82,4.59
7.024880886077881,-1.45,1.96,-3.46,4.23
7.040066719055176,-1.52,0.58,-2.61,3.07
7.0450119972229,-1.79,-0.34,-1.65,2.45
7.054948806762695,-2.23,-0.41,-1.17,2.55
7.065040826797485,-2.27,0.29,-1.09,2.53
7.074999809265137,-2.03,1.28,-1.18,2.67
7.0901148319244385,-1.58,2.25,-1.17,2.98
7.094803810119629,-1.06,2.63,-0.64,2.9
7.104822874069214,-0.78,2.44,0.16,2.56
7.115126848220825,-0.7,1.88,0.82,2.16
7.1249048709869385,-0.52,1.01,0.9,1.44
7.140467882156372,-0.14,-0.09,0.36,0.39
7.145035743713379,0.1,-1.33,-0.3,1.36
7.154953956604004,0.17,-2.63,-0.85,2.76
7.16503381729126,0.23,-3.86,-1.25,4.06
7.175000905990601,0.19,-4.84,-1.42,5.04
7.190789699554443,0.1,-5.58,-1.32,5.73
7.194913864135742,0.03,-6.15,-1.15,6.25
7.20487380027771,0.08,-6.55,-0.89,6.61
7.2151079177856445,0.15,-6.69,-0.74,6.73
7.22498893737793,0.04,-6.65,-0.8,6.69
7.2407050132751465,-0.26,-6.44,-0.97,6.51
7.24496603012085,-0.51,-5.95,-0.88,6.03
7.254966735839844,-0.4,-5.49,-0.59,5.53
7.264983892440796,-0.38,-4.89,-0.34,4.91
7.274987697601318,-0.42,-3.99,0.04,4.01
7.290995836257935,-0.52,-2.92,0.34,2.98
7.294981956481934,-0.6,-1.79,0.59,1.97
7.304860830307007,-0.71,-0.6,0.85,1.25
7.315258979797363,-0.91,0.39,1.03,1.42
7.324966907501221,-0.95,1.26,1.04,1.88
7.341098785400391,-0.88,2.16,1.25,2.64
7.345057964324951,-0.91,3.09,1.87,3.72
7.355017900466919,-0.98,3.95,2.61,4.83
7.365095853805542,-0.91,4.75,2.99,5.68
7.375077724456787,-0.67,5.57,2.94,6.33
7.391065835952759,-0.41,6.32,2.6,6.84
7.395033836364746,-0.11,6.73,2.34,7.12
7.404939889907837,0.14,6.52,2.28,6.9
7.415177822113037,0.38,5.72,1.68,5.97
7.424996852874756,0.61,4.83,0.45,4.88
7.440783977508545,1.03,4.23,0.25,4.36
7.444975852966309,0.72,3.36,-0.03,3.43
7.455036878585815,0.62,1.98,-2.21,3.03
7.465126991271973,1.46,0.97,-3.51,3.92
7.475133895874023,1.67,0.64,-2.78,3.3
7.48998498916626,1.44,0.76,-1.87,2.47
7.495137691497803,1.76,1.0,-1.8,2.7
7.505034923553467,1.92,1.6,-2.14,3.29
7.5152058601379395,1.95,2.33,-1.94,3.6
7.525032997131348,2.11,2.59,-1.44,3.63
7.540643692016602,1.93,2.27,-1.24,3.22
7.544986724853516,1.49,1.75,-0.73,2.41
7.5550148487091064,0.83,1.2,0.02,1.45
7.56506085395813,0.24,0.72,0.33,0.82
7.575124740600586,-0.22,0.21,0.19,0.35
7.5906078815460205,-0.65,-0.45,-0.21,0.81
7.595062732696533,-1.0,-1.16,-0.4,1.58
7.604933738708496,-1.3,-1.93,-0.37,2.35
7.6151957511901855,-1.51,-2.74,-0.29,3.14
7.625053882598877,-1.57,-3.61,-0.24,3.94
7.64072585105896,-1.63,-4.54,-0.15,4.82
7.645015716552734,-1.62,-5.39,-0.19,5.63
7.655077934265137,-1.59,-6.14,-0.48,6.36
7.665050983428955,-1.61,-6.74,-0.88,6.98
7.675082683563232,-1.53,-7.09,-1.24,7.35
7.691141843795776,-1.28,-7.21,-1.5,7.47
7.695044994354248,-1.0,-6.97,-1.51,7.2
7.705085754394531,-0.73,-6.39,-1.33,6.56
7.7151618003845215,-0.5,-5.49,-0.92,5.58
7.725099802017212,-0.37,-4.36,-0.38,4.39
7.741159915924072,-0.3,-2.96,0.04,2.97
7.745115756988525,-0.24,-1.47,0.35,1.53
7.755102872848511,0.05,-0.09,0.65,0.65
7.76517391204834,0.77,1.01,1.19,1.74
7.775218963623047,1.34,1.65,1.4,2.54
7.791212797164917,1.55,2.04,1.31,2.87
7.795059680938721,1.56,2.43,1.48,3.24
7.805085897445679,1.5,2.93,1.98,3.84
7.815238952636719,1.37,3.62,2.56,4.64
7.8251588344573975,1.31,4.5,2.98,5.55
7.8409857749938965,1.19,5.27,3.09,6.22
7.845080852508545,1.15,5.78,2.64,6.45
7.855224847793579,1.39,5.98,2.09,6.48
7.865139007568359,1.46,5.57,1.65,5.98
7.875260829925537,1.26,4.66,1.07,4.94
7.891012907028198,0.79,4.06,0.1,4.13
7.895140886306763,0.45,4.03,0.2,4.05
7.9051618576049805,0.38,3.78,0.47,3.82
7.915095806121826,-0.45,2.41,-1.66,2.96
7.925189971923828,-1.56,0.67,-3.46,3.85
7.9413368701934814,-2.06,-0.4,-2.32,3.12
7.945065021514893,-2.42,-0.78,-0.86,2.68
7.9551777839660645,-2.85,-0.47,-0.86,3.01
7.965130805969238,-3.05,0.41,-1.21,3.3
7.975317001342773,-2.69,1.44,-1.18,3.27
7.991222858428955,-1.88,2.17,-0.61,2.93
7.995132923126221,-1.29,2.41,-0.12,2.73
8.00522780418396,-1.02,2.31,0.34,2.54
8.015507698059082,-0.5,1.96,0.47,2.07
8.021227836608887,-0.52,1.95,0.54,2.08
8.040263891220093,0.15,1.24,0.24,1.27
8.041149854660034,0.47,0.22,-0.39,0.64
8.05121898651123,0.57,-0.79,-0.94,1.35
8.061245918273926,0.82,-1.79,-1.1,2.25
8.071296691894531,0.96,-2.71,-1.13,3.08
8.090756893157959,0.8,-3.54,-1.06,3.78
8.091147899627686,0.44,-4.21,-0.87,4.32
8.102078914642334,0.14,-4.84,-0.58,4.87
8.111475944519043,-0.12,-5.4,-0.47,5.42
8.121209859848022,-0.42,-5.79,-0.68,5.84
8.140685796737671,-0.69,-6.04,-0.96,6.15
8.14107894897461,-0.72,-6.12,-1.09,6.25
8.15123176574707,-0.64,-5.99,-0.96,6.1
8.161269903182983,-0.58,-5.68,-0.49,5.73
8.17137885093689,-0.45,-5.1,0.19,5.12
8.191356897354126,-0.42,-4.28,0.64,4.34
8.19172191619873,-0.51,-3.26,0.53,3.34
8.201206684112549,-0.62,-2.1,0.23,2.2
8.211233854293823,-0.78,-0.97,0.17,1.25
8.221459865570068,-0.93,0.04,0.17,0.94
8.241774797439575,-1.01,0.95,0.31,1.42
8.242117881774902,-1.1,1.87,0.9,2.34
8.251401901245117,-1.24,2.87,1.96,3.69
8.261258840560913,-1.32,3.96,2.87,5.06
8.271448850631714,-1.12,4.97,3.21,6.02
8.292084693908691,-0.93,5.68,3.05,6.51
8.292483806610107,-0.73,5.98,2.51,6.52
8.30146598815918,-0.54,5.65,1.76,5.94
8.311347961425781,-0.68,4.95,1.51,5.21
8.321418762207031,-0.55,4.24,1.06,4.4
8.342585802078247,0.24,3.82,-0.31,3.84
8.342976808547974,0.9,3.97,-0.62,4.11
8.351439952850342,0.99,3.7,-0.79,3.91
8.361433982849121,1.25,2.77,-2.83,4.15
8.371404886245728,1.57,2.12,-3.4,4.3
8.391955852508545,1.64,2.13,-1.79,3.22
8.392317771911621,1.7,2.24,-1.12,3.02
8.401468753814697,2.39,2.33,-1.42,3.62
8.415303707122803,2.74,2.58,-1.43,4.02
8.425299882888794,2.41,2.39,-1.19,3.59
8.443259716033936,1.68,1.96,-0.81,2.7
8.445128917694092,0.92,1.62,-0.25,1.87
8.455423831939697,0.23,1.24,0.06,1.26
8.465392827987671,-0.48,0.69,0.01,0.84
8.47528886795044,-1.09,-0.08,-0.15,1.1
8.493247985839844,-1.48,-1.0,-0.33,1.81
8.495213031768799,-1.76,-1.91,-0.37,2.62
8.50536298751831,-1.93,-2.79,-0.27,3.4
8.515416860580444,-2.13,-3.66,-0.24,4.24
8.525245904922485,-2.12,-4.45,-0.39,4.94
8.542537689208984,-1.85,-5.07,-0.58,5.42
8.545138835906982,-1.51,-5.51,-0.75,5.76
8.555343866348267,-1.21,-5.85,-0.98,6.05
8.565400838851929,-1.09,-6.09,-1.13,6.28
8.575387954711914,-1.05,-6.26,-1.31,6.48
8.59231185913086,-0.97,-6.27,-1.4,6.49
8.595244884490967,-0.49,-6.02,-1.27,6.17
8.605386734008789,0.27,-5.63,-0.98,5.72
8.615403890609741,0.85,-5.03,-0.62,5.13
8.625304698944092,1.11,-4.16,-0.35,4.31
8.642217874526978,1.19,-3.15,0.05,3.36
8.645137786865234,1.22,-2.16,0.42,2.51
8.655366897583008,1.03,-1.18,0.48,1.63
8.665410995483398,0.84,-0.22,0.53,1.01
8.675381898880005,0.88,0.7,0.65,1.29
8.69125485420227,1.05,1.7,1.04,2.25
8.69529676437378,1.28,2.85,1.8,3.6
8.705402851104736,1.43,3.94,2.65,4.95
8.71543288230896,1.34,4.76,3.45,6.02
8.725322723388672,1.12,5.41,3.36,6.46
8.74292802810669,1.04,5.92,2.65,6.56
8.745242834091187,1.24,6.21,2.83,6.93
8.755566835403442,1.42,6.12,3.0,6.96
8.76551079750061,1.3,5.62,2.06,6.12
8.775393962860107,0.82,5.21,0.53,5.3
8.79332685470581,0.5,5.06,0.6,5.11
8.795392990112305,0.13,4.57,0.32,4.58
8.805500030517578,-1.03,3.36,-2.03,4.05
8.815358877182007,-1.71,1.97,-3.19,4.12
8.825395822525024,-1.26,1.24,-2.45,3.02
8.843397855758667,-0.98,0.93,-1.97,2.38
8.845548868179321,-1.44,0.86,-1.87,2.51
8.855559825897217,-1.44,1.26,-1.46,2.4
8.86546802520752,-0.86,1.87,-1.09,2.32
8.875412940979004,-0.31,2.25,-0.8,2.4
8.893435001373291,-0.09,2.1,-0.64,2.19
8.895509719848633,-0.11,1.57,-0.35,1.61
8.905447959899902,-0.02,0.85,0.06,0.85
8.915366888046265,0.18,0.02,0.06,0.19
8.925459861755371,0.3,-1.01,-0.11,1.05
8.943145751953125,0.38,-2.18,-0.35,2.24
8.9456787109375,0.48,-3.25,-0.6,3.33
8.955543994903564,0.65,-4.09,-0.77,4.21
8.965426921844482,0.72,-4.7,-0.87,4.83
8.975486755371094,0.63,-5.21,-0.86,5.31
8.992664813995361,0.47,-5.54,-0.78,5.61
8.99552869796753,0.32,-5.77,-0.8,5.83
9.005435943603516,0.22,-5.95,-0.9,6.02
9.015432834625244,0.02,-5.95,-0.88,6.01
9.025426864624023,-0.22,-5.74,-0.83,5.8
9.042897701263428,-0.57,-5.25,-0.73,5.33
9.045764923095703,-0.79,-4.53,-0.57,4.63
9.055580854415894,-0.78,-3.76,-0.52,3.87
9.065495014190674,-0.77,-2.86,-0.27,2.97
9.07544994354248,-0.69,-2.0,0.09,2.11
9.092834949493408,-0.63,-1.28,0.26,1.45
9.095690727233887,-0.63,-0.67,0.44,1.01
9.105538845062256,-0.84,-0.24,0.75,1.15
9.115494728088379,-0.88,0.13,0.91,1.27
9.125521898269653,-0.7,0.68,0.86,1.3
9.142791748046875,-0.66,1.53,1.33,2.13
9.145944833755493,-0.56,2.58,2.05,3.34
9.155632019042969,-0.62,3.77,2.16,4.38
9.165485858917236,-0.7,5.01,2.31,5.56
9.175848007202148,-0.71,6.0,2.6,6.57
9.193666934967041,-0.76,6.4,2.78,7.01
9.195950984954834,-0.87,6.16,2.59,6.73
9.205428838729858,-1.0,5.48,1.94,5.89
9.21561574935913,-0.75,4.93,0.95,5.07
9.225518703460693,0.14,4.78,0.51,4.8
9.243198871612549,0.84,4.53,0.29,4.61
9.24599289894104,1.37,3.61,-1.4,4.1
9.255626678466797,1.98,2.29,-3.13,4.35
9.26557970046997,2.2,1.37,-2.97,3.94
9.275582790374756,2.21,1.25,-2.16,3.33
9.293888807296753,2.62,1.5,-2.02,3.63
9.295305728912354,2.81,1.76,-1.74,3.74
9.305457830429077,2.29,1.98,-1.2,3.25
9.315523862838745,1.57,1.96,-0.84,2.64
9.325498819351196,1.07,1.65,-0.74,2.1
9.343524932861328,0.67,1.19,-0.31,1.4
9.346145868301392,0.29,0.73,0.26,0.82
9.355560779571533,-0.14,0.21,0.23,0.34
9.365587711334229,-0.57,-0.58,-0.16,0.82
9.375579833984375,-0.84,-1.44,-0.46,1.72
9.393515825271606,-1.04,-2.25,-0.52,2.53
9.395394802093506,-1.15,-3.1,-0.42,3.33
9.40558385848999,-1.26,-3.94,-0.47,4.16
9.415616989135742,-1.21,-4.71,-0.61,4.9
9.42633581161499,-0.93,-5.36,-0.73,5.48
9.44411587715149,-0.77,-5.83,-0.72,5.92
9.445490837097168,-0.74,-6.1,-0.68,6.18
9.45561695098877,-0.66,-6.23,-0.75,6.3
9.465574741363525,-0.58,-6.19,-0.78,6.26
9.475663900375366,-0.64,-5.97,-0.68,6.04
9.494281768798828,-0.69,-5.54,-0.55,5.6
9.495503902435303,-0.58,-4.91,-0.39,4.95
9.505560874938965,-0.23,-4.09,-0.13,4.09
9.515451908111572,0.18,-3.19,-0.02,3.19
9.525580883026123,0.48,-2.22,0.16,2.27
9.544023990631104,0.77,-1.26,0.64,1.6
9.5453519821167,1.05,-0.42,1.01,1.51
9.555742740631104,1.14,0.36,1.04,1.58
9.565433979034424,0.98,1.11,0.82,1.69
9.575613975524902,0.79,1.9,0.75,2.19
9.593963861465454,0.98,2.67,1.48,3.2
9.595517873764038,1.33,3.49,2.4,4.43
9.605645895004272,1.35,4.4,2.81,5.39
9.61551284790039,1.11,5.3,2.81,6.1
9.625574827194214,0.73,5.96,2.29,6.42
9.644323825836182,0.89,6.14,1.78,6.45
9.645512819290161,1.21,5.68,1.52,6.0
9.655650854110718,1.15,4.82,1.24,5.1
9.665635824203491,0.5,4.16,0.42,4.21
9.675793886184692,0.01,3.91,0.34,3.92
9.694413900375366,0.0,3.45,-0.08,3.45
9.69544792175293,-1.01,2.09,-2.65,3.52
9.705650806427002,-2.05,0.77,-4.05,4.6
9.715613842010498,-1.84,0.35,-2.41,3.05
9.7256019115448,-1.21,0.4,-1.27,1.79
9.74451494216919,-1.49,0.72,-1.68,2.35
9.745414733886719,-1.69,1.42,-1.81,2.85
9.755735874176025,-1.18,2.33,-1.34,2.93
9.76565170288086,-0.55,2.97,-1.01,3.18
9.775697708129883,-0.23,3.04,-0.81,3.15
9.794594764709473,-0.21,2.67,-0.27,2.69
9.795557022094727,-0.07,2.06,0.23,2.07
9.805615901947021,0.1,1.2,0.22,1.22
9.815501689910889,0.08,0.14,-0.12,0.2
9.825681686401367,0.06,-1.02,-0.37,1.08
9.843775749206543,0.18,-2.14,-0.58,2.22
9.84551477432251,0.28,-3.1,-0.8,3.21
9.855664730072021,0.39,-3.91,-0.85,4.02
9.865587711334229,0.47,-4.64,-0.77,4.72
9.875694751739502,0.35,-5.29,-0.7,5.34
9.893809795379639,0.07,-5.76,-0.62,5.79
9.895617008209229,-0.21,-6.13,-0.62,6.16
9.90558385848999,-0.38,-6.35,-0.67,6.39
9.915756702423096,-0.49,-6.26,-0.7,6.31
9.925564765930176,-0.6,-5.87,-0.52,5.92
9.944227695465088,-0.61,-5.4,-0.2,5.43
9.945381879806519,-0.64,-4.83,-0.04,4.87
9.955758810043335,-0.72,-4.11,-0.01,4.17
9.965857028961182,-0.94,-3.41,0.11,3.53
9.975684881210327,-1.04,-2.52,0.44,2.76
9.995231866836548,-0.99,-1.45,0.91,1.97
9.995601892471313,-0.9,-0.53,1.22,1.6
10.005914688110352,-0.78,0.51,1.18,1.5
10.015694856643677,-0.62,1.77,1.04,2.14
10.025835990905762,-0.4,3.13,1.49,3.48
10.045078754425049,-0.38,4.23,2.44,4.89
10.045653820037842,-0.44,5.22,3.0,6.03
10.05583667755127,-0.53,6.01,3.21,6.83
10.065770864486694,-0.66,6.34,2.89,6.99
10.075792789459229,-0.63,6.15,2.13,6.53
10.094388008117676,-0.55,5.34,1.34,5.53
10.09557294845581,-0.44,4.24,0.69,4.31
10.105832815170288,-0.14,3.22,-0.01,3.22
10.11582899093628,0.71,2.87,-0.18,2.96
10.125805854797363,1.1,2.88,-0.08,3.08
10.14511489868164,0.87,2.57,-1.78,3.24
10.145710945129395,1.41,1.74,-3.88,4.47
10.155872821807861,1.86,1.31,-3.48,4.15
10.165886878967285,1.79,1.59,-2.01,3.12
10.175788879394531,2.19,2.2,-1.38,3.39
10.195403814315796,2.53,2.65,-1.33,3.89
10.195772886276245,2.48,2.77,-1.29,3.93
10.205986976623535,2.12,2.63,-1.06,3.54
10.215833902359009,2.0,2.19,-1.06,3.14
10.225896835327148,1.63,1.61,-0.99,2.49
10.245141983032227,1.0,1.18,-0.39,1.59
10.245899677276611,0.23,0.8,0.22,0.86
10.255860805511475,-0.43,0.09,0.52,0.68
10.26568078994751,-0.97,-0.82,0.29,1.3
10.275794982910156,-1.53,-1.67,-0.18,2.27
10.29516887664795,-1.83,-2.39,-0.48,3.04
10.295694828033447,-1.82,-3.11,-0.44,3.63
10.305831909179688,-1.68,-3.88,-0.35,4.24
10.31571888923645,-1.48,-4.7,-0.36,4.94
10.325869798660278,-1.31,-5.43,-0.4,5.6
10.34505581855774,-1.12,-6.0,-0.52,6.12
10.345823764801025,-0.95,-6.41,-0.7,6.51
10.355888843536377,-0.7,-6.56,-0.87,6.65
10.36574387550354,-0.46,-6.46,-0.92,6.54
10.375842809677124,-0.24,-6.24,-0.86,6.3
10.395047903060913,-0.09,-5.76,-0.73,5.8
10.395896911621094,-0.03,-4.97,-0.62,5.0
10.405929803848267,0.01,-4.03,-0.44,4.05
10.415699005126953,0.22,-2.92,-0.28,2.94
10.425829887390137,0.41,-1.8,0.02,1.84
10.445193767547607,0.47,-0.88,0.53,1.12
10.445608854293823,0.38,-0.08,0.79,0.88
10.455915927886963,0.23,0.69,0.82,1.09
10.465789794921875,0.3,1.47,0.82,1.7
10.475828886032104,0.43,2.4,0.92,2.6
10.49477481842041,0.54,3.46,1.45,3.79
10.495881795883179,0.53,4.61,2.33,5.19
10.505911827087402,0.3,5.75,2.9,6.44
10.515750885009766,0.2,6.66,3.13,7.36
10.525850772857666,0.32,6.94,2.63,7.42
10.545040845870972,0.68,6.34,1.71,6.6
10.545888900756836,1.0,5.3,0.81,5.45
10.555941820144653,0.78,4.48,-0.1,4.54
10.565719842910767,0.81,4.28,-0.01,4.35
10.5758957862854,0.98,4.0,-0.2,4.12
10.594948768615723,0.15,2.74,-2.04,3.41
10.595815896987915,-0.82,1.09,-3.48,3.73
10.605886936187744,-0.72,0.15,-2.84,2.93
10.615703821182251,-0.24,0.12,-1.55,1.57
10.625849723815918,-0.55,0.61,-1.06,1.34
10.64453387260437,-1.19,1.29,-1.07,2.05
10.645846843719482,-1.46,2.16,-1.05,2.81
10.655916690826416,-1.38,2.92,-0.81,3.32
10.666537761688232,-1.06,3.16,-0.7,3.4
10.675957679748535,-0.51,2.89,-0.29,2.94
10.695910930633545,0.02,2.22,0.2,2.22
10.696274757385254,0.25,1.27,0.12,1.29
10.705918788909912,0.37,0.11,-0.15,0.41
10.71589183807373,0.49,-1.14,-0.33,1.28
10.725806713104248,0.49,-2.36,-0.56,2.47
10.745811939239502,0.56,-3.45,-0.59,3.54
10.746189832687378,0.65,-4.38,-0.65,4.47
10.756003856658936,0.55,-5.19,-0.77,5.27
10.76593279838562,0.34,-5.79,-0.92,5.87
10.775961875915527,0.2,-6.25,-1.02,6.33
10.795324802398682,0.08,-6.53,-0.99,6.6
10.795743942260742,-0.03,-6.71,-1.07,6.79
10.80578899383545,-0.32,-6.75,-1.24,6.87
10.815862894058228,-0.51,-6.52,-1.21,6.65
10.825850009918213,-0.62,-5.82,-0.98,5.93
10.845977783203125,-0.71,-4.8,-0.68,4.89
10.846346855163574,-0.75,-3.7,-0.45,3.8
10.856072902679443,-0.85,-2.6,-0.27,2.74
10.865665912628174,-0.97,-1.61,-0.11,1.88
10.875991821289062,-0.96,-0.82,0.11,1.26
10.89513874053955,-0.95,-0.22,0.48,1.08
10.895792961120605,-1.12,0.35,0.98,1.52
10.905778884887695,-1.39,1.16,1.67,2.46
10.91593074798584,-1.57,2.14,2.43,3.59
10.925842761993408,-1.65,3.29,2.93,4.7
10.946062803268433,-1.6,4.56,2.99,5.68
10.946441888809204,-1.41,5.71,2.76,6.49
10.955993890762329,-1.0,6.58,2.44,7.08
10.96569299697876,-0.46,6.73,2.06,7.05
10.975929737091064,-0.12,6.03,2.06,6.37
10.99509572982788,-0.08,4.93,2.18,5.39
10.995794773101807,-0.11,3.86,1.68,4.21
11.005844831466675,0.49,3.25,0.7,3.36
11.015904903411865,1.05,3.13,0.17,3.3
11.025836944580078,0.89,2.7,-1.3,3.12
11.045817852020264,0.99,1.76,-3.42,3.97
11.046203851699829,1.3,0.91,-3.71,4.03
11.056099891662598,1.69,0.77,-2.14,2.83
11.0658118724823,2.49,1.05,-1.28,2.99
11.076040744781494,3.1,1.44,-1.17,3.61
11.095861911773682,3.23,2.03,-1.21,4.0
11.09623384475708,3.01,2.41,-1.22,4.04
11.105916023254395,2.48,2.24,-1.27,3.57
11.115938901901245,1.84,1.92,-1.14,2.89
11.125842809677124,1.3,1.72,-0.4,2.19
11.145843029022217,0.72,1.46,0.16,1.63
11.146204948425293,0.0,0.89,0.08,0.89
11.156097888946533,-0.61,0.13,-0.08,0.62
11.165830850601196,-1.07,-0.79,-0.22,1.34
11.176031827926636,-1.56,-1.76,-0.37,2.38
11.197325706481934,-1.83,-2.79,-0.49,3.37
11.197698831558228,-1.96,-3.84,-0.55,4.34
11.20601487159729,-2.03,-4.71,-0.57,5.16
11.215953826904297,-1.96,-5.36,-0.61,5.73
11.22591781616211,-1.88,-5.77,-0.6,6.09
11.247037887573242,-1.78,-6.15,-0.61,6.43
11.247413873672485,-1.6,-6.32,-0.77,6.56
11.256296873092651,-1.43,-6.32,-0.9,6.54
11.265853881835938,-0.96,-6.14,-0.96,6.28
11.276079893112183,-0.28,-5.72,-1.11,5.83
11.296885013580322,0.27,-5.03,-1.07,5.14
11.297272682189941,0.57,-4.07,-0.75,4.17
11.306082725524902,0.65,-2.96,-0.22,3.03
11.315921783447266,0.69,-1.78,0.27,1.92
11.325927734375,0.69,-0.86,0.43,1.18
11.346479892730713,0.59,-0.15,0.44,0.75
11.346836805343628,0.52,0.4,0.5,0.82
11.356119871139526,0.65,0.87,0.62,1.25
11.365716934204102,0.99,1.38,1.18,2.06
11.376117706298828,1.25,2.08,1.87,3.06
11.396246910095215,1.32,2.92,2.31,3.95
11.396609783172607,1.45,3.9,2.68,4.94
11.406025886535645,1.43,5.01,2.61,5.82
11.415901899337769,1.2,5.88,2.38,6.45
11.425967693328857,0.78,6.32,2.36,6.79
11.44609785079956,0.47,6.24,2.24,6.64
11.446460723876953,0.05,5.84,1.3,5.98
11.456153869628906,-0.48,5.53,0.39,5.56
11.465871810913086,-0.36,5.52,0.1,5.53
11.476223945617676,-0.42,5.07,-1.18,5.22
11.496181011199951,-1.04,3.67,-2.58,4.6
11.49654483795166,-1.14,1.92,-2.42,3.29
11.506040811538696,-1.01,0.49,-1.65,1.99
11.515986919403076,-1.68,-0.08,-0.95,1.93
11.526002883911133,-2.71,0.04,-1.08,2.91
11.546413898468018,-3.08,0.56,-1.61,3.52
11.546780824661255,-2.59,1.12,-1.82,3.35
11.556154727935791,-1.63,1.67,-1.39,2.71
11.565895795822144,-0.78,2.06,-0.79,2.34
11.576236724853516,-0.39,2.0,-0.55,2.11
11.596052885055542,-0.2,1.58,-0.23,1.6
11.59641981124878,0.22,0.86,-0.15,0.9
11.605973720550537,0.6,-0.03,-0.26,0.65
11.616026878356934,0.85,-1.05,-0.45,1.42
11.626088857650757,0.92,-2.12,-0.64,2.39
11.647284984588623,0.89,-3.1,-0.76,3.31
11.647645950317383,0.93,-3.92,-0.84,4.11
11.656145811080933,0.95,-4.73,-0.89,4.9
11.665885925292969,0.7,-5.34,-0.92,5.46
11.676209926605225,0.3,-5.87,-0.91,5.94
11.696979999542236,-0.02,-6.19,-0.77,6.23
11.697357892990112,-0.28,-6.46,-0.64,6.49
11.7060546875,-0.4,-6.64,-0.6,6.67
11.715981006622314,-0.47,-6.55,-0.64,6.59
11.72606372833252,-0.55,-6.09,-0.53,6.13
11.747975826263428,-0.55,-5.22,-0.27,5.25
11.748348712921143,-0.53,-4.23,-0.06,4.26
11.756211757659912,-0.6,-2.89,0.29,2.96
11.76604700088501,-0.42,-1.57,0.67,1.75
11.77632474899292,-0.36,-0.37,0.93,1.06
11.797838687896729,-0.5,0.69,1.09,1.38
11.79821491241455,-0.45,1.44,1.02,1.82
11.806110858917236,-0.47,1.99,1.19,2.36
11.81625485420227,-0.6,2.54,1.88,3.21
11.8261079788208,-0.88,3.14,2.68,4.22
11.848105907440186,-1.1,3.62,3.07,4.87
11.84848690032959,-1.05,4.1,2.47,4.9
11.856235027313232,-0.73,4.78,1.42,5.03
11.866318702697754,-0.46,5.58,0.81,5.65
11.876254796981812,-0.65,6.09,0.76,6.17
11.897891998291016,-1.01,6.23,1.1,6.4
11.898262023925781,-0.63,6.19,1.21,6.33
11.906133890151978,0.15,5.89,1.0,5.97
11.916414737701416,0.55,5.18,0.36,5.22
11.926093816757202,0.94,3.87,-1.7,4.33
11.947825908660889,1.86,2.05,-3.24,4.26
11.948225021362305,2.2,0.36,-2.91,3.66
11.9562828540802,1.98,-0.53,-2.15,2.97
11.96628475189209,2.05,-0.67,-2.56,3.34
11.976325988769531,2.37,-0.24,-2.88,3.73
11.997954845428467,2.43,0.67,-2.55,3.58
11.99831485748291,2.09,1.73,-1.82,3.26
12.006224870681763,1.68,2.55,-1.04,3.22
12.016417026519775,1.42,2.74,-0.59,3.14
12.022056818008423,1.42,2.74,-0.6,3.14
12.032200813293457,1.11,2.46,-0.14,2.7
12.046724796295166,0.62,1.94,0.2,2.04
12.052252769470215,0.13,1.26,0.14,1.27
12.06234884262085,-0.28,0.41,-0.23,0.54
12.078912734985352,-0.72,-0.51,-0.34,0.94
12.082043886184692,-1.0,-1.34,-0.11,1.67
12.092352867126465,-1.35,-2.15,-0.03,2.53
12.102306842803955,-1.79,-3.0,-0.16,3.49
12.112680912017822,-1.9,-3.78,-0.3,4.24
12.129968881607056,-1.88,-4.5,-0.48,4.9
12.132258892059326,-1.83,-5.03,-0.69,5.39
12.1422758102417,-1.65,-5.35,-0.73,5.64
12.15208888053894,-1.38,-5.53,-0.74,5.74
12.162286758422852,-0.96,-5.6,-0.81,5.73
12.180237770080566,-0.37,-5.55,-0.91,5.63
12.182230949401855,-0.07,-5.38,-0.86,5.44
12.192304849624634,0.02,-5.09,-0.67,5.13
12.20221471786499,0.17,-4.76,-0.52,4.79
12.212292909622192,0.2,-4.41,-0.38,4.43
12.230570793151855,0.12,-3.91,-0.18,3.91
12.232211828231812,0.19,-3.3,0.07,3.3
12.24242091178894,0.49,-2.57,0.4,2.64
12.25246000289917,0.75,-1.76,0.73,2.04
12.262288808822632,0.93,-0.84,0.75,1.46
12.280654907226562,1.04,0.3,0.59,1.23
12.28212594985962,1.06,1.68,0.79,2.13
12.292346954345703,1.26,3.07,1.35,3.58
12.302188873291016,1.4,4.34,1.78,4.89
12.312362909317017,1.36,5.55,2.22,6.13
12.33106780052185,1.49,6.48,2.57,7.12
12.332149982452393,1.53,6.82,2.47,7.41
12.342422008514404,1.36,6.57,2.6,7.19
12.352417945861816,1.2,5.9,2.73,6.61
12.362346887588501,1.0,5.07,2.15,5.59
12.381491899490356,0.67,4.51,1.66,4.85
12.382129907608032,0.47,4.05,1.09,4.22
12.392436027526855,-0.43,3.18,-0.89,3.33
12.402373790740967,-1.66,2.08,-2.82,3.87
12.413789749145508,-1.56,1.01,-3.07,3.58
12.431925773620605,-0.64,0.19,-2.62,2.7
12.433714866638184,-0.51,-0.25,-1.7,1.79
12.443814754486084,-1.2,0.01,-0.74,1.4
12.453609943389893,-1.78,0.81,-0.28,1.97
12.463618755340576,-1.65,1.57,-0.22,2.28
12.482285022735596,-1.28,2.27,-0.41,2.63
12.48356294631958,-0.98,2.76,-0.47,2.96
12.49373197555542,-0.61,2.66,-0.08,2.73
12.503837823867798,-0.26,2.13,0.49,2.2
12.513860702514648,-0.13,1.27,0.64,1.42
12.53186583518982,0.01,0.27,0.27,0.38
12.533732891082764,0.16,-0.73,-0.09,0.75
12.543763875961304,0.33,-1.83,-0.41,1.9
12.553642749786377,0.37,-2.94,-0.8,3.06
12.563731908798218,0.34,-3.88,-0.85,3.98
12.581521987915039,0.41,-4.73,-0.83,4.81
12.583608865737915,0.41,-5.41,-0.91,5.5
12.593725681304932,0.47,-6.0,-1.07,6.11
12.60349178314209,0.61,-6.45,-1.14,6.57
12.613755702972412,0.69,-6.62,-1.12,6.74
12.63075876235962,0.59,-6.51,-0.99,6.61
12.633831977844238,0.38,-6.13,-0.79,6.19
12.64368987083435,0.0,-5.5,-0.64,5.53
12.653550863265991,-0.42,-4.71,-0.5,4.75
12.663771867752075,-0.55,-3.85,-0.26,3.89
12.681675910949707,-0.66,-2.81,-0.04,2.88
12.683856010437012,-0.81,-1.76,0.18,1.94
12.693778991699219,-0.78,-0.89,0.41,1.25
12.703687906265259,-0.69,0.02,0.66,0.95
12.71373701095581,-0.81,0.83,0.75,1.38
12.731762886047363,-0.97,1.6,0.87,2.06
12.73389196395874,-1.03,2.39,1.27,2.89
12.743780851364136,-1.06,3.2,2.0,3.91
12.753691911697388,-1.2,3.96,2.49,4.82
12.763701915740967,-1.34,4.73,2.56,5.54
12.782219886779785,-1.28,5.39,2.29,5.99
12.783909797668457,-1.06,5.88,1.89,6.26
12.793769836425781,-0.77,5.9,1.86,6.23
12.803689002990723,-0.42,5.53,2.13,5.94
12.813766956329346,0.04,5.03,1.98,5.4
12.832536697387695,0.56,4.63,1.43,4.87
12.83405876159668,0.9,4.24,1.09,4.46
12.84383487701416,0.77,3.26,-0.5,3.38
12.85372281074524,0.78,1.88,-2.71,3.38
12.863752841949463,1.25,0.71,-3.27,3.57
12.88243579864502,1.42,-0.03,-2.3,2.7
12.884137868881226,1.55,-0.42,-1.68,2.32
12.893836975097656,1.86,-0.27,-1.62,2.48
12.903818845748901,1.95,0.29,-1.73,2.62
12.91371774673462,1.86,1.09,-1.67,2.72
12.932310819625854,2.03,1.67,-1.16,2.87
12.934229850769043,2.31,1.72,-0.68,2.95
12.943827867507935,2.16,1.37,-0.38,2.58
12.95385479927063,1.58,0.86,-0.13,1.8
12.96377682685852,1.0,0.3,0.12,1.05
12.981735706329346,0.57,-0.22,0.09,0.61
12.983590841293335,0.05,-0.77,-0.07,0.77
12.993818759918213,-0.43,-1.46,-0.19,1.53
13.003798961639404,-0.82,-2.2,-0.3,2.36
13.013892889022827,-1.06,-2.98,-0.37,3.18
13.031977891921997,-1.19,-3.8,-0.42,4.0
13.033617973327637,-1.15,-4.56,-0.47,4.72
13.043813705444336,-1.13,-5.19,-0.56,5.34
13.053903818130493,-1.14,-5.65,-0.5,5.78
13.063865900039673,-1.09,-5.89,-0.54,6.01
13.0813889503479,-1.08,-5.96,-0.76,6.1
13.083622932434082,-0.9,-5.84,-0.75,5.95
13.093859910964966,-0.65,-5.59,-0.49,5.64
13.103755950927734,-0.52,-5.17,-0.35,5.2
13.113839864730835,-0.47,-4.58,-0.32,4.61
13.132157802581787,-0.23,-3.64,-0.21,3.65
13.133644819259644,0.1,-2.64,0.05,2.64
13.1439208984375,0.46,-1.57,0.26,1.65
13.153822898864746,0.65,-0.49,0.41,0.91
13.163811683654785,0.98,0.32,0.58,1.18
13.183007717132568,1.19,0.95,0.74,1.69
13.183657884597778,1.14,1.53,1.16,2.23
13.19391679763794,1.14,2.28,1.8,3.12
13.203820705413818,1.12,3.2,2.26,4.07
13.21384882926941,1.25,4.22,2.53,5.07
13.233417987823486,1.47,5.13,2.66,5.96
13.233798027038574,1.42,5.88,2.14,6.41
13.243911743164062,1.36,6.44,1.51,6.75
13.253822803497314,1.23,6.6,1.41,6.86
13.263851881027222,0.93,5.94,1.09,6.11
13.282984733581543,0.5,5.18,0.04,5.2
13.283644676208496,0.37,4.91,-0.1,4.92
13.293876886367798,0.2,4.56,-0.3,4.57
13.303764820098877,-0.82,3.37,-2.29,4.15
13.313974857330322,-1.64,1.95,-3.57,4.38
13.333311796188354,-1.56,0.8,-2.93,3.41
13.33368968963623,-1.51,0.17,-2.06,2.55
13.343846797943115,-1.81,0.14,-1.59,2.41
13.353799819946289,-1.88,0.59,-1.24,2.32
13.363924980163574,-1.79,1.28,-1.19,2.5
13.38306188583374,-1.39,2.02,-1.14,2.7
13.383702754974365,-0.93,2.54,-0.8,2.82
13.3939208984375,-0.61,2.61,-0.02,2.68
13.403633832931519,-0.45,2.19,0.7,2.34
13.414039850234985,-0.51,1.37,0.76,1.64
13.433135986328125,-0.28,0.43,0.39,0.64
13.433720827102661,0.04,-0.63,0.0,0.63
13.443962812423706,0.3,-1.81,-0.37,1.87
13.453921794891357,0.46,-3.01,-0.62,3.1
13.463965892791748,0.56,-4.09,-0.83,4.21
13.482667922973633,0.58,-4.95,-0.88,5.06
13.483821868896484,0.56,-5.6,-0.77,5.68
13.493927955627441,0.46,-6.0,-0.7,6.05
13.503772735595703,0.36,-6.25,-0.61,6.29
13.513913869857788,0.35,-6.44,-0.61,6.47
13.53211784362793,0.25,-6.34,-0.7,6.38
13.533752918243408,0.16,-6.14,-0.77,6.19
13.543928861618042,0.03,-5.77,-0.73,5.81
13.55394697189331,-0.03,-5.1,-0.5,5.12
13.563961029052734,-0.23,-4.15,-0.1,4.15
13.582013845443726,-0.68,-2.97,0.22,3.05
13.583868026733398,-1.14,-1.87,0.5,2.24
13.593986988067627,-1.35,-0.82,0.93,1.83
13.603911876678467,-1.42,-0.05,1.03,1.75
13.613978862762451,-1.26,0.48,0.95,1.64
13.63308572769165,-0.84,0.93,0.82,1.49
13.63375473022461,-0.59,1.59,0.9,1.91
13.644025802612305,-0.47,2.43,1.62,2.95
13.653952836990356,-0.29,3.38,2.57,4.25
13.664002895355225,-0.17,4.42,3.05,5.37
13.682783842086792,-0.35,5.37,2.74,6.03
13.68395471572876,-0.48,6.05,2.14,6.43
13.694015979766846,-0.37,6.26,1.91,6.55
13.703904867172241,-0.28,5.68,1.84,5.97
13.714017868041992,-0.15,4.87,1.29,5.04
13.73350191116333,0.19,4.41,0.84,4.49
13.733863830566406,0.59,4.05,0.41,4.11
13.744053840637207,1.0,3.03,-1.38,3.47
13.753885746002197,1.79,1.74,-3.47,4.27
13.763990879058838,2.14,0.88,-3.54,4.22
13.782617807388306,1.95,0.77,-2.51,3.27
13.783792972564697,2.14,1.13,-1.92,3.08
13.794010877609253,2.42,1.72,-1.73,3.43
13.803923845291138,2.42,2.54,-1.5,3.81
13.814003944396973,2.39,3.02,-1.03,3.98
13.833305835723877,2.0,2.87,-0.61,3.55
13.83382272720337,1.42,2.31,-0.4,2.74
13.844055891036987,0.87,1.6,-0.29,1.84
13.853912830352783,0.41,1.02,-0.06,1.1
13.864009857177734,0.07,0.32,0.14,0.35
13.883988857269287,-0.31,-0.56,-0.17,0.66
13.88435983657837,-0.82,-1.38,-0.51,1.68
13.894073963165283,-1.27,-2.25,-0.56,2.64
13.903954029083252,-1.67,-3.2,-0.53,3.64
13.91397476196289,-2.03,-4.12,-0.42,4.61
13.933709859848022,-2.15,-4.86,-0.48,5.33
13.934085845947266,-1.97,-5.45,-0.42,5.81
13.944139003753662,-1.64,-5.92,-0.39,6.15
13.953972816467285,-1.32,-6.19,-0.41,6.34
13.96399974822998,-0.94,-6.4,-0.49,6.48
13.984196901321411,-0.7,-6.41,-0.55,6.47
13.98458194732666,-0.58,-6.1,-0.58,6.15
13.994059801101685,-0.51,-5.64,-0.6,5.69
14.003986835479736,-0.29,-4.87,-0.49,4.9
14.013975858688354,0.07,-3.82,-0.38,3.83
14.033710956573486,0.23,-2.63,-0.24,2.65
14.034092903137207,0.22,-1.54,0.04,1.55
14.04408884048462,0.14,-0.69,0.36,0.79
14.053899765014648,0.11,0.05,0.67,0.68
14.064090728759766,0.25,0.57,0.85,1.05
14.08396291732788,0.44,1.06,0.81,1.4
14.08433985710144,0.63,1.74,1.07,2.13
14.094250679016113,0.87,2.61,1.48,3.12
14.103886842727661,1.1,3.49,1.88,4.11
14.114064693450928,1.43,4.4,2.39,5.2
14.13169002532959,1.41,5.15,2.42,5.86
14.13394284248352,1.26,5.74,2.08,6.23
14.144044876098633,1.18,5.91,1.92,6.32
14.153994798660278,1.04,5.51,1.64,5.84
14.164068698883057,0.73,4.81,1.34,5.04
14.182453870773315,0.03,4.17,0.65,4.22
14.183884859085083,-0.66,3.9,0.33,3.96
14.1941556930542,-0.73,3.51,0.05,3.58
14.204022884368896,-1.24,2.14,-1.94,3.14
14.21411681175232,-1.96,0.52,-3.66,4.18
14.232862949371338,-1.75,-0.44,-3.0,3.5
14.234013795852661,-1.11,-0.82,-2.11,2.52
14.244170904159546,-0.96,-0.38,-1.98,2.23
14.254008769989014,-0.87,0.68,-1.66,1.99
14.264164924621582,-0.57,1.96,-1.13,2.33
14.284016847610474,-0.05,3.08,-0.67,3.15
14.284400939941406,0.13,3.64,-0.35,3.65
14.294103860855103,-0.18,3.5,0.01,3.5
14.304023742675781,-0.55,2.74,0.45,2.83
14.314186811447144,-0.71,1.76,0.5,1.96
14.334686756134033,-0.71,0.57,0.09,0.91
14.335068702697754,-0.57,-0.62,-0.3,0.89
14.344090938568115,-0.26,-1.78,-0.45,1.85
14.354044914245605,0.04,-2.9,-0.47,2.93
14.364151000976562,0.19,-3.91,-0.67,3.97
14.383738994598389,0.24,-4.68,-0.81,4.75
14.384121894836426,0.39,-5.26,-0.92,5.35
14.394218921661377,0.47,-5.68,-1.17,5.81
14.404079914093018,0.48,-5.89,-1.35,6.06
14.414227962493896,0.24,-5.97,-1.2,6.09
14.434784889221191,-0.14,-5.94,-0.82,5.99
14.435168743133545,-0.5,-5.74,-0.5,5.78
14.44425082206726,-0.82,-5.38,-0.26,5.44
14.454076766967773,-0.93,-4.7,-0.03,4.79
14.464162826538086,-0.83,-3.89,0.18,3.98
14.48458194732666,-0.73,-2.99,0.33,3.09
14.484948873519897,-0.74,-2.05,0.52,2.24
14.494303703308105,-0.87,-1.18,0.65,1.6
14.50407075881958,-0.88,-0.41,0.58,1.13
14.514148712158203,-0.79,0.21,0.34,0.88
14.534479856491089,-0.68,0.84,0.23,1.1
14.534849882125854,-0.72,1.53,0.61,1.79
14.54424786567688,-0.91,2.36,1.44,2.91
14.554011821746826,-0.98,3.31,2.18,4.08
14.56417179107666,-0.77,4.29,2.64,5.09
14.584139823913574,-0.58,5.25,2.77,5.96
14.584517002105713,-0.37,6.09,2.45,6.57
14.594279766082764,-0.11,6.46,2.06,6.78
14.60405683517456,0.07,6.19,1.78,6.44
14.61420488357544,0.45,5.48,1.54,5.71
14.633718013763428,0.81,4.78,0.72,4.9
14.634081840515137,1.0,4.28,0.14,4.39
14.644230842590332,0.91,3.64,-0.91,3.86
14.654100894927979,1.45,2.39,-2.61,3.82
14.66426682472229,2.24,0.93,-3.73,4.44
14.682873725891113,2.12,0.21,-3.47,4.07
14.684175968170166,2.07,0.24,-2.32,3.11
14.694341897964478,2.55,0.57,-1.54,3.03
14.704086780548096,2.77,1.15,-1.39,3.3
14.714236736297607,2.46,1.93,-1.03,3.29
14.733515739440918,2.2,2.49,-0.51,3.36
14.734086990356445,2.03,2.47,-0.38,3.21
14.744297981262207,1.66,2.02,-0.5,2.66
14.754199981689453,1.13,1.35,-0.27,1.78
14.764298915863037,0.58,0.64,0.07,0.86
14.784026861190796,0.07,-0.17,0.21,0.27
14.784363746643066,-0.44,-1.01,0.21,1.12
14.794344902038574,-0.97,-2.02,0.09,2.24
14.804280757904053,-1.39,-2.94,-0.06,3.25
14.8143949508667,-1.82,-3.94,-0.39,4.35
14.834739685058594,-2.15,-4.9,-0.59,5.38
14.835110902786255,-2.34,-5.71,-0.72,6.21
14.844358921051025,-2.44,-6.32,-0.92,6.83
14.854256868362427,-2.37,-6.67,-1.01,7.15
14.864282846450806,-2.09,-6.79,-0.96,7.16
14.884408950805664,-1.79,-6.59,-0.93,6.89
14.884766817092896,-1.59,-6.15,-0.98,6.42
14.89435887336731,-1.56,-5.5,-0.96,5.79
14.904187679290771,-1.28,-4.72,-0.74,4.94
14.914366722106934,-0.8,-3.72,-0.61,3.85
14.933697700500488,-0.36,-2.57,-0.47,2.63
14.934159755706787,-0.01,-1.45,-0.09,1.45
14.944302797317505,0.49,-0.46,0.55,0.86
14.954236030578613,1.03,0.22,1.16,1.56
14.96434497833252,1.25,0.71,1.4,2.0
14.98458981513977,1.28,1.08,1.28,2.1
14.984964847564697,1.2,1.49,1.03,2.17
14.994263887405396,1.12,1.94,1.09,2.49
15.004243850708008,1.0,2.43,1.55,3.05
15.014415740966797,0.75,3.11,1.99,3.76
15.035473823547363,0.67,3.92,2.69,4.8
15.035837888717651,0.87,4.73,3.27,5.81
15.044328689575195,1.14,5.31,2.89,6.15
15.054170846939087,1.29,5.54,2.0,6.02
15.064246892929077,1.46,5.54,1.48,5.91
15.085533857345581,1.17,5.39,0.92,5.59
15.085898876190186,0.67,5.3,0.54,5.36
15.094358921051025,0.54,5.03,0.44,5.07
15.104129791259766,0.13,3.76,-0.55,3.8
15.114451885223389,-1.04,1.8,-1.94,2.84
15.135633945465088,-1.59,0.09,-2.58,3.03
15.136006832122803,-1.31,-0.84,-2.57,3.0
15.144518852233887,-1.14,-0.86,-2.69,3.04
15.154201030731201,-1.09,0.04,-2.45,2.68
15.164453029632568,-0.93,1.22,-1.5,2.14
15.18500280380249,-0.64,2.38,-0.79,2.58
15.185372829437256,-0.26,3.3,-0.59,3.36
15.194401741027832,-0.1,3.34,-0.49,3.37
15.204103946685791,0.06,2.9,0.02,2.9
15.214402675628662,0.16,2.09,0.48,2.15
15.234172821044922,0.28,1.08,0.41,1.18
15.234533786773682,0.4,0.02,-0.1,0.41
15.244407892227173,0.61,-0.97,-0.53,1.26
15.254204750061035,0.68,-1.9,-0.64,2.11
15.264458894729614,0.58,-2.89,-0.58,3.0
15.284889698028564,0.45,-3.82,-0.49,3.87
15.285255908966064,0.26,-4.59,-0.43,4.61
15.29434871673584,0.05,-5.29,-0.53,5.31
15.304085731506348,-0.04,-5.82,-0.67,5.85
15.31450080871582,-0.02,-6.15,-0.86,6.2
15.33441972732544,0.05,-6.26,-0.99,6.33
15.334796905517578,0.04,-6.15,-1.11,6.24
15.34441590309143,-0.1,-5.77,-1.04,5.86
15.354309797286987,-0.34,-5.22,-0.67,5.27
15.364503860473633,-0.55,-4.54,-0.23,4.57
15.385339736938477,-0.76,-3.69,0.06,3.76
15.385705947875977,-1.06,-2.71,0.38,2.93
15.394394874572754,-1.13,-1.69,0.81,2.18
15.404306888580322,-0.96,-0.91,1.12,1.73
15.414474964141846,-0.75,-0.41,1.07,1.36
15.435822010040283,-0.76,0.04,0.91,1.18
15.436190843582153,-0.71,0.46,1.02,1.32
15.444543838500977,-0.7,0.96,1.38,1.82
15.454362869262695,-0.97,1.65,2.15,2.87
15.464571952819824,-1.25,2.58,2.97,4.12
15.485854864120483,-1.27,3.61,3.12,4.93
15.486219882965088,-0.92,4.56,2.71,5.38
15.494550704956055,-0.41,5.19,2.2,5.65
15.50433874130249,0.13,5.41,1.96,5.75
15.514551877975464,0.43,5.14,2.06,5.55
15.535998821258545,0.43,4.72,1.98,5.13
15.536358833312988,0.54,4.6,1.17,4.77
15.54450273513794,1.11,4.88,0.39,5.01
15.554397821426392,1.1,5.03,-0.08,5.14
15.564550876617432,0.7,4.22,-1.83,4.65
15.58601999282837,0.98,2.92,-3.78,4.87
15.586390972137451,1.05,1.66,-3.59,4.09
15.594491958618164,0.75,1.12,-2.16,2.54
15.604456901550293,1.07,1.09,-1.7,2.28
15.614632844924927,1.85,1.16,-1.89,2.88
15.636124849319458,2.34,1.42,-1.88,3.32
15.636490821838379,2.52,1.64,-1.57,3.39
15.64445972442627,2.52,1.61,-1.28,3.25
15.654473781585693,2.19,1.25,-0.94,2.69
15.664532899856567,1.64,0.78,-0.51,1.88
15.685142993927002,0.81,0.34,-0.12,0.88
15.685532808303833,0.06,-0.11,0.08,0.14
15.694540023803711,-0.64,-0.73,-0.03,0.97
15.704652786254883,-1.36,-1.39,-0.22,1.95
15.714658737182617,-1.8,-1.98,-0.32,2.69
15.735384941101074,-1.93,-2.51,-0.28,3.17
15.73575496673584,-1.8,-3.18,-0.3,3.66
15.744510889053345,-1.64,-3.86,-0.42,4.21
15.75465989112854,-1.51,-4.49,-0.43,4.75
15.76460075378418,-1.31,-4.97,-0.42,5.15
15.786759853363037,-1.07,-5.26,-0.36,5.37
15.787155866622925,-0.82,-5.45,-0.44,5.52
15.794493913650513,-0.54,-5.48,-0.37,5.51
15.80473780632019,-0.33,-5.37,-0.33,5.39
15.814566850662231,-0.23,-5.24,-0.43,5.26
15.83637285232544,-0.18,-4.85,-0.49,4.87
15.836750984191895,-0.02,-4.4,-0.45,4.42
15.844579696655273,0.09,-3.77,-0.36,3.78
15.854776859283447,0.32,-2.96,-0.23,2.98
15.864638805389404,0.58,-2.04,-0.11,2.12
15.886152744293213,0.69,-1.23,0.27,1.43
15.886514902114868,0.67,-0.4,0.6,0.98
15.89463186264038,0.59,0.48,0.94,1.2
15.904911994934082,0.5,1.35,1.45,2.04
15.914659023284912,0.63,2.27,1.87,3.0
15.936235904693604,0.85,3.11,2.06,3.82
15.936594009399414,1.2,3.91,2.39,4.73
15.944572925567627,1.49,4.71,2.92,5.73
15.95493483543396,1.58,5.43,3.07,6.43
15.964427947998047,1.76,5.87,2.67,6.68
15.986766815185547,1.8,5.75,1.66,6.24
15.987125873565674,1.47,5.46,0.88,5.72
15.994603872299194,0.9,5.28,0.44,5.37
16.004974842071533,0.65,5.55,0.86,5.65
16.014999866485596,0.36,5.7,0.4,5.72
16.035062789916992,-0.44,4.5,-1.79,4.86
16.03542685508728,-1.01,2.62,-2.99,4.1
16.04320788383484,-0.55,0.78,-2.56,2.73
16.053224802017212,-0.37,-0.4,-1.79,1.87
16.063238859176636,-1.16,-0.73,-1.28,1.87
16.085515022277832,-1.88,-0.38,-0.96,2.14
16.085875988006592,-1.98,0.37,-0.78,2.16
16.09328269958496,-1.62,1.2,-0.69,2.13
16.103319883346558,-1.01,1.87,-0.71,2.24
16.113564014434814,-0.55,1.99,-0.74,2.19
16.136008739471436,-0.11,1.71,-0.39,1.75
16.13636875152588,0.09,1.21,-0.04,1.21
16.143255710601807,0.3,0.55,0.0,0.62
16.15327501296997,0.45,-0.28,-0.2,0.56
16.16343069076538,0.41,-1.21,-0.43,1.34
16.185511827468872,0.33,-2.16,-0.57,2.25
16.18587875366211,0.29,-3.1,-0.64,3.17
16.193399906158447,0.25,-3.87,-0.79,3.95
16.20336389541626,0.24,-4.47,-0.99,4.58
16.213441848754883,0.2,-5.0,-0.97,5.09
16.236166954040527,0.04,-5.38,-0.95,5.46
16.236528873443604,-0.33,-5.62,-0.86,5.69
16.243474006652832,-0.68,-5.67,-0.75,5.75
16.253310680389404,-0.87,-5.65,-0.63,5.75
16.263433933258057,-0.95,-5.47,-0.42,5.56
16.28660488128662,-0.85,-5.06,-0.23,5.13
16.286958694458008,-0.57,-4.47,-0.03,4.5
16.29336380958557,-0.39,-3.5,0.24,3.52
16.30336880683899,-0.24,-2.49,0.47,2.54
16.31346583366394,-0.31,-1.39,0.78,1.62
16.33686399459839,-0.64,-0.57,1.14,1.42
16.33725595474243,-1.06,0.11,1.32,1.69
16.343647956848145,-1.35,0.76,1.27,2.0
16.353319883346558,-1.22,1.46,1.17,2.23
16.36340570449829,-0.65,2.23,1.42,2.72
16.38611888885498,-0.21,3.0,2.16,3.7
16.38647699356079,-0.11,3.84,2.8,4.75
16.393329858779907,-0.02,4.83,2.83,5.59
16.40346384048462,-0.06,5.56,2.4,6.05
16.414755821228027,-0.28,5.88,1.96,6.2
16.437395811080933,-0.54,5.75,1.94,6.09
16.437785863876343,-0.91,5.15,2.22,5.68
16.44476580619812,-1.08,4.35,1.98,4.89
16.454742908477783,-0.73,3.71,0.87,3.87
16.464807987213135,0.1,3.31,0.02,3.31
16.486804008483887,0.91,2.78,-1.08,3.11
16.4871768951416,1.5,1.72,-3.21,3.93
16.494738817214966,2.44,0.62,-4.67,5.3
16.50468397140503,3.16,0.42,-3.62,4.82
16.5147967338562,2.92,0.78,-1.92,3.58
16.536993980407715,2.71,1.24,-1.11,3.18
16.537360906600952,2.38,1.73,-0.73,3.03
16.54477286338806,1.89,2.19,-0.56,2.94
16.554666996002197,1.53,2.32,-0.71,2.86
16.564814805984497,1.29,1.86,-1.2,2.56
16.587327003479004,0.98,1.14,-1.28,1.97
16.58768582344055,0.52,0.51,-0.6,0.94
16.594770908355713,0.13,-0.03,0.09,0.16
16.604667901992798,-0.18,-0.62,0.39,0.75
16.61493492126465,-0.56,-1.39,0.38,1.54
16.636837005615234,-0.94,-2.11,0.17,2.31
16.63719892501831,-1.32,-2.92,-0.09,3.2
16.644734859466553,-1.65,-3.74,-0.33,4.1
16.654695987701416,-1.91,-4.56,-0.48,4.96
16.66479778289795,-2.16,-5.38,-0.59,5.82
16.686349868774414,-2.2,-5.9,-0.67,6.33
16.686739921569824,-2.15,-6.31,-0.81,6.71
16.694835901260376,-1.95,-6.48,-0.8,6.81
16.7046480178833,-1.59,-6.34,-0.79,6.58
16.714852809906006,-1.22,-6.03,-0.87,6.21
16.736108779907227,-0.89,-5.55,-0.99,5.7
16.73646879196167,-0.5,-4.82,-0.68,4.89
16.744759798049927,-0.07,-3.75,-0.32,3.76
16.75466299057007,0.1,-2.49,-0.16,2.49
16.764822006225586,0.25,-1.23,0.11,1.25
16.78594970703125,0.67,-0.08,0.65,0.93
16.78630781173706,1.12,0.68,1.18,1.76
16.794829845428467,1.54,1.1,1.29,2.29
16.80464482307434,1.82,1.42,1.34,2.66
16.814817905426025,1.81,1.68,1.6,2.94
16.836452960968018,1.74,2.11,2.07,3.42
16.83681297302246,1.58,2.83,2.47,4.07
16.844791889190674,1.34,3.89,2.45,4.78
16.854710817337036,1.05,4.97,2.4,5.61
16.86489486694336,0.78,5.84,2.44,6.37
16.88661789894104,0.78,6.32,2.49,6.83
16.8869788646698,0.93,6.07,2.46,6.61
16.894765853881836,0.95,5.29,1.92,5.7
16.9047908782959,0.75,4.62,0.73,4.73
16.91489291191101,0.5,4.3,0.45,4.35
16.936995029449463,0.38,3.77,0.26,3.79
16.93736171722412,-0.48,2.27,-1.49,2.75
16.94485902786255,-1.55,0.46,-3.16,3.54
16.954816818237305,-1.62,-0.7,-2.53,3.08
16.964902877807617,-1.49,-1.02,-1.31,2.23
16.988039016723633,-1.86,-0.58,-1.03,2.2
16.988417863845825,-2.09,0.21,-0.84,2.26
16.99491786956787,-1.55,1.11,-0.57,1.98
17.004892826080322,-0.78,2.04,-0.6,2.26
17.01492190361023,-0.33,2.51,-0.73,2.63
17.038256883621216,0.48,2.51,-1.0,2.74
17.038635730743408,0.97,2.05,-0.79,2.4
17.044809818267822,0.89,1.23,-0.62,1.63
17.054776906967163,0.68,0.2,-0.72,1.01
17.064963817596436,0.5,-0.91,-0.76,1.28
17.08824586868286,0.39,-1.88,-0.68,2.03
17.088615894317627,0.3,-2.77,-0.58,2.84
17.094863891601562,0.26,-3.59,-0.5,3.63
17.10474395751953,0.16,-4.23,-0.45,4.25
17.114837884902954,0.04,-4.86,-0.39,4.87
17.137829780578613,-0.09,-5.27,-0.35,5.28
17.13820791244507,-0.29,-5.6,-0.23,5.61
17.144814014434814,-0.61,-5.84,-0.1,5.87
17.154751777648926,-0.81,-5.87,-0.21,5.92
17.16487693786621,-0.95,-5.74,-0.35,5.82
17.187927722930908,-1.01,-5.42,-0.35,5.52
17.18830680847168,-0.95,-4.76,-0.2,4.85
17.194952964782715,-0.86,-3.81,0.0,3.9
17.204761028289795,-0.76,-2.74,0.07,2.84
17.214963912963867,-0.84,-1.68,0.2,1.88
17.237852811813354,-0.89,-0.59,0.5,1.17
17.23821783065796,-0.76,0.18,0.65,1.01
17.244855880737305,-0.61,0.72,0.67,1.15
17.254858016967773,-0.33,1.22,1.07,1.65
17.264850854873657,-0.12,1.84,1.49,2.37
17.28750491142273,-0.14,2.68,1.91,3.29
17.2878680229187,-0.13,3.67,2.34,4.35
17.294870853424072,-0.15,4.69,2.51,5.32
17.30480194091797,-0.42,5.55,2.57,6.13
17.314891815185547,-0.47,5.95,2.26,6.38
17.337942838668823,-0.39,5.72,1.75,5.99
17.338305950164795,-0.53,5.01,1.5,5.25
17.34484887123108,-0.69,4.09,1.12,4.29
17.35487174987793,-0.35,3.46,0.4,3.5
17.364941835403442,0.41,3.32,0.14,3.34
17.387494802474976,0.71,3.27,-0.89,3.46
17.387860774993896,1.25,2.42,-3.33,4.3
17.39491581916809,2.06,1.48,-4.3,4.99
17.404886722564697,2.35,1.31,-2.8,3.88
17.41505789756775,2.64,1.69,-1.53,3.48
17.43818473815918,3.05,2.15,-1.48,4.01
17.43854784965515,3.02,2.43,-1.61,4.19
17.444949865341187,2.75,2.48,-1.26,3.91
17.45499587059021,2.3,2.05,-1.03,3.24
17.465112686157227,1.71,1.44,-0.98,2.44
17.487756729125977,1.09,0.89,-0.57,1.51
17.488136768341064,0.36,0.48,-0.04,0.6
17.49496603012085,-0.5,0.08,0.32,0.59
17.504926681518555,-1.2,-0.5,0.42,1.36
17.515053749084473,-1.56,-1.26,0.31,2.02
17.53838872909546,-1.83,-1.98,0.05,2.69
17.538753986358643,-1.82,-2.66,0.01,3.22
17.54500389099121,-1.5,-3.5,-0.07,3.8
17.555025815963745,-1.19,-4.11,-0.33,4.29
17.565054893493652,-0.71,-4.61,-0.49,4.69
17.588303804397583,-0.32,-5.14,-0.44,5.16
17.58867073059082,-0.1,-5.58,-0.26,5.58
17.5948588848114,0.1,-5.93,-0.5,5.95
17.60483479499817,0.15,-6.06,-0.94,6.13
17.61512279510498,0.24,-5.89,-1.09,5.99
17.63881492614746,0.33,-5.49,-1.04,5.59
17.63918685913086,0.21,-4.93,-0.79,4.99
17.64495277404785,0.03,-4.34,-0.42,4.36
17.65492582321167,-0.16,-3.64,-0.06,3.64
17.665109872817993,-0.1,-2.9,0.14,2.9
17.687991857528687,0.21,-2.04,0.11,2.05
17.688357830047607,0.58,-1.14,0.12,1.28
17.695068836212158,0.88,-0.33,0.25,0.97
17.704985857009888,0.84,0.39,0.55,1.07
17.715189933776855,0.62,1.15,0.93,1.6
17.737923860549927,0.64,2.09,1.59,2.7
17.738282680511475,0.78,3.12,2.28,3.94
17.745019912719727,0.94,4.08,2.38,4.81
17.754963874816895,0.97,4.98,2.06,5.47
17.76517081260681,1.07,5.69,1.64,6.01
17.788075923919678,1.3,6.13,1.8,6.51
17.78843402862549,1.46,5.97,2.21,6.53
17.795050859451294,1.13,5.36,1.29,5.62
17.804991722106934,0.55,5.12,-0.19,5.15
17.815165996551514,0.83,5.71,-0.04,5.77
17.83760976791382,1.0,6.03,0.12,6.11
17.83797597885132,-0.42,4.86,-1.43,5.08
17.84501075744629,-1.82,2.76,-2.2,3.97
17.854980945587158,-1.95,0.86,-1.38,2.53
17.865094900131226,-2.15,-0.07,-0.6,2.23
17.88888168334961,-2.44,-0.15,-0.88,2.59
17.889272689819336,-2.29,0.33,-1.2,2.6
17.89514970779419,-1.62,1.18,-1.14,2.3
17.905046939849854,-0.79,2.14,-1.2,2.57
17.915125846862793,-0.23,2.76,-1.03,2.95
17.938536882400513,0.03,2.64,-0.46,2.67
17.938894748687744,0.07,1.93,-0.02,1.93
17.94509792327881,-0.09,0.92,-0.03,0.92
17.955058813095093,-0.25,-0.26,-0.21,0.41
17.965258836746216,-0.22,-1.45,-0.4,1.52
17.988465785980225,-0.06,-2.55,-0.55,2.6
17.988828897476196,0.03,-3.52,-0.64,3.57
17.995105743408203,0.24,-4.34,-0.81,4.42
18.005066871643066,0.39,-4.87,-0.91,4.96
18.015230894088745,0.55,-5.25,-1.01,5.37
18.037883758544922,0.56,-5.42,-1.05,5.54
18.038259983062744,0.44,-5.49,-1.26,5.64
18.045089721679688,0.04,-5.48,-1.41,5.65
18.0551118850708,-0.21,-5.35,-1.24,5.49
18.06512689590454,-0.25,-4.91,-1.04,5.02
18.0886549949646,-0.3,-4.41,-0.7,4.47
18.089011907577515,-0.29,-3.77,-0.23,3.78
18.095127820968628,-0.39,-3.09,0.31,3.12
18.105045795440674,-0.42,-2.4,0.56,2.5
18.115115880966187,-0.73,-1.71,0.57,1.94
18.139843940734863,-1.03,-1.11,0.62,1.63
18.14022183418274,-0.95,-0.61,0.69,1.32
18.14512300491333,-0.89,-0.19,0.75,1.17
18.155148029327393,-0.86,0.19,0.6,1.06
18.165205001831055,-0.75,0.86,0.43,1.21
18.18941068649292,-0.62,1.8,0.85,2.08
18.189777851104736,-0.65,2.91,1.67,3.41
18.195181846618652,-0.62,3.99,2.36,4.67
18.205095767974854,-0.58,4.96,2.64,5.64
18.215216875076294,-0.38,5.66,2.37,6.14
18.239410877227783,-0.16,5.95,2.0,6.27
18.239779949188232,-0.42,5.51,1.86,5.83
18.24510383605957,-0.81,4.56,1.58,4.89
18.255035877227783,-0.84,3.74,1.03,3.96
18.265206813812256,-0.48,3.2,0.64,3.29
18.28881287574768,-0.34,2.62,-0.26,2.65
18.28918170928955,-0.11,1.67,-2.4,2.92
18.29509973526001,0.8,0.47,-3.97,4.07
18.30496382713318,1.77,-0.04,-3.21,3.66
18.31514286994934,2.21,0.34,-1.5,2.69
18.33901286125183,2.46,0.81,-1.11,2.81
18.339382886886597,2.59,1.35,-1.29,3.19
18.345101833343506,2.4,2.09,-1.15,3.38
18.355068683624268,2.05,2.82,-0.82,3.58
18.36527991294861,1.69,2.98,-0.67,3.49
18.389380931854248,1.15,2.69,-0.68,3.0
18.389741897583008,0.65,2.34,-0.4,2.46
18.395129680633545,0.29,1.93,-0.15,1.95
18.405128002166748,-0.03,1.39,-0.06,1.39
18.415225982666016,-0.41,0.63,0.07,0.75
18.438408851623535,-0.76,-0.24,0.19,0.81
18.43877077102661,-1.06,-1.24,0.18,1.64
18.445225715637207,-1.37,-2.39,0.01,2.75
18.455204963684082,-1.63,-3.55,-0.33,3.92
18.46526789665222,-1.86,-4.5,-0.66,4.91
18.48918390274048,-1.88,-5.17,-0.82,5.56
18.48954200744629,-1.92,-5.69,-0.89,6.07
18.495282888412476,-1.74,-6.06,-0.85,6.36
18.50524377822876,-1.4,-6.33,-0.7,6.52
18.515252828598022,-0.96,-6.41,-0.7,6.51
18.536122798919678,-0.5,-6.31,-0.8,6.38
18.536458015441895,-0.19,-6.0,-0.94,6.07
18.545187950134277,0.07,-5.44,-1.0,5.53
18.55526089668274,0.26,-4.64,-1.19,4.79
18.565085887908936,0.34,-3.58,-1.01,3.73
18.584852695465088,0.54,-2.47,-0.49,2.57
18.585132837295532,0.61,-1.43,-0.21,1.56
18.595104694366455,0.8,-0.46,0.2,0.94
18.605044841766357,0.84,0.35,0.52,1.04
18.61540985107422,0.75,1.12,0.92,1.63
18.633745908737183,0.72,1.74,1.55,2.43
18.635042905807495,0.96,2.21,2.03,3.15
18.645177841186523,1.25,2.93,2.23,3.88
18.654985904693604,1.58,3.84,2.3,4.74
18.665040016174316,1.82,4.87,2.52,5.77
18.686892986297607,1.79,5.77,2.6,6.57
18.68718671798706,1.38,6.13,2.6,6.8
18.695230960845947,0.93,5.75,2.47,6.32
18.705387830734253,0.63,4.82,2.0,5.25
18.715333938598633,0.12,4.11,1.11,4.25
18.739951848983765,-0.46,3.86,0.56,3.92
18.740400791168213,-0.49,3.82,0.46,3.87
18.745354890823364,-0.97,3.17,-1.13,3.5
18.755242824554443,-1.68,1.65,-3.01,3.82
18.765439987182617,-1.41,0.34,-2.67,3.03
18.791321754455566,-0.82,-0.37,-1.57,1.8
18.79249382019043,-0.88,-0.32,-1.16,1.49
18.79536485671997,-1.04,0.29,-1.19,1.6
18.8054358959198,-1.1,1.08,-1.27,1.99
18.815403938293457,-1.09,1.92,-0.9,2.38
18.841722011566162,-0.93,2.61,-0.62,2.83
18.84275770187378,-0.97,2.92,-0.38,3.1
18.84528398513794,-0.83,2.73,0.06,2.85
18.855377912521362,-0.69,2.17,0.15,2.28
18.86539387702942,-0.51,1.34,0.02,1.43
18.891390800476074,-0.24,0.24,-0.31,0.45
18.892486810684204,0.11,-0.98,-0.56,1.13
18.895349979400635,0.34,-2.18,-0.79,2.34
18.905276775360107,0.49,-3.29,-0.93,3.45
18.915337800979614,0.59,-4.14,-0.87,4.27
18.940098762512207,0.53,-4.8,-0.77,4.89
18.940478801727295,0.49,-5.27,-0.69,5.33
18.945385932922363,0.34,-5.57,-0.64,5.61
18.955286026000977,0.23,-5.67,-0.68,5.71
18.96540880203247,0.03,-5.56,-0.81,5.61
18.99036169052124,-0.27,-5.31,-0.86,5.38
18.99072790145874,-0.52,-4.98,-0.83,5.07
18.995287895202637,-0.68,-4.59,-0.6,4.67
19.005329847335815,-0.88,-4.13,-0.3,4.23
19.015448808670044,-0.97,-3.51,0.06,3.64
19.039867877960205,-0.96,-2.71,0.4,2.9
19.040242910385132,-0.84,-1.91,0.67,2.19
19.045244693756104,-0.8,-1.15,0.86,1.64
19.055269718170166,-0.82,-0.53,0.77,1.24
19.065399885177612,-0.82,0.01,0.47,0.94
19.08929967880249,-0.79,0.53,0.43,1.04
19.08967089653015,-0.45,1.13,0.72,1.41
19.095297813415527,-0.17,1.92,1.36,2.35
19.105309009552002,-0.13,2.97,2.18,3.68
19.11544895172119,-0.32,4.3,2.65,5.06
19.139105796813965,-0.5,5.45,2.64,6.07
19.139479875564575,-0.48,6.21,2.29,6.63
19.14517879486084,-0.63,6.3,2.18,6.69
19.155293941497803,-0.88,5.77,2.21,6.24
19.165392875671387,-0.96,5.07,2.0,5.53
19.18983793258667,-0.35,4.68,1.48,4.92
19.190202713012695,0.57,4.6,1.01,4.74
19.195340871810913,1.09,4.26,-0.18,4.4
19.205391883850098,1.61,3.43,-2.37,4.46
19.215413808822632,2.15,1.98,-3.59,4.62
19.241211891174316,1.88,0.78,-3.17,3.76
19.24157190322876,1.67,0.51,-2.15,2.76
19.245373725891113,2.04,0.7,-1.75,2.77
19.255367755889893,2.26,1.11,-1.61,2.98
19.265399932861328,2.1,1.51,-1.29,2.89
19.29111099243164,1.8,1.66,-0.78,2.56
19.29147982597351,1.39,1.46,-0.51,2.07
19.295379877090454,0.87,0.91,-0.59,1.39
19.30524182319641,0.44,0.32,-0.4,0.67
19.31538677215576,0.19,-0.12,-0.06,0.23
19.341084003448486,-0.08,-0.4,0.19,0.45
19.34144878387451,-0.43,-0.95,0.06,1.04
19.34533977508545,-0.87,-1.55,-0.25,1.79
19.355352878570557,-1.17,-2.19,-0.46,2.52
19.36551570892334,-1.43,-2.93,-0.5,3.29
19.38951086997986,-1.62,-3.63,-0.46,4.0
19.38984179496765,-1.62,-4.41,-0.47,4.72
19.39535880088806,-1.54,-4.98,-0.55,5.24
19.405327796936035,-1.5,-5.45,-0.65,5.68
19.415531873703003,-1.23,-5.69,-0.74,5.86
19.44003391265869,-0.96,-5.7,-0.71,5.82
19.44036293029785,-0.61,-5.57,-0.71,5.64
19.44548273086548,-0.13,-5.26,-0.87,5.33
19.455421924591064,0.28,-4.76,-0.96,4.86
19.46549701690674,0.48,-4.01,-0.82,4.12
19.490952968597412,0.62,-3.2,-0.56,3.3
19.491321802139282,0.69,-2.48,-0.28,2.58
19.495450973510742,0.62,-1.72,-0.06,1.82
19.505552768707275,0.47,-0.98,0.4,1.15
19.515549898147583,0.34,-0.24,0.84,0.93
19.541942834854126,0.34,0.26,0.9,0.99
19.543023824691772,0.44,0.68,0.82,1.15
19.545498847961426,0.58,1.07,0.84,1.47
19.55551791191101,0.85,1.55,1.19,2.13
19.56556797027588,1.12,2.16,1.63,2.92
19.591962814331055,1.18,2.8,1.76,3.51
19.593125820159912,1.03,3.61,1.75,4.14
19.59538698196411,1.08,4.43,2.02,4.98
19.6054048538208,1.09,4.94,1.91,5.4
19.615522861480713,0.93,5.22,1.75,5.58
19.625465869903564,0.93,5.13,1.91,5.55
19.641032695770264,0.86,4.73,1.52,5.04
19.64557981491089,0.56,4.47,0.64,4.55
19.65541696548462,0.61,4.66,0.6,4.73
19.66552186012268,0.39,4.55,0.07,4.56
19.675480842590332,-0.69,3.53,-1.48,3.88
19.691311836242676,-1.64,2.17,-2.02,3.38
19.69548988342285,-1.63,0.95,-1.68,2.52
19.705426692962646,-1.72,0.28,-1.37,2.21
19.71549081802368,-2.32,0.51,-1.41,2.76
19.725562810897827,-2.49,1.28,-1.62,3.23
19.740633964538574,-2.25,2.07,-1.61,3.45
19.745440006256104,-1.83,2.6,-1.67,3.59
19.755496978759766,-1.3,2.86,-1.66,3.55
19.7655029296875,-0.74,2.81,-1.32,3.19
19.775585889816284,-0.19,2.44,-0.76,2.56
19.790611743927002,0.03,1.87,-0.43,1.91
19.795508861541748,0.08,0.99,-0.44,1.08
19.8054358959198,0.14,-0.09,-0.61,0.63
19.815544843673706,0.19,-1.29,-0.75,1.5
19.825759887695312,0.25,-2.55,-0.98,2.74
19.84125590324402,0.25,-3.66,-1.1,3.82
19.845696926116943,0.39,-4.74,-0.9,4.84
19.855566024780273,0.51,-5.7,-0.58,5.75
19.86587381362915,0.45,-6.51,-0.2,6.52
19.875521898269653,0.38,-7.16,0.16,7.17
19.891104698181152,0.4,-7.41,0.27,7.42
19.895540714263916,0.37,-7.29,0.17,7.3
19.905677795410156,0.37,-6.89,-0.17,6.9
19.91561484336853,0.15,-6.09,-0.58,6.11
19.925821781158447,-0.06,-5.14,-0.67,5.18
19.94260597229004,-0.05,-4.07,-0.46,4.09
19.945809841156006,0.06,-2.94,-0.02,2.94
19.955472946166992,0.0,-1.84,0.6,1.93
19.965765953063965,-0.14,-0.91,1.07,1.41
19.975539684295654,-0.33,-0.07,1.45,1.48
19.99284076690674,-0.58,0.46,1.53,1.69
19.995669841766357,-0.93,0.86,1.36,1.85
20.00572395324707,-1.2,1.26,1.22,2.12
20.01421284675598,-1.25,1.71,1.4,2.53
20.02421283721924,-1.35,2.34,2.29,3.54
20.040678024291992,-1.27,2.95,2.94,4.35
20.04409694671631,-0.99,3.73,2.79,4.76
20.054224014282227,-0.68,4.61,2.17,5.14
20.06434392929077,-0.24,5.44,1.52,5.65
20.07421875,0.01,6.04,1.36,6.19
20.09082794189453,-0.24,5.9,1.45,6.08
20.09418296813965,-0.49,5.0,0.95,5.11
20.104293823242188,-0.62,4.07,-0.03,4.11
20.11498188972473,0.13,3.7,-0.78,3.78
20.124252796173096,1.09,3.59,-0.49,3.78
20.14130687713623,1.12,3.07,-1.04,3.42
20.144242763519287,1.02,1.98,-3.19,3.89
20.15437388420105,1.46,0.84,-4.39,4.7
20.164325714111328,1.77,0.19,-3.73,4.13
20.174304008483887,1.64,0.13,-2.75,3.2
20.191587924957275,1.86,0.34,-2.52,3.15
20.194193840026855,2.19,0.76,-2.33,3.28
20.20425581932068,2.28,1.39,-1.82,3.23
20.21444082260132,2.26,1.97,-1.19,3.22
20.224363803863525,2.1,2.08,-0.79,3.05
20.241925716400146,1.8,1.81,-0.6,2.62
20.244303703308105,1.39,1.38,-0.22,1.97
20.254597902297974,0.92,0.96,0.32,1.36
20.264447689056396,0.52,0.47,0.72,1.0
20.27445387840271,0.1,-0.15,0.87,0.88
20.29251980781555,-0.51,-0.97,0.77,1.33
20.294178009033203,-1.01,-1.84,0.47,2.15
20.30429172515869,-1.42,-2.84,0.18,3.18
20.314615726470947,-1.61,-3.78,-0.26,4.11
20.324407815933228,-1.65,-4.4,-0.77,4.76
20.342419862747192,-1.72,-4.83,-1.14,5.25
20.34426498413086,-1.69,-5.02,-1.33,5.46
20.35427474975586,-1.5,-5.13,-1.24,5.48
20.36429500579834,-1.34,-5.15,-0.97,5.4
20.374475955963135,-1.06,-5.05,-0.65,5.2
20.391575813293457,-0.85,-4.9,-0.48,4.99
20.394251823425293,-0.72,-4.55,-0.37,4.62
20.40439486503601,-0.61,-4.14,-0.19,4.18
20.4170138835907,-0.33,-3.51,0.06,3.52
20.4429829120636,-0.13,-2.66,0.27,2.67
20.443352699279785,-0.05,-1.69,0.4,1.73
20.44697380065918,0.02,-0.85,0.58,1.02
20.456954956054688,0.23,-0.27,0.76,0.83
20.467041015625,0.59,0.14,0.75,0.96
20.492644786834717,0.7,0.46,0.82,1.17
20.493000984191895,0.88,0.7,1.03,1.52
20.49692678451538,1.15,1.08,1.32,2.05
20.5069317817688,1.26,1.46,1.71,2.57
20.51699185371399,1.49,1.94,2.02,3.17
20.52687382698059,1.64,2.61,2.05,3.7
20.542333841323853,1.59,3.57,2.05,4.41
20.54698371887207,1.56,4.6,2.2,5.33
20.556999683380127,1.28,5.39,2.35,6.01
20.567041873931885,0.89,5.78,2.2,6.24
20.576964855194092,0.5,5.77,1.54,5.99
20.592773914337158,0.09,5.53,0.75,5.58
20.59697198867798,-0.17,5.19,0.61,5.22
20.60704469680786,-0.46,4.33,0.23,4.36
20.617108821868896,-1.38,2.8,-1.3,3.38
20.626951694488525,-2.13,1.11,-2.54,3.49
20.64279580116272,-1.71,-0.2,-2.63,3.14
20.64697790145874,-1.12,-0.89,-2.31,2.71
20.6569766998291,-0.97,-0.85,-1.81,2.22
20.667078971862793,-0.58,-0.35,-1.15,1.33
20.677031993865967,-0.45,0.35,-0.85,1.02
20.693357944488525,-0.37,1.31,-0.98,1.67
20.697035789489746,-0.28,1.99,-1.09,2.28
20.707095861434937,-0.41,2.21,-0.77,2.37
20.7171528339386,-0.43,2.0,0.02,2.04
20.72700071334839,-0.57,1.4,0.71,1.67
20.74337887763977,-0.69,0.68,0.64,1.16
20.746881008148193,-0.65,-0.17,0.12,0.68
20.75707983970642,-0.4,-1.0,-0.35,1.13
20.76709794998169,-0.13,-1.81,-0.65,1.92
20.777045726776123,0.02,-2.61,-0.86,2.74
20.79300880432129,0.09,-3.36,-0.97,3.49
20.79706573486328,0.16,-4.08,-0.98,4.19
20.806850910186768,0.35,-4.7,-0.9,4.79
20.817168712615967,0.35,-5.2,-0.71,5.25
20.827035903930664,0.21,-5.54,-0.53,5.56
20.841816902160645,0.2,-5.73,-0.42,5.74
20.84691572189331,0.04,-5.67,-0.49,5.69
20.856968879699707,-0.04,-5.33,-0.57,5.36
20.867116928100586,-0.01,-4.77,-0.52,4.79
20.877049922943115,-0.03,-4.09,-0.4,4.1
20.892571926116943,-0.22,-3.29,-0.13,3.29
20.897092819213867,-0.44,-2.36,0.31,2.42
20.907059907913208,-0.41,-1.54,0.65,1.72
20.91714882850647,-0.31,-0.79,0.95,1.27
20.927067756652832,-0.37,-0.22,1.18,1.25
20.94277572631836,-0.36,0.13,1.23,1.28
20.94693374633789,-0.24,0.45,1.11,1.22
20.95704984664917,-0.16,0.89,1.22,1.51
20.967147827148438,-0.43,1.51,1.52,2.18
20.977059841156006,-0.69,2.36,1.63,2.95
20.9926118850708,-0.67,3.53,1.91,4.06
20.996994972229004,-0.66,4.68,2.17,5.2
21.006972789764404,-0.49,5.51,2.05,5.89
21.01721477508545,-0.27,5.86,1.84,6.14
21.02713680267334,-0.22,5.74,1.77,6.01
21.042850971221924,-0.31,5.33,1.45,5.53
21.04710578918457,-0.06,5.08,0.79,5.14
21.057039737701416,0.63,5.28,0.57,5.34
21.06733798980713,1.16,5.14,0.07,5.26
21.077135801315308,1.41,4.14,-1.64,4.67
21.09235668182373,1.5,2.71,-2.71,4.11
21.097064971923828,0.91,1.24,-2.58,3.0
21.10706090927124,0.53,0.12,-2.38,2.44
21.117255687713623,0.92,-0.54,-2.34,2.57
21.127142906188965,1.19,-0.71,-2.2,2.6
21.142860889434814,1.72,-0.42,-2.06,2.71
21.14713191986084,2.31,0.08,-1.97,3.03
21.157169818878174,2.35,0.6,-1.58,2.89
21.16725182533264,2.0,0.94,-1.22,2.52
21.177145957946777,1.52,1.01,-0.8,1.99
21.192843914031982,1.02,0.89,-0.27,1.38
21.197080850601196,0.52,0.76,-0.13,0.93
21.207100868225098,0.14,0.48,-0.29,0.57
21.217230796813965,-0.28,0.05,-0.36,0.45
21.227191925048828,-0.71,-0.55,-0.25,0.93
21.2433819770813,-1.06,-1.34,-0.18,1.71
21.24722194671631,-1.12,-2.14,-0.32,2.43
21.25714087486267,-1.12,-3.03,-0.36,3.25
21.26720690727234,-1.12,-3.76,-0.39,3.94
21.277134895324707,-1.12,-4.34,-0.39,4.49
21.294278860092163,-1.1,-4.74,-0.42,4.88
21.297202825546265,-0.98,-4.97,-0.46,5.08
21.3071928024292,-0.79,-5.05,-0.53,5.13
21.317184925079346,-0.54,-4.98,-0.69,5.05
21.327180862426758,-0.35,-4.72,-0.71,4.78
21.344595909118652,-0.1,-4.43,-0.58,4.46
21.34730577468872,0.07,-3.98,-0.42,4.0
21.357223987579346,0.17,-3.5,-0.32,3.51
21.367308855056763,0.18,-2.9,-0.12,2.9
21.377179861068726,0.36,-2.24,0.39,2.3
21.395181894302368,0.46,-1.66,0.77,1.88
21.397196769714355,0.48,-1.08,0.95,1.51
21.407304763793945,0.49,-0.59,0.96,1.22
21.417194843292236,0.6,-0.1,0.66,0.89
21.427204847335815,0.65,0.43,0.58,0.97
21.444970846176147,0.77,1.07,0.93,1.61
21.44702982902527,0.95,1.77,1.46,2.48
21.457141876220703,0.88,2.5,2.2,3.44
21.46729803085327,0.72,3.2,2.78,4.29
21.477285861968994,0.7,4.03,2.58,4.83
21.49474000930786,0.49,4.76,2.35,5.33
21.497214794158936,0.64,5.09,2.24,5.59
21.50714683532715,0.74,5.09,2.14,5.57
21.517270803451538,0.8,4.73,1.84,5.13
21.527273893356323,0.51,4.55,1.17,4.72
21.544503688812256,0.46,4.67,1.03,4.8
21.547330856323242,0.72,4.51,0.68,4.61
21.55715274810791,0.18,3.64,-1.13,3.81
21.567447900772095,-0.79,2.44,-2.34,3.47
21.57724690437317,-0.87,1.08,-2.46,2.82
21.594748973846436,-0.61,-0.3,-2.62,2.7
21.597218990325928,-0.92,-1.17,-2.22,2.67
21.607152938842773,-1.46,-1.26,-1.47,2.42
21.617369890213013,-1.4,-0.79,-1.1,1.94
21.627277851104736,-1.29,0.05,-1.24,1.79
21.644603729248047,-1.03,1.12,-1.29,1.99
21.64728593826294,-0.45,1.96,-1.12,2.3
21.657147884368896,0.0,2.21,-0.75,2.33
21.667295932769775,0.17,2.19,-0.13,2.2
21.67724585533142,-0.07,1.84,0.38,1.88
21.69364595413208,-0.19,1.13,0.46,1.23
21.697128772735596,-0.07,0.26,-0.07,0.27
21.70722198486328,0.09,-0.63,-0.66,0.91
21.717471837997437,0.33,-1.44,-1.08,1.83
21.727293014526367,0.51,-2.19,-1.23,2.56
21.743448734283447,0.57,-2.9,-1.16,3.17
21.74723196029663,0.59,-3.53,-0.97,3.7
21.75736093521118,0.5,-4.16,-0.79,4.26
21.7672278881073,0.48,-4.64,-0.79,4.73
21.77746295928955,0.48,-4.84,-0.89,4.94
21.793678760528564,0.32,-4.9,-0.85,4.98
21.797152996063232,0.12,-4.86,-0.74,4.91
21.807151794433594,-0.07,-4.69,-0.63,4.73
21.81726384162903,-0.26,-4.45,-0.39,4.47
21.827255725860596,-0.4,-4.04,0.0,4.05
21.84381079673767,-0.57,-3.51,0.28,3.56
21.847043991088867,-0.74,-2.95,0.4,3.06
21.85715675354004,-0.84,-2.31,0.42,2.49
21.867326736450195,-0.75,-1.74,0.45,1.94
21.877296924591064,-0.65,-1.22,0.55,1.48
21.89474391937256,-0.47,-0.86,0.56,1.12
21.89719295501709,-0.57,-0.41,0.26,0.74
21.907270908355713,-0.74,0.15,0.16,0.77
21.917390823364258,-0.86,0.87,0.42,1.29
21.92730188369751,-0.94,1.74,1.07,2.24
21.944647789001465,-1.0,2.73,1.77,3.4
21.9471378326416,-1.01,3.68,2.07,4.34
21.957274913787842,-0.85,4.6,2.02,5.09
21.967244863510132,-0.5,5.29,1.83,5.61
21.977325916290283,-0.3,5.5,2.0,5.86
21.993803024291992,-0.23,5.11,2.29,5.6
21.997151851654053,-0.33,4.21,2.05,4.69
22.00728702545166,-0.31,3.28,1.24,3.52
22.017367839813232,0.25,2.88,0.44,2.92
22.02733087539673,1.11,2.82,0.02,3.03
22.044363975524902,1.36,2.31,-1.12,2.9
22.04721188545227,1.74,1.32,-3.3,3.95
22.057288885116577,2.04,0.35,-4.31,4.78
22.067415714263916,1.53,-0.02,-3.36,3.69
22.07740068435669,1.37,0.17,-1.92,2.36
22.093992710113525,1.53,0.53,-1.55,2.24
22.097320795059204,1.54,0.94,-1.65,2.44
22.107421875,1.68,1.52,-1.47,2.7
22.117491722106934,1.75,2.1,-0.97,2.9
22.127413749694824,1.61,2.23,-0.69,2.83
22.144011974334717,1.01,2.1,-0.61,2.4
22.147296905517578,0.72,1.88,-0.33,2.04
22.157413959503174,0.45,1.67,-0.15,1.73
22.167439937591553,0.07,1.46,-0.18,1.47
22.177440881729126,-0.26,1.12,-0.26,1.17
22.194429874420166,-0.69,0.57,-0.2,0.91
22.197279930114746,-1.08,-0.1,-0.13,1.09
22.20740795135498,-1.4,-0.98,-0.34,1.74
22.217543840408325,-1.66,-1.88,-0.72,2.6
22.22742486000061,-1.73,-2.7,-0.91,3.33
22.245004892349243,-1.57,-3.46,-0.95,3.91
22.247208833694458,-1.35,-4.01,-0.84,4.31
22.257429838180542,-1.22,-4.49,-0.76,4.71
22.267469882965088,-0.92,-4.77,-0.85,4.93
22.277455806732178,-0.64,-4.9,-1.0,5.04
22.29588794708252,-0.38,-4.85,-1.15,4.99
22.29718589782715,-0.16,-4.66,-1.13,4.79
22.307313919067383,-0.05,-4.3,-0.98,4.41
22.31740093231201,-0.04,-3.83,-0.79,3.91
22.327439785003662,0.0,-3.32,-0.58,3.37
22.34542679786682,0.14,-2.78,-0.38,2.8
22.34725284576416,0.28,-2.17,-0.16,2.19
22.357412815093994,0.3,-1.55,0.04,1.57
22.367445945739746,0.21,-1.0,0.2,1.04
22.377413749694824,0.41,-0.59,0.23,0.75
22.395771026611328,0.37,-0.21,0.22,0.47
22.397216796875,0.27,0.27,0.54,0.66
22.407361030578613,0.34,0.87,0.85,1.26
22.417366981506348,0.42,1.43,1.21,1.91
22.427364826202393,0.5,1.95,1.7,2.63
22.44494390487671,0.64,2.42,1.72,3.03
22.447343826293945,0.68,2.91,1.24,3.23
22.45752787590027,0.91,3.47,1.22,3.78
22.46757698059082,1.1,3.95,1.87,4.5
22.477404832839966,1.01,4.17,2.25,4.84
22.49537181854248,0.77,4.16,1.92,4.64
22.497248888015747,0.32,4.11,1.24,4.3
22.507460832595825,-0.27,4.27,0.86,4.36
22.517449855804443,-0.46,4.47,0.77,4.55
22.527432918548584,-0.57,4.33,-0.45,4.39
22.545475006103516,-1.11,3.41,-1.96,4.08
22.54740285873413,-1.44,2.07,-2.14,3.3
22.55760097503662,-1.37,0.54,-2.16,2.61
22.56754183769226,-1.25,-0.84,-2.36,2.79
22.577473878860474,-1.36,-1.52,-1.87,2.76
22.595027923583984,-1.47,-1.5,-1.33,2.48
22.59740972518921,-1.47,-0.84,-1.6,2.32
22.60744881629944,-1.21,0.3,-1.7,2.1
22.61741590499878,-0.72,1.66,-1.29,2.22
22.62747883796692,-0.28,2.84,-0.96,3.01
22.646296977996826,-0.05,3.4,-0.75,3.48
22.647709846496582,-0.25,3.57,-0.36,3.59
22.657495975494385,-0.17,3.31,0.05,3.31
22.66741180419922,0.21,2.61,-0.18,2.62
22.677475929260254,0.43,1.72,-0.6,1.87
22.696419715881348,0.46,0.79,-0.86,1.25
22.697722911834717,0.45,-0.16,-0.9,1.01
22.707557678222656,0.46,-1.19,-0.72,1.46
22.717415809631348,0.45,-2.17,-0.8,2.35
22.727486848831177,0.38,-2.97,-1.06,3.17
22.745666980743408,0.19,-3.65,-1.21,3.85
22.747785806655884,0.09,-4.02,-1.04,4.15
22.757617950439453,-0.02,-4.25,-0.85,4.33
22.767413854599,-0.15,-4.48,-0.81,4.55
22.777519702911377,-0.28,-4.43,-0.82,4.51
22.796640872955322,-0.35,-4.14,-0.93,4.25
22.79799795150757,-0.44,-3.77,-0.82,3.88
22.807479858398438,-0.46,-3.3,-0.54,3.37
22.817368030548096,-0.52,-2.95,-0.36,3.01
22.82751989364624,-0.6,-2.61,-0.2,2.68
22.846452713012695,-0.64,-2.23,-0.11,2.32
22.84728980064392,-0.78,-1.84,-0.21,2.0
22.857569694519043,-0.91,-1.49,-0.38,1.78
22.867644786834717,-1.04,-1.14,-0.53,1.63
22.877617835998535,-0.98,-0.83,-0.47,1.36
22.89625072479248,-0.88,-0.48,-0.2,1.02
22.898037910461426,-0.98,0.07,0.16,0.99
22.908078908920288,-1.03,0.84,0.63,1.47
22.91745090484619,-0.96,1.51,0.82,1.96
22.92749285697937,-0.88,2.21,0.91,2.54
22.9457368850708,-0.76,2.88,1.17,3.2
22.947471857070923,-0.71,3.26,1.39,3.61
22.957573890686035,-0.53,3.43,1.41,3.74
22.9674129486084,-0.22,3.37,1.27,3.6
22.97756290435791,0.11,3.02,1.14,3.22
22.99720573425293,0.4,2.6,0.99,2.81
22.997581005096436,0.63,2.32,0.71,2.5
23.007596015930176,0.94,2.42,0.48,2.64
23.017393827438354,1.45,2.95,0.98,3.43
23.027556896209717,1.4,3.42,1.24,3.89
23.046299934387207,0.92,3.42,-0.18,3.54
23.04740881919861,0.6,3.22,-2.18,3.93
23.05757188796997,0.77,2.84,-2.84,4.08
23.06746482849121,0.67,2.1,-2.38,3.24
23.07754898071289,0.5,1.04,-2.04,2.34
23.095659732818604,0.49,-0.2,-2.27,2.33
23.09749484062195,0.54,-1.36,-2.58,2.96
23.10757875442505,0.77,-2.2,-2.67,3.54
23.1174898147583,1.21,-2.51,-2.61,3.81
23.12755584716797,1.43,-2.39,-2.52,3.75
23.14647388458252,1.28,-1.82,-2.57,3.39
23.14748191833496,1.26,-1.12,-2.72,3.2
23.1576509475708,1.17,-0.18,-2.59,2.84
23.167459964752197,0.8,0.79,-2.0,2.29
23.177567958831787,0.73,1.43,-1.54,2.22
23.197086811065674,0.47,1.89,-1.27,2.32
23.197454929351807,0.34,2.2,-0.79,2.36
23.20762300491333,-0.02,2.28,-0.34,2.3
23.217549800872803,-0.11,1.95,-0.15,1.95
23.227635860443115,-0.13,1.29,-0.45,1.37
23.24690890312195,-0.32,0.52,-0.84,1.03
23.247451782226562,-0.46,-0.18,-1.24,1.33
23.257624864578247,-0.49,-0.68,-1.32,1.56
23.267406940460205,-0.52,-1.16,-1.28,1.8
23.27762269973755,-0.61,-1.5,-1.22,2.02
23.296077728271484,-0.69,-1.72,-1.15,2.18
23.297454833984375,-0.81,-1.68,-1.16,2.19
23.307581901550293,-0.9,-1.54,-1.05,2.06
23.317561864852905,-0.84,-1.32,-1.06,1.88
23.32765769958496,-0.73,-1.07,-1.08,1.68
23.346430778503418,-0.72,-0.77,-1.02,1.46
23.347538948059082,-0.65,-0.39,-0.99,1.24
23.357783794403076,-0.6,-0.15,-0.91,1.1
23.36756682395935,-0.45,0.01,-0.72,0.84
23.377657890319824,-0.23,0.02,-0.67,0.7
23.39756202697754,-0.09,0.01,-0.69,0.69
23.397937774658203,-0.06,-0.04,-0.74,0.74
23.40771985054016,0.01,-0.04,-0.55,0.55
23.41758394241333,0.02,-0.12,-0.55,0.56
23.42772102355957,0.03,-0.32,-0.84,0.89
23.44783067703247,0.05,-0.31,-1.04,1.08
23.448198795318604,0.17,-0.4,-1.01,1.09
23.457799911499023,0.3,-0.46,-0.91,1.06
23.467509746551514,0.44,-0.55,-0.74,1.02
23.477638721466064,0.58,-0.52,-0.61,0.98
23.496973991394043,0.73,-0.31,-0.34,0.86
23.497503757476807,0.93,-0.01,0.11,0.93
23.50770902633667,0.94,0.25,0.37,1.04
23.517533779144287,0.76,0.45,0.41,0.97
23.527710914611816,0.69,0.61,0.37,0.99
23.54631280899048,0.82,0.63,0.15,1.04
23.547595024108887,0.72,0.56,0.14,0.92
23.557792901992798,0.74,0.43,0.11,0.86
23.567575931549072,0.78,0.34,0.06,0.85
23.577711820602417,0.76,0.31,0.0,0.82
23.59598398208618,0.77,0.32,-0.05,0.83
23.597543716430664,0.74,0.42,0.04,0.85
23.6076979637146,0.61,0.49,0.23,0.81
23.617630004882812,0.41,0.51,0.37,0.75
23.62777590751648,0.15,0.5,0.17,0.54
23.646721839904785,0.01,0.43,-0.15,0.45
23.647464752197266,-0.08,0.48,-0.27,0.55
23.657702922821045,-0.22,0.6,-0.21,0.67
23.667688846588135,-0.44,0.77,-0.22,0.91
23.677732944488525,-0.58,1.07,-0.26,1.24
23.696796894073486,-0.2,1.43,-0.16,1.45
23.697577953338623,0.1,1.51,-0.13,1.51
23.707706928253174,0.22,1.26,-0.53,1.38
23.717702865600586,0.21,0.81,-1.01,1.31
23.727725982666016,0.22,0.26,-1.05,1.1
23.747427940368652,0.23,-0.29,-1.0,1.06
23.747793912887573,0.15,-0.76,-1.14,1.37
23.757757902145386,0.01,-0.99,-1.25,1.59
23.767679691314697,-0.04,-1.03,-1.2,1.58
23.777863025665283,-0.08,-1.08,-1.06,1.51
23.79671883583069,-0.2,-1.09,-1.02,1.5
23.797675848007202,-0.31,-1.12,-1.2,1.67
23.807708740234375,-0.4,-1.15,-1.52,1.94
23.817874908447266,-0.48,-1.14,-1.74,2.13
23.82773184776306,-0.45,-1.03,-1.85,2.16
23.846879959106445,-0.4,-0.81,-1.82,2.03
23.847580909729004,-0.47,-0.34,-1.57,1.67
23.85784888267517,-0.56,0.22,-1.15,1.29
23.86769390106201,-0.55,0.8,-0.88,1.31
23.877830028533936,-0.4,1.3,-0.69,1.52
23.897027015686035,-0.42,1.71,-0.45,1.81
23.897578716278076,-0.28,2.02,-0.4,2.07
23.907814979553223,-0.16,2.09,-0.5,2.15
23.917662858963013,-0.04,2.11,-0.64,2.2
23.92790985107422,0.11,2.01,-0.64,2.11
23.947879791259766,0.11,1.66,-0.61,1.77
23.9482479095459,0.16,1.3,-0.54,1.41
23.957913875579834,0.24,0.94,-0.51,1.09
23.967724800109863,0.22,0.49,-0.54,0.76
23.97774386405945,0.2,0.01,-0.64,0.67
23.99708580970764,0.1,-0.39,-0.74,0.84
23.997591972351074,0.01,-0.62,-0.82,1.02
24.007827758789062,0.02,-0.88,-0.94,1.28
24.017712831497192,0.01,-1.01,-0.97,1.4
24.027845859527588,-0.05,-1.0,-0.81,1.28
24.04737687110901,-0.11,-1.02,-0.65,1.21
24.047741889953613,-0.22,-0.94,-0.52,1.09
24.05785369873047,-0.34,-0.83,-0.53,1.04
24.06775689125061,-0.43,-0.75,-0.7,1.11
24.077890872955322,-0.51,-0.65,-0.86,1.19
24.09743595123291,-0.56,-0.55,-1.01,1.27
24.097806930541992,-0.55,-0.48,-1.18,1.38
24.107918739318848,-0.5,-0.43,-1.28,1.43
24.11777687072754,-0.51,-0.35,-1.43,1.55
24.127906799316406,-0.42,-0.12,-1.56,1.62
24.147093772888184,-0.14,0.48,-1.22,1.31
24.147645950317383,-0.05,1.32,-0.09,1.32
24.15789794921875,-0.19,1.87,0.84,2.05
24.16767168045044,0.06,2.07,0.14,2.07
24.17788076400757,0.11,2.0,-0.96,2.22
24.197250843048096,-0.07,1.81,-1.09,2.11
24.197653770446777,-0.08,1.59,-0.52,1.67
24.207894802093506,0.19,1.19,-0.24,1.22
24.217816829681396,0.38,0.64,-0.57,0.93
24.227868795394897,0.31,0.06,-0.91,0.96
24.247963905334473,0.11,-0.39,-0.92,1.0
24.24832773208618,0.15,-0.65,-0.51,0.83
24.25791072845459,0.28,-0.8,-0.35,0.91
24.26780390739441,0.25,-0.85,-0.43,0.98
24.277909755706787,0.25,-0.69,-0.44,0.85
24.297501802444458,0.28,-0.48,-0.35,0.65
24.297876834869385,0.48,-0.35,-0.31,0.67
24.30779790878296,0.43,-0.32,-0.4,0.66
24.3178448677063,0.42,-0.32,-0.46,0.7
24.327937841415405,0.35,-0.36,-0.51,0.71
24.347270011901855,0.22,-0.41,-0.4,0.61
24.34771990776062,0.14,-0.3,-0.24,0.4
24.35788869857788,0.16,-0.14,-0.14,0.25
24.367695808410645,0.18,0.03,0.0,0.18
24.378005981445312,0.24,0.13,0.1,0.29
24.397597789764404,0.28,0.16,-0.03,0.32
24.39794087409973,0.29,0.16,-0.12,0.35
24.40794801712036,0.29,0.17,-0.16,0.37
24.417874813079834,0.15,0.11,-0.14,0.23
24.428066730499268,0.21,0.07,-0.22,0.31
24.447733879089355,0.38,0.05,-0.23,0.44
24.448099851608276,0.52,-0.03,-0.22,0.56
24.458014965057373,0.45,-0.02,-0.17,0.48
24.467859745025635,0.43,-0.03,-0.16,0.45
24.477991819381714,0.54,-0.05,-0.22,0.58
24.49807071685791,0.35,-0.11,0.66,0.75
24.498435020446777,0.24,-0.15,0.87,0.91
24.507946968078613,0.21,-0.22,0.53,0.61
24.51790189743042,0.19,-0.17,0.09,0.27
24.527928829193115,0.48,-0.14,-0.75,0.9
24.548962831497192,0.88,-0.13,-1.86,2.06
24.549336910247803,1.0,-0.3,-1.95,2.21
24.55793571472168,0.56,-0.28,-1.72,1.83
24.567869901657104,0.14,-0.31,-1.64,1.67
24.578020811080933,0.54,0.01,-0.53,0.75
24.599677801132202,0.83,0.26,-0.02,0.87
24.600677013397217,0.28,0.21,0.29,0.45
24.60802698135376,0.12,0.31,0.22,0.39
24.617894887924194,0.34,0.37,-0.12,0.51
24.628067016601562,0.42,0.32,-0.35,0.63
24.649154901504517,0.31,0.19,-0.35,0.5
24.649521827697754,0.12,0.01,-0.3,0.32
24.65801191329956,0.01,-0.16,-0.22,0.27
24.66779899597168,0.1,-0.19,-0.21,0.3
24.678040981292725,0.16,-0.17,-0.19,0.3
24.69933581352234,0.17,-0.14,-0.1,0.24
24.69970178604126,0.21,-0.16,-0.01,0.26
24.70801281929016,0.2,-0.18,-0.02,0.26
24.717904806137085,0.1,-0.12,-0.09,0.18
24.728026866912842,0.19,-0.22,-0.16,0.33
24.74937677383423,0.29,-0.26,-0.13,0.41
24.74974298477173,0.25,-0.24,-0.06,0.35
24.75804090499878,0.09,-0.23,-0.05,0.25
24.767875909805298,-0.04,-0.14,0.0,0.14
24.778085708618164,-0.09,-0.17,0.03,0.19
24.79994297027588,-0.06,-0.12,-0.06,0.14
24.800947904586792,-0.01,-0.01,-0.15,0.15
24.807976722717285,-0.02,0.08,-0.17,0.18
24.817891836166382,0.01,0.13,-0.12,0.17
24.82804775238037,0.03,0.13,0.01,0.13
24.849405765533447,0.03,0.04,0.19,0.19
24.84978199005127,0.06,-0.05,0.31,0.31
24.858073711395264,0.1,-0.15,0.34,0.38
24.867899894714355,0.19,-0.23,0.27,0.4
24.878140926361084,0.22,-0.21,0.17,0.34
24.899422883987427,0.25,-0.17,0.09,0.31
24.899719715118408,0.25,-0.17,0.04,0.3
24.90814185142517,0.21,-0.09,-0.04,0.23
24.917810916900635,0.23,-0.15,-0.13,0.3
24.92819881439209,0.24,-0.21,-0.15,0.35
24.949516773223877,0.22,-0.17,-0.14,0.31
24.94987988471985,0.25,-0.12,-0.07,0.28
24.95815896987915,0.2,-0.12,0.07,0.24
24.967886924743652,0.1,-0.14,0.19,0.25
24.978172779083252,0.05,-0.06,0.23,0.24
24.999106884002686,-0.03,0.13,0.17,0.21
24.999457836151123,-0.02,0.29,0.1,0.3
25.008038997650146,-0.05,0.5,0.05,0.5
25.01796579360962,-0.1,0.65,0.08,0.66
25.028137683868408,-0.21,0.74,0.15,0.78
25.049624919891357,-0.23,0.78,0.21,0.83
25.049973964691162,-0.25,0.78,0.28,0.86
25.05823588371277,-0.26,0.64,0.39,0.79
25.06802272796631,-0.22,0.42,0.47,0.66
25.078101873397827,-0.19,0.2,0.53,0.59
25.09990882873535,-0.18,-0.01,0.5,0.53
25.100290775299072,-0.12,-0.18,0.42,0.47
25.10808277130127,-0.15,-0.34,0.29,0.47
25.117931842803955,-0.19,-0.48,0.12,0.53
25.128149032592773,-0.2,-0.44,-0.04,0.48
25.149637699127197,-0.25,-0.5,-0.11,0.56
25.14997100830078,-0.25,-0.41,-0.1,0.49
25.158121824264526,-0.1,-0.24,-0.01,0.26
25.16810178756714,0.11,-0.1,0.19,0.24
25.178224802017212,0.35,-0.05,0.37,0.51
25.200020790100098,0.54,-0.08,0.46,0.71
25.200385808944702,0.71,-0.07,0.55,0.9
25.208265781402588,0.86,-0.05,0.62,1.06
25.21832275390625,1.0,-0.08,0.67,1.2
25.228089809417725,1.1,-0.1,0.69,1.3
25.249924898147583,1.15,-0.12,0.64,1.32
25.250295877456665,1.19,-0.06,0.56,1.31
25.258193969726562,1.13,0.04,0.46,1.22
25.26834201812744,1.04,0.1,0.37,1.1
25.278226852416992,0.9,0.19,0.3,0.96
25.299229860305786,0.68,0.3,0.22,0.77
25.299588680267334,0.55,0.21,0.15,0.6
25.308112859725952,0.49,0.17,0.1,0.52
25.318285942077637,0.49,0.13,0.09,0.51
25.328157901763916,0.55,0.06,0.06,0.55
25.34841775894165,0.55,-0.02,0.05,0.55
25.348790884017944,0.41,-0.05,0.06,0.41
25.35808801651001,0.24,-0.01,0.06,0.24
25.368340015411377,0.06,0.0,0.11,0.12
25.378248691558838,-0.1,-0.01,0.18,0.2
25.3986177444458,-0.36,-0.13,0.21,0.43
25.398990869522095,-0.57,-0.08,0.24,0.62
25.408169746398926,-0.84,0.03,0.34,0.9
25.418558835983276,-1.13,-0.14,0.41,1.21
25.428319931030273,-1.24,-0.13,0.45,1.32
25.448269844055176,-1.23,-0.18,0.46,1.32
25.448630809783936,-0.97,-0.25,0.49,1.11
25.4581937789917,-0.56,-0.46,0.52,0.89
25.468495845794678,-0.05,-0.51,0.51,0.72
25.47836685180664,0.32,-0.39,0.43,0.66
25.49923276901245,0.58,-0.33,0.33,0.74
25.49956703186035,0.69,-0.33,0.28,0.81
25.508269786834717,0.54,-0.29,0.34,0.7
25.518715858459473,0.29,-0.3,0.43,0.59
25.528320789337158,0.16,-0.34,0.52,0.64
25.54921579360962,0.07,-0.49,0.51,0.71
25.549547910690308,-0.06,-0.51,0.51,0.72
25.558344841003418,-0.21,-0.42,0.53,0.7
25.568647861480713,-0.22,-0.27,0.55,0.65
25.578345775604248,-0.2,-0.13,0.55,0.59
25.59911584854126,-0.07,-0.1,0.5,0.51
25.599480867385864,0.41,-0.09,-0.88,0.97
25.608312845230103,0.67,-0.22,-1.94,2.06
25.618144989013672,0.47,-0.29,-1.63,1.72
25.632211685180664,0.12,-0.39,-1.69,1.73
25.63818383216858,-0.41,-0.41,-1.04,1.19
25.64814782142639,-0.87,-0.36,-0.01,0.94
25.658299922943115,-1.03,-0.21,0.94,1.41
25.668226718902588,-0.77,0.03,1.64,1.81
25.683555841445923,-0.36,0.23,2.15,2.19
25.688201904296875,-0.13,0.28,2.24,2.26
25.698237895965576,-1.3,0.36,0.68,1.51
25.708287715911865,-4.89,0.35,-3.44,5.98
25.71829390525818,-3.61,-0.19,-2.31,4.29
25.733978748321533,-1.75,-0.58,-0.1,1.84
25.73818588256836,0.15,-0.09,1.22,1.23
25.748219966888428,2.7,0.79,2.05,3.48
25.758360862731934,4.82,1.12,1.36,5.13
25.768249988555908,4.47,0.85,-0.04,4.55
25.784037828445435,2.56,0.45,-1.23,2.87
25.78821587562561,0.52,-0.07,-1.0,1.12
25.79816198348999,-0.42,-0.27,-0.2,0.53
25.80823802947998,-0.25,-0.47,0.06,0.53
25.818298816680908,-0.04,-0.55,0.23,0.59
25.83323574066162,-0.49,-0.18,0.65,0.83
25.83814787864685,-1.11,0.36,1.34,1.77
25.848198890686035,-1.8,0.95,1.48,2.51
25.858301877975464,-1.72,0.84,0.66,2.02
25.86827278137207,-1.21,0.61,-0.31,1.39
25.883619785308838,-0.15,0.5,-0.62,0.81
25.888173818588257,0.39,0.21,-0.95,1.04
25.898218870162964,-1.48,-0.55,-1.39,2.1
25.908439874649048,-1.94,-0.66,-0.04,2.04
25.918303966522217,0.61,-0.5,0.03,0.78
25.93493390083313,3.33,0.15,1.23,3.55
25.938302993774414,3.75,-0.35,-0.55,3.8
25.94843888282776,1.38,0.02,-1.32,1.9
25.95837688446045,0.88,-0.09,-0.45,0.99
25.968318939208984,0.38,-0.23,0.5,0.66
25.981433868408203,-0.26,0.32,0.91,0.99
25.98836588859558,-1.08,1.06,2.29,2.74
25.998462677001953,-0.96,0.5,2.25,2.49
26.008298873901367,-1.88,0.18,0.25,1.9
26.01817488670349,-1.25,0.6,0.55,1.49
26.02922296524048,0.82,0.67,0.73,1.28
26.038190841674805,1.71,1.16,0.18,2.07
26.048390865325928,0.68,2.13,0.74,2.35
26.058541774749756,0.12,2.27,0.56,2.34
26.06834602355957,-0.27,1.88,-0.01,1.89
26.081511974334717,-0.6,1.39,0.45,1.57
26.088376998901367,0.02,1.0,0.87,1.32
26.09826374053955,1.93,1.15,1.24,2.56
26.10859990119934,2.03,1.44,0.91,2.65
26.118331909179688,1.04,1.53,1.25,2.23
26.13719367980957,0.2,1.32,0.96,1.64
26.138279914855957,-0.72,0.56,-0.18,0.92
26.14833688735962,-0.44,0.06,-0.4,0.59
26.158430814743042,0.29,-0.01,0.13,0.31
26.168426990509033,0.54,0.42,0.85,1.09
26.187050819396973,0.69,1.28,0.99,1.75
26.188429832458496,0.43,3.3,0.38,3.34
26.198343753814697,1.1,5.01,0.23,5.13
26.20823574066162,0.01,5.34,0.65,5.37
26.218263864517212,-0.18,4.41,0.86,4.49
26.235325813293457,0.61,3.67,0.78,3.8
26.23817491531372,0.61,1.75,0.17,1.86
26.24840784072876,1.48,0.28,0.11,1.51
26.258509874343872,1.71,-0.03,-0.07,1.71
26.268435955047607,1.49,0.33,-1.22,1.95
26.286503791809082,1.56,0.36,-0.78,1.78
26.28823685646057,1.35,0.14,-0.42,1.42
26.29816484451294,1.03,-0.61,-0.13,1.2
26.30835485458374,1.31,-1.51,0.12,2.0
26.318367958068848,0.95,-1.65,-0.1,1.9
26.33632802963257,0.52,-1.63,-0.42,1.76
26.338260889053345,0.64,-1.42,-0.48,1.62
26.3483829498291,0.22,-1.3,-0.6,1.44
26.3585147857666,-0.26,-1.85,-0.31,1.89
26.36845088005066,0.02,-2.07,0.39,2.1
26.385178804397583,-0.4,-1.12,0.09,1.19
26.388283729553223,-1.72,0.0,-0.36,1.75
26.39834189414978,-2.43,-0.12,-1.05,2.64
26.40848970413208,-2.68,-0.94,-1.4,3.16
26.41844367980957,-2.8,-2.33,-1.53,3.95
26.434005737304688,-2.58,-4.04,-2.21,5.27
26.43829870223999,-1.43,-5.01,-1.97,5.57
26.448400020599365,0.26,-4.35,-0.89,4.44
26.458563804626465,0.22,-2.02,-0.69,2.14
26.468475818634033,-1.21,0.41,-1.3,1.82
26.484262943267822,-2.15,1.24,-2.24,3.34
26.4882869720459,-2.42,0.57,-2.27,3.36
26.498421907424927,-2.02,-0.89,-2.35,3.22
26.508492946624756,-1.64,-2.74,-2.23,3.89
26.518494844436646,-1.27,-4.33,-2.4,5.11
26.5342698097229,-0.66,-4.54,-2.21,5.09
26.538343906402588,-1.75,-1.44,-0.58,2.33
26.548404693603516,-1.1,-1.36,0.1,1.75
26.558506965637207,1.62,-0.08,-0.78,1.79
26.56844687461853,2.98,2.61,0.23,3.96
26.584587812423706,1.53,3.08,0.24,3.44
26.58843684196472,-1.25,3.17,0.88,3.51
26.598429679870605,-0.41,1.95,0.79,2.14
26.608535766601562,0.02,0.32,-0.17,0.36
26.618474006652832,-0.08,-0.79,1.33,1.54
26.63425588607788,0.29,-1.0,1.57,1.88
26.63836669921875,0.55,-0.37,1.45,1.59
26.6484158039093,0.62,0.75,1.29,1.61
26.65855884552002,0.7,1.78,1.41,2.37
26.66850185394287,0.35,2.12,1.74,2.76
26.684266805648804,-0.51,2.42,0.92,2.63
26.688352823257446,-1.15,2.37,-0.18,2.64
26.698405742645264,-1.31,1.83,-0.53,2.31
26.70847797393799,-0.46,1.25,0.07,1.33
26.718427896499634,0.82,0.56,0.4,1.07
26.734117031097412,1.16,0.15,0.49,1.26
26.738298892974854,1.04,0.1,0.7,1.25
26.748459815979004,0.62,0.24,0.86,1.08
26.758747816085815,0.24,0.36,0.77,0.88
26.768374919891357,-0.01,0.39,0.65,0.75
26.78310775756836,-0.2,0.36,0.46,0.61
26.78843593597412,-0.64,0.3,0.19,0.73
26.798625946044922,-1.14,0.25,-0.1,1.17
26.808419704437256,-1.29,0.12,-0.45,1.37
26.818267822265625,-1.2,-0.06,-0.81,1.44
26.83213186264038,-0.96,-0.2,-1.1,1.47
26.838445901870728,-0.73,-0.25,-1.14,1.37
26.84859585762024,-0.5,-0.23,-0.98,1.12
26.858750820159912,-0.43,-0.21,-0.82,0.94
26.86849284172058,-0.36,-0.19,-0.67,0.78
26.88449192047119,-0.27,-0.19,-0.68,0.75
26.888357877731323,-0.56,-0.25,-0.74,0.96
26.898589849472046,-0.75,-0.17,-0.85,1.14
26.908705711364746,-0.87,-0.12,-0.84,1.21
26.918566703796387,-0.94,-0.11,-0.96,1.34
26.934717893600464,-0.86,-0.16,-1.18,1.46
26.938403844833374,-0.62,-0.16,-1.47,1.6
26.948705911636353,-0.37,-0.09,-1.75,1.79
26.958590030670166,-0.28,-0.09,-1.82,1.84
26.96860384941101,-0.24,-0.22,-1.51,1.54
26.984688758850098,-0.21,-0.29,-0.95,1.01
26.98850393295288,-0.15,-0.31,-0.37,0.5
26.99856686592102,0.01,-0.29,-0.01,0.29
27.008646965026855,0.07,-0.23,0.16,0.28
27.018542766571045,0.14,-0.15,0.2,0.28
27.03513193130493,0.18,-0.03,0.15,0.23
27.03845977783203,0.2,0.04,0.06,0.21
27.04849886894226,0.22,0.02,-0.11,0.24
27.058640956878662,0.08,0.0,-0.39,0.39
27.068649768829346,-0.2,-0.14,-0.69,0.73
27.085559844970703,-0.35,-0.3,-0.75,0.88
27.08851194381714,-0.22,-0.26,-0.4,0.52
27.09856390953064,-0.52,0.11,-0.39,0.65
27.108648777008057,-0.68,0.66,-0.8,1.24
27.118631839752197,-0.63,0.53,-1.16,1.42
27.13590097427368,-0.23,0.33,-1.27,1.33
27.138550758361816,0.13,0.39,-1.13,1.2
27.14857769012451,0.45,0.35,-0.9,1.06
27.15869688987732,0.75,0.31,-0.64,1.03
27.16859483718872,0.79,0.43,-0.17,0.91
27.184597969055176,0.72,0.47,0.49,0.98
27.188636779785156,0.67,0.39,1.04,1.29
27.19858980178833,0.65,0.23,1.59,1.73
