time,ax,ay,az,atotal
0.010570049285888672,0.16,-0.44,0.36,0.59
0.011318206787109375,0.22,0.0,1.62,1.63
0.02126622200012207,0.02,0.19,1.14,1.15
0.03132200241088867,-0.01,0.18,0.12,0.21
0.043839216232299805,0.01,0.14,-0.5,0.51
0.0511472225189209,0.0,0.13,-0.47,0.48
0.06134915351867676,-0.02,0.11,-0.15,0.18
0.07106614112854004,-0.04,0.13,0.01,0.13
0.08163833618164062,-0.08,0.11,-0.06,0.14
0.0948641300201416,-0.09,0.08,0.05,0.13
0.10126209259033203,-0.03,0.06,0.13,0.14
0.11152410507202148,0.0,0.01,0.06,0.06
0.12131619453430176,0.02,-0.04,-0.02,0.04
0.13118910789489746,0.06,-0.04,-0.02,0.07
0.14575815200805664,0.06,-0.02,0.02,0.06
0.15124225616455078,-0.03,-0.06,0.03,0.07
0.1614241600036621,-0.03,-0.1,0.0,0.1
0.17133212089538574,-0.02,-0.09,-0.03,0.09
0.18141508102416992,-0.03,-0.1,-0.06,0.12
0.1958751678466797,-0.07,-0.1,-0.03,0.12
0.20124101638793945,-0.09,-0.06,0.03,0.11
0.21134519577026367,-0.11,-0.01,0.05,0.12
0.2213451862335205,-0.16,0.01,0.08,0.17
0.23123812675476074,-0.2,0.01,0.12,0.23
0.24649429321289062,-0.19,-0.01,0.11,0.21
0.2516791820526123,-0.12,-0.04,0.06,0.13
0.26136302947998047,-0.09,-0.07,0.0,0.11
0.2710890769958496,-0.09,-0.1,-0.01,0.13
0.2812941074371338,-0.12,-0.11,0.02,0.16
0.29729700088500977,-0.23,-0.15,0.03,0.27
0.30218505859375,-0.29,-0.16,0.12,0.35
0.31136226654052734,-0.28,-0.14,0.22,0.38
0.32104921340942383,-0.22,-0.12,0.26,0.36
0.33185315132141113,-0.13,-0.07,0.29,0.32
0.3486170768737793,-0.03,-0.02,0.33,0.33
0.3521251678466797,-0.02,0.0,0.39,0.39
0.3612821102142334,-0.08,-0.02,0.42,0.42
0.37108612060546875,-0.17,-0.05,0.38,0.41
0.38125133514404297,-0.25,-0.11,0.3,0.4
0.39850521087646484,-0.33,-0.19,0.3,0.48
0.4009091854095459,-0.36,-0.28,0.35,0.57
0.4113321304321289,-0.34,-0.36,0.47,0.68
0.4209451675415039,-0.26,-0.45,0.66,0.84
0.43122100830078125,-0.22,-0.55,0.84,1.02
0.44777512550354004,-0.19,-0.63,0.9,1.11
0.45063114166259766,-0.19,-0.68,0.79,1.05
0.46117520332336426,-0.16,-0.67,0.64,0.94
0.47080230712890625,-0.16,-0.68,0.61,0.92
0.4811861515045166,-0.37,-0.65,0.69,1.01
0.49836111068725586,-0.48,-0.48,0.71,0.98
0.500786304473877,-0.39,-0.32,0.69,0.85
0.5110712051391602,-0.35,-0.22,0.76,0.86
0.5208652019500732,-0.38,-0.18,0.88,0.97
0.5308361053466797,-0.32,-0.15,0.91,0.97
0.549382209777832,-0.27,-0.14,0.88,0.93
0.5505599975585938,-0.28,-0.13,0.91,0.96
0.5609681606292725,-0.33,-0.14,0.87,0.94
0.5708351135253906,-0.4,-0.2,0.87,0.97
0.581057071685791,-0.44,-0.29,0.79,0.94
0.598602294921875,-0.51,-0.45,0.51,0.85
0.600499153137207,-0.6,-0.62,0.52,1.0
0.6110391616821289,-0.51,-0.72,0.78,1.17
0.6207311153411865,-0.44,-0.79,0.76,1.18
0.6307902336120605,-0.41,-0.84,0.74,1.19
0.6479010581970215,-0.39,-0.94,0.7,1.23
0.6504111289978027,-0.4,-0.98,0.74,1.29
0.6608343124389648,-0.39,-1.05,0.79,1.37
0.6706442832946777,-0.4,-1.1,0.72,1.37
0.6809053421020508,-0.32,-1.03,0.57,1.21
0.6985352039337158,-0.27,-1.02,0.5,1.16
0.7003991603851318,-0.23,-1.05,0.46,1.16
0.7108042240142822,-0.11,-1.09,0.49,1.2
0.7205631732940674,0.04,-1.23,0.61,1.37
0.7306733131408691,0.18,-1.46,0.66,1.61
0.7471141815185547,0.27,-1.65,0.7,1.81
0.7504062652587891,0.42,-1.69,0.81,1.92
0.7606871128082275,0.57,-1.5,1.0,1.89
0.7705731391906738,0.67,-1.1,1.29,1.82
0.7807192802429199,0.72,-0.5,1.51,1.74
0.7983741760253906,0.68,0.2,1.5,1.65
0.8002042770385742,0.73,0.87,1.3,1.72
0.8107190132141113,0.81,1.49,1.11,2.02
0.8204061985015869,0.83,1.96,1.2,2.44
0.8305411338806152,0.81,2.28,1.45,2.82
0.8478550910949707,0.74,2.43,1.69,3.05
0.8502602577209473,0.68,2.38,1.91,3.12
0.8606131076812744,0.57,2.16,2.0,2.99
0.8702671527862549,0.4,1.79,1.89,2.63
0.8806800842285156,0.28,1.44,1.97,2.45
0.8983302116394043,0.3,1.0,1.77,2.05
0.9001970291137695,0.25,0.42,1.41,1.49
0.910499095916748,0.25,-0.11,1.09,1.12
0.9202661514282227,0.26,-0.6,1.31,1.46
0.9304611682891846,0.22,-1.4,1.26,1.89
0.9480161666870117,0.04,-1.94,1.14,2.25
0.9501621723175049,-0.02,-2.34,1.12,2.59
0.9603919982910156,-0.1,-2.62,1.08,2.83
0.9702982902526855,-0.22,-2.75,1.0,2.93
0.9804902076721191,-0.3,-2.71,0.97,2.89
0.9987483024597168,-0.35,-2.49,0.98,2.69
0.9999842643737793,-0.44,-2.23,1.08,2.51
1.0104281902313232,-0.47,-1.97,1.22,2.36
1.0205421447753906,-0.44,-1.65,1.34,2.17
1.0304770469665527,-0.39,-1.37,1.43,2.01
1.0477831363677979,-0.3,-1.06,1.54,1.89
1.0499062538146973,-0.16,-0.73,1.63,1.79
1.06022310256958,0.04,-0.4,1.77,1.81
1.0702590942382812,0.22,-0.06,1.95,1.96
1.0800132751464844,0.42,0.31,2.1,2.16
1.0968689918518066,0.64,0.62,2.12,2.29
1.1000862121582031,0.87,0.84,1.98,2.32
1.1100029945373535,0.9,1.11,2.1,2.54
1.1201300621032715,0.72,1.11,2.17,2.54
1.131012201309204,0.46,1.17,2.23,2.55
1.1517882347106934,0.29,1.32,2.39,2.74
1.1526381969451904,0.11,1.48,2.59,2.98
1.1600871086120605,-0.03,1.63,2.8,3.24
1.170903205871582,-0.02,1.8,2.84,3.36
1.1801080703735352,-0.01,1.98,2.69,3.34
1.1996750831604004,0.02,2.26,2.57,3.42
1.2003250122070312,0.11,2.68,2.69,3.79
1.2101202011108398,0.08,3.05,2.7,4.07
1.2199492454528809,-0.01,3.39,2.4,4.15
1.2335011959075928,-0.03,3.8,2.09,4.33
1.239823341369629,-0.06,4.21,1.83,4.59
1.249770164489746,0.03,4.54,1.46,4.76
1.2597932815551758,0.05,4.68,1.01,4.78
1.269639015197754,0.0,4.67,0.62,4.71
1.2815802097320557,-0.06,4.45,0.22,4.45
1.2897441387176514,-0.09,4.04,-0.22,4.04
1.2999341487884521,-0.09,3.53,-0.73,3.6
1.3100271224975586,-0.06,2.83,-1.16,3.05
1.319925308227539,-0.15,1.89,-1.65,2.51
1.3348259925842285,-0.5,0.98,-2.0,2.28
1.339691162109375,-0.8,0.1,-2.32,2.45
1.3498740196228027,-0.91,-0.79,-2.39,2.67
1.3598811626434326,-0.86,-1.55,-2.08,2.73
1.369791030883789,-0.66,-2.11,-1.86,2.88
1.384606122970581,-0.52,-2.47,-1.72,3.05
1.3895301818847656,-0.4,-2.57,-1.44,2.97
1.399848222732544,-0.51,-2.52,-1.26,2.86
1.4100191593170166,-0.69,-2.33,-1.07,2.65
1.4198071956634521,-0.79,-1.96,-0.72,2.23
1.4342122077941895,-0.81,-1.49,-0.3,1.72
1.4395952224731445,-0.78,-1.04,0.0,1.3
1.4497742652893066,-0.57,-0.71,0.1,0.91
1.4598612785339355,-0.29,-0.52,0.08,0.6
1.4697561264038086,-0.09,-0.48,0.04,0.49
1.4843339920043945,0.05,-0.63,0.09,0.63
1.4896283149719238,0.13,-0.93,0.17,0.95
1.5001740455627441,0.13,-1.3,0.18,1.31
1.509892225265503,0.19,-1.73,0.09,1.74
1.519672155380249,0.21,-2.18,0.01,2.19
1.5342440605163574,0.2,-2.63,-0.05,2.63
1.53944730758667,0.2,-3.0,-0.05,3.0
1.5497050285339355,0.21,-3.32,0.06,3.32
1.5596821308135986,0.23,-3.59,0.19,3.6
1.5696072578430176,0.26,-3.76,0.26,3.77
1.5841631889343262,0.3,-3.87,0.31,3.89
1.5894181728363037,0.39,-3.87,0.31,3.9
1.5998501777648926,0.46,-3.79,0.32,3.83
1.6098511219024658,0.41,-3.66,0.42,3.7
1.6200051307678223,0.28,-3.43,0.59,3.49
1.6333560943603516,0.16,-3.13,0.79,3.23
1.639524221420288,0.08,-2.75,0.97,2.91
1.65028715133667,-0.04,-2.38,1.25,2.68
1.6598141193389893,-0.06,-1.95,1.36,2.37
1.6695201396942139,-0.15,-1.48,1.3,1.97
1.682812213897705,-0.14,-0.89,1.37,1.63
1.6895723342895508,-0.2,-0.29,1.59,1.62
1.6997921466827393,-0.41,0.32,1.89,1.96
1.7096621990203857,-0.62,0.97,2.2,2.48
1.7193961143493652,-0.77,1.65,2.45,3.05
1.7321200370788574,-0.88,2.3,2.48,3.49
1.7397661209106445,-1.05,2.79,2.32,3.77
1.7495160102844238,-1.28,3.15,2.19,4.04
1.7593960762023926,-1.42,3.4,2.11,4.24
1.7693901062011719,-1.35,3.49,2.12,4.3
1.7839312553405762,-1.28,3.49,2.25,4.34
1.789189338684082,-1.22,3.68,2.23,4.47
1.799316167831421,-1.1,4.08,2.21,4.76
1.809347152709961,-0.84,4.68,2.02,5.16
1.8192253112792969,-0.35,5.28,1.51,5.5
1.8341271877288818,0.09,5.71,0.77,5.76
1.8389761447906494,0.52,5.74,-0.07,5.76
1.8491382598876953,0.93,5.26,-0.97,5.42
1.8591032028198242,1.14,4.21,-1.79,4.71
1.8696823120117188,0.81,3.01,-2.21,3.82
1.882695198059082,0.36,1.73,-2.16,2.79
1.8891611099243164,0.24,0.49,-1.89,1.96
1.8989920616149902,0.53,-0.58,-1.66,1.83
1.9090962409973145,0.98,-1.39,-1.49,2.26
1.9198532104492188,1.37,-1.78,-1.36,2.62
1.936941146850586,1.7,-1.77,-1.24,2.74
1.9392132759094238,1.84,-1.52,-1.02,2.59
1.9493160247802734,1.76,-1.15,-0.81,2.25
1.959160327911377,1.42,-0.79,-0.74,1.78
1.9696192741394043,0.98,-0.47,-0.74,1.31
1.9861712455749512,0.56,-0.22,-0.77,0.97
1.9894232749938965,0.2,-0.1,-0.9,0.92
1.99922513961792,-0.05,-0.16,-1.03,1.04
2.009108066558838,-0.25,-0.34,-1.03,1.11
2.0198230743408203,-0.48,-0.68,-0.87,1.2
2.035938262939453,-0.66,-1.17,-0.57,1.45
2.039426326751709,-0.73,-1.71,-0.38,1.89
2.049182176589966,-0.57,-2.28,-0.33,2.37
2.059101104736328,-0.33,-2.85,-0.36,2.89
2.069025993347168,-0.08,-3.39,-0.44,3.41
2.085202217102051,0.07,-3.83,-0.46,3.85
2.0895941257476807,0.09,-4.14,-0.46,4.16
2.099152088165283,-0.01,-4.36,-0.41,4.37
2.1089682579040527,-0.13,-4.49,-0.49,4.51
2.1196632385253906,-0.24,-4.52,-0.59,4.56
2.1361122131347656,-0.32,-4.44,-0.4,4.46
2.1387410163879395,-0.2,-4.24,-0.25,4.25
2.1490471363067627,-0.09,-4.0,-0.34,4.01
2.159011125564575,0.02,-3.7,-0.28,3.71
2.1689252853393555,0.06,-3.34,-0.2,3.34
2.185488224029541,0.09,-2.95,-0.01,2.95
2.1887481212615967,0.21,-2.42,0.41,2.46
2.199000120162964,0.31,-1.81,1.01,2.09
2.2088170051574707,0.32,-1.05,1.6,1.94
2.2188451290130615,0.42,-0.08,1.94,1.98
2.235624313354492,0.61,1.02,1.95,2.28
2.2386491298675537,0.81,2.17,1.78,2.92
2.2489421367645264,0.94,3.35,1.47,3.77
2.2589101791381836,0.75,4.33,1.29,4.57
2.269489288330078,0.4,5.04,1.52,5.27
2.2846193313598633,0.04,5.33,2.02,5.7
2.2884721755981445,-0.3,5.2,2.42,5.74
2.2988882064819336,-0.34,4.85,2.53,5.48
2.3087871074676514,-0.25,4.38,2.43,5.01
2.3188042640686035,-0.23,3.9,2.14,4.45
2.336003303527832,-0.29,3.72,1.75,4.12
2.338386058807373,-0.38,3.82,1.44,4.1
2.3487961292266846,-0.53,3.93,0.86,4.05
2.358729124069214,-0.87,3.88,-0.38,3.99
2.368746280670166,-1.28,3.7,-1.55,4.21
2.3873891830444336,-1.54,3.32,-1.96,4.15
2.388343334197998,-1.64,2.63,-2.1,3.74
2.39888334274292,-1.55,1.72,-2.45,3.37
2.4085841178894043,-1.33,0.72,-2.65,3.05
2.4193310737609863,-1.02,-0.07,-2.37,2.58
2.437112331390381,-0.92,-0.55,-2.04,2.3
2.4383063316345215,-0.96,-0.68,-1.71,2.07
2.4486823081970215,-1.07,-0.57,-1.57,1.98
2.4585442543029785,-1.2,-0.25,-1.54,1.96
2.46860408782959,-1.13,0.2,-1.51,1.89
2.486830234527588,-1.03,0.66,-1.4,1.85
2.4881961345672607,-0.8,1.09,-1.09,1.73
2.4986672401428223,-0.46,1.37,-0.62,1.57
2.508362293243408,-0.06,1.37,-0.2,1.38
2.5192501544952393,0.27,1.14,-0.05,1.17
2.5370991230010986,0.48,0.7,-0.03,0.84
2.538182258605957,0.53,0.08,-0.13,0.55
2.5486130714416504,0.51,-0.69,-0.29,0.9
2.5584211349487305,0.53,-1.5,-0.47,1.65
2.5684781074523926,0.55,-2.33,-0.63,2.47
2.587595224380493,0.58,-3.06,-0.77,3.2
2.5882391929626465,0.63,-3.7,-0.88,3.85
2.5986289978027344,0.65,-4.23,-0.95,4.38
2.6083593368530273,0.68,-4.66,-0.97,4.8
2.6185312271118164,0.73,-4.94,-0.95,5.08
2.637359142303467,0.77,-5.14,-0.9,5.27
2.6381120681762695,0.8,-5.26,-0.92,5.39
2.6482231616973877,0.82,-5.25,-0.9,5.38
2.658269166946411,0.84,-5.11,-0.77,5.23
2.668339252471924,0.84,-4.86,-0.42,4.94
2.6867880821228027,0.78,-4.53,0.06,4.59
2.6879520416259766,0.64,-4.15,0.45,4.22
2.6983871459960938,0.47,-3.65,0.73,3.75
2.708371162414551,0.28,-3.04,0.91,3.18
2.7184791564941406,0.1,-2.36,1.11,2.6
2.7375850677490234,-0.08,-1.67,1.31,2.12
2.738229274749756,-0.31,-0.99,1.4,1.74
2.7483391761779785,-0.65,-0.25,1.43,1.59
2.758390188217163,-1.15,0.58,1.66,2.1
2.7684431076049805,-1.63,1.53,2.1,3.06
2.787710189819336,-2.16,2.47,2.44,4.08
2.788344144821167,-2.51,3.19,2.46,4.74
2.7984023094177246,-2.34,3.55,2.19,4.78
2.808500289916992,-1.82,3.51,1.95,4.4
2.818197250366211,-1.4,3.18,1.78,3.9
2.838184118270874,-1.08,2.8,1.86,3.53
2.8388280868530273,-0.76,2.59,1.85,3.27
2.848210334777832,-0.81,2.63,1.63,3.19
2.8586881160736084,-0.97,3.08,1.75,3.67
2.868197202682495,-0.67,3.97,1.88,4.44
2.889651298522949,-0.09,4.83,1.64,5.1
2.890285015106201,0.55,5.26,0.7,5.33
2.8979530334472656,1.18,5.15,-0.75,5.33
2.908626079559326,1.41,4.85,-2.02,5.43
2.9182181358337402,1.25,4.1,-3.18,5.33
2.937934160232544,1.05,3.17,-3.94,5.16
2.9385831356048584,0.94,2.24,-3.89,4.58
2.9480631351470947,0.92,1.46,-3.24,3.67
2.9589381217956543,1.03,0.88,-2.28,2.65
2.9680662155151367,1.26,0.44,-1.36,1.9
2.9894633293151855,1.54,0.15,-0.7,1.69
2.990097999572754,1.72,-0.04,-0.36,1.75
2.997934341430664,1.81,-0.11,-0.41,1.85
3.007918119430542,1.7,-0.05,-0.72,1.84
3.018001079559326,1.32,0.1,-0.9,1.6
3.0387063026428223,0.76,0.25,-0.9,1.2
3.039367198944092,0.28,0.19,-0.81,0.87
3.047720193862915,-0.06,-0.04,-0.84,0.84
3.0578551292419434,-0.28,-0.38,-0.97,1.07
3.0679802894592285,-0.39,-0.79,-1.02,1.34
3.088289260864258,-0.5,-1.3,-1.06,1.75
3.088926315307617,-0.59,-1.88,-0.94,2.18
3.097637176513672,-0.56,-2.53,-0.66,2.67
3.1078290939331055,-0.48,-3.2,-0.42,3.26
3.117922306060791,-0.35,-3.79,-0.37,3.82
3.1378250122070312,-0.22,-4.28,-0.44,4.3
3.138467311859131,-0.12,-4.58,-0.61,4.62
3.1476151943206787,-0.11,-4.74,-0.5,4.76
3.157773017883301,-0.17,-4.76,-0.44,4.78
3.1678221225738525,-0.25,-4.63,-0.54,4.66
3.1883552074432373,-0.18,-4.36,-0.67,4.41
3.18900203704834,-0.14,-4.04,-0.58,4.08
3.1976332664489746,-0.12,-3.65,-0.29,3.66
3.207736015319824,-0.14,-3.26,-0.02,3.26
3.217790126800537,-0.11,-2.9,0.2,2.9
3.238619327545166,0.0,-2.53,0.34,2.55
3.239246129989624,0.14,-2.09,0.46,2.14
3.2475621700286865,0.3,-1.49,0.72,1.68
3.2576003074645996,0.46,-0.74,1.05,1.36
3.267695188522339,0.63,0.08,1.23,1.38
3.2888641357421875,0.74,0.91,1.25,1.71
3.28948712348938,0.73,1.65,1.22,2.17
3.297502040863037,0.6,2.22,1.24,2.61
3.3075602054595947,0.45,2.66,1.36,3.02
3.3176021575927734,0.35,3.07,1.56,3.46
3.3389852046966553,0.24,3.37,1.85,3.85
3.339609146118164,0.09,3.52,2.06,4.07
3.3472890853881836,-0.01,3.47,2.1,4.05
3.357492208480835,-0.09,3.32,1.87,3.81
3.3675880432128906,-0.23,3.42,1.45,3.72
3.3893179893493652,-0.41,3.79,1.24,4.0
3.3899402618408203,-0.74,4.2,1.36,4.47
3.397409200668335,-0.85,4.56,1.06,4.75
3.407433032989502,-1.06,5.07,0.1,5.18
3.417513132095337,-1.26,4.97,-1.03,5.22
3.4402999877929688,-1.08,4.25,-1.59,4.66
3.4409213066101074,-1.21,3.19,-1.89,3.9
3.447237014770508,-1.43,2.14,-2.2,3.38
3.4574460983276367,-1.41,1.17,-2.03,2.73
3.4675192832946777,-1.3,0.38,-1.71,2.18
3.4896671772003174,-1.3,-0.06,-1.54,2.01
3.4902782440185547,-1.41,-0.13,-1.44,2.01
3.4972732067108154,-1.62,0.05,-1.36,2.11
3.5073180198669434,-1.79,0.27,-1.23,2.18
3.517364025115967,-1.76,0.42,-1.14,2.13
3.53965425491333,-1.49,0.52,-1.11,1.92
3.5402822494506836,-1.05,0.55,-1.19,1.67
3.5471482276916504,-0.47,0.42,-0.94,1.13
3.557281017303467,0.12,0.18,-0.61,0.64
3.567293167114258,0.53,-0.2,-0.66,0.86
3.5900001525878906,0.67,-0.72,-0.68,1.19
3.5906310081481934,0.69,-1.32,-0.67,1.63
3.5969972610473633,0.72,-2.0,-0.72,2.24
3.60729718208313,0.83,-2.67,-0.81,2.91
3.6171913146972656,0.97,-3.27,-0.96,3.54
3.6409783363342285,0.89,-3.8,-1.07,4.04
3.6416163444519043,0.74,-4.16,-1.06,4.35
3.6470131874084473,0.67,-4.35,-0.89,4.49
3.6569862365722656,0.61,-4.42,-0.64,4.5
3.667302131652832,0.56,-4.34,-0.39,4.39
3.6898112297058105,0.53,-4.13,-0.24,4.17
3.690446138381958,0.47,-3.85,-0.18,3.88
3.6970481872558594,0.39,-3.52,-0.1,3.54
3.7070040702819824,0.37,-3.15,0.01,3.17
3.717217206954956,0.35,-2.79,0.05,2.81
3.7394301891326904,0.28,-2.39,0.03,2.4
3.740049123764038,0.19,-1.96,0.04,1.96
3.7467823028564453,0.06,-1.53,0.22,1.54
3.7568111419677734,-0.18,-1.12,0.57,1.26
3.7669951915740967,-0.42,-0.74,0.9,1.23
3.7896780967712402,-0.63,-0.35,1.06,1.28
3.790309190750122,-0.8,0.11,1.11,1.37
3.7968902587890625,-0.85,0.6,1.18,1.57
3.806828022003174,-0.91,1.04,1.21,1.83
3.817061185836792,-0.99,1.42,1.12,2.06
3.827036142349243,-1.0,1.76,1.04,2.27
3.840390205383301,-1.01,2.06,1.06,2.52
3.8467841148376465,-1.07,2.32,1.03,2.75
3.8566880226135254,-1.14,2.53,1.07,2.97
3.866929054260254,-1.14,2.7,1.04,3.1
3.877021312713623,-1.27,2.86,1.05,3.3
3.890076160430908,-1.34,3.2,1.05,3.62
3.896773338317871,-1.19,3.75,1.18,4.1
3.906726121902466,-0.82,4.36,1.17,4.58
3.916896343231201,-0.34,4.83,0.66,4.88
3.926959991455078,0.17,4.97,-0.29,4.98
3.940321207046509,0.54,4.81,-1.15,4.97
3.946690082550049,0.66,4.24,-1.51,4.54
3.9566521644592285,0.61,3.32,-1.58,3.72
3.9668402671813965,0.5,2.27,-1.62,2.83
3.9768381118774414,0.43,1.17,-1.66,2.07
3.9901952743530273,0.54,0.2,-1.66,1.75
3.996441125869751,0.72,-0.48,-1.46,1.69
4.003966331481934,1.02,-0.77,-1.1,1.68
4.014548301696777,1.32,-0.71,-0.77,1.68
4.024229049682617,1.53,-0.39,-0.63,1.69
4.039680004119873,1.6,0.04,-0.56,1.69
4.043966293334961,1.46,0.5,-0.55,1.63
4.053997993469238,1.09,0.92,-0.61,1.55
4.064127206802368,0.67,1.23,-0.54,1.5
4.074146270751953,0.37,1.26,-0.57,1.43
4.0901360511779785,0.17,0.94,-0.78,1.23
4.093900203704834,0.0,0.33,-0.92,0.97
4.104114055633545,-0.13,-0.35,-0.87,0.94
4.113973140716553,-0.16,-1.1,-0.64,1.28
4.124195098876953,-0.08,-1.91,-0.46,1.96
4.140537261962891,0.05,-2.76,-0.45,2.79
4.1438281536102295,0.19,-3.56,-0.52,3.6
4.153990268707275,0.31,-4.19,-0.55,4.23
4.163905143737793,0.35,-4.59,-0.54,4.63
4.173851013183594,0.34,-4.79,-0.48,4.82
4.191614151000977,0.3,-4.83,-0.47,4.86
4.193577289581299,0.23,-4.72,-0.5,4.75
4.204071998596191,0.12,-4.51,-0.48,4.53
4.213820219039917,-0.02,-4.18,-0.38,4.19
4.223889112472534,-0.04,-3.82,-0.19,3.82
4.241724014282227,0.04,-3.44,-0.04,3.44
4.243643283843994,0.26,-3.0,-0.02,3.01
4.25386118888855,0.47,-2.51,-0.19,2.56
4.263790130615234,0.46,-2.02,-0.14,2.07
4.273821115493774,0.61,-1.5,0.26,1.64
4.291820049285889,0.87,-0.88,0.5,1.33
4.293506145477295,0.99,-0.21,0.73,1.24
4.303651332855225,1.03,0.48,0.99,1.5
4.313645124435425,1.03,1.12,1.13,1.89
4.323882102966309,1.04,1.68,1.19,2.3
4.342060089111328,0.96,2.21,1.21,2.69
4.3434271812438965,0.76,2.7,1.27,3.07
4.353549003601074,0.54,3.09,1.32,3.4
4.36361026763916,0.36,3.4,1.42,3.7
4.373737335205078,0.15,3.53,1.6,3.87
4.391776084899902,-0.02,3.46,1.74,3.87
4.3933820724487305,-0.09,3.3,1.58,3.65
4.403748035430908,-0.18,3.24,1.15,3.44
4.415173053741455,-0.35,3.4,1.01,3.56
4.425014019012451,-0.52,3.64,1.13,3.84
4.442559242248535,-0.53,3.75,0.85,3.88
4.444766998291016,-0.94,4.19,0.01,4.29
4.454938173294067,-1.23,4.24,-1.0,4.52
4.465086221694946,-1.45,4.15,-1.43,4.62
4.475133180618286,-1.21,3.23,-1.72,3.85
4.492618083953857,-1.01,2.15,-2.25,3.27
4.494740009307861,-0.95,1.13,-2.68,3.05
4.504914283752441,-0.71,0.19,-2.65,2.75
4.514676094055176,-0.53,-0.47,-2.24,2.34
4.525057315826416,-0.44,-0.83,-1.6,1.85
4.542582988739014,-0.53,-0.83,-1.02,1.41
4.544649124145508,-0.88,-0.57,-0.71,1.26
4.554793119430542,-1.19,-0.2,-0.76,1.42
4.564946174621582,-1.25,0.29,-0.91,1.57
4.574972152709961,-1.02,0.85,-0.96,1.63
4.592900276184082,-0.74,1.19,-1.05,1.75
4.594468116760254,-0.36,1.22,-0.94,1.58
4.604762077331543,0.06,1.01,-0.66,1.2
4.6149373054504395,0.37,0.65,-0.39,0.84
4.624876022338867,0.55,0.14,-0.27,0.62
4.642833232879639,0.6,-0.51,-0.27,0.83
4.644459247589111,0.65,-1.2,-0.32,1.4
4.6546311378479,0.68,-1.93,-0.4,2.08
4.664731025695801,0.64,-2.65,-0.51,2.77
4.674784183502197,0.6,-3.29,-0.67,3.41
4.6926751136779785,0.55,-3.83,-0.78,3.94
4.694338321685791,0.53,-4.22,-0.78,4.32
4.704592227935791,0.56,-4.51,-0.76,4.6
4.714456081390381,0.61,-4.65,-0.71,4.74
4.724677085876465,0.62,-4.68,-0.64,4.76
4.74273419380188,0.61,-4.59,-0.57,4.66
4.7444000244140625,0.6,-4.34,-0.42,4.4
4.754484176635742,0.6,-4.0,-0.26,4.05
4.764469146728516,0.53,-3.55,-0.1,3.59
4.77477502822876,0.4,-3.0,0.09,3.02
4.793439149856567,0.24,-2.4,0.33,2.43
4.794402122497559,0.13,-1.81,0.57,1.9
4.804551124572754,0.02,-1.22,0.73,1.42
4.814565181732178,-0.25,-0.65,0.81,1.06
4.8247222900390625,-0.55,-0.04,0.89,1.04
4.84436821937561,-0.91,0.56,1.01,1.47
4.844986200332642,-1.25,1.08,1.14,2.0
4.854452133178711,-1.45,1.54,1.18,2.42
4.864518165588379,-1.59,1.91,1.19,2.75
4.874622344970703,-1.61,2.12,1.19,2.91
4.894418239593506,-1.45,2.23,1.1,2.87
4.895052194595337,-1.15,2.27,1.05,2.75
4.904361248016357,-0.83,2.2,1.05,2.57
4.914364337921143,-0.62,2.05,1.18,2.44
4.92455530166626,-0.6,1.94,1.48,2.51
4.943637132644653,-0.62,2.01,1.62,2.65
4.944230079650879,-0.62,2.31,1.46,2.8
4.954347133636475,-0.55,2.86,1.49,3.27
4.964320182800293,-0.2,3.55,1.36,3.8
4.974575042724609,0.06,4.05,0.63,4.09
4.993495225906372,0.13,4.29,-0.25,4.29
4.994147300720215,0.18,4.35,-0.91,4.44
5.004221200942993,0.3,4.11,-1.19,4.28
5.0143702030181885,0.49,3.46,-1.26,3.71
5.024440288543701,0.47,2.54,-1.44,2.95
5.043530225753784,0.37,1.5,-1.68,2.28
5.044173240661621,0.45,0.45,-1.72,1.83
5.054187297821045,0.68,-0.37,-1.5,1.68
5.064452171325684,0.96,-0.89,-1.13,1.72
5.074199199676514,1.23,-0.98,-0.73,1.73
5.093893051147461,1.27,-0.73,-0.52,1.55
5.094573020935059,1.14,-0.39,-0.59,1.34
5.1041481494903564,0.92,-0.05,-0.67,1.13
5.1145920753479,0.61,0.35,-0.75,1.02
5.12404203414917,0.36,0.7,-0.77,1.1
5.1435980796813965,0.15,0.91,-0.68,1.14
5.144210338592529,0.06,0.91,-0.6,1.09
5.154057025909424,-0.01,0.69,-0.55,0.88
5.163937091827393,-0.1,0.24,-0.51,0.57
5.17820405960083,-0.15,-0.41,-0.47,0.64
5.183954238891602,-0.08,-1.23,-0.46,1.31
5.193986177444458,0.01,-2.14,-0.47,2.19
5.204038143157959,0.13,-3.02,-0.48,3.06
5.213956117630005,0.23,-3.75,-0.52,3.79
5.228414058685303,0.3,-4.27,-0.61,4.32
5.233901023864746,0.33,-4.6,-0.72,4.66
5.244041204452515,0.27,-4.77,-0.86,4.85
5.253968238830566,0.18,-4.72,-0.69,4.77
5.264142990112305,0.08,-4.51,-0.45,4.53
5.279300212860107,0.01,-4.28,-0.37,4.29
5.28403902053833,0.08,-3.95,-0.3,3.96
5.293906211853027,0.14,-3.54,-0.08,3.54
5.303952217102051,0.25,-3.05,0.13,3.06
5.314118146896362,0.39,-2.55,0.19,2.58
5.32953405380249,0.53,-2.06,0.19,2.13
5.333949089050293,0.63,-1.57,0.24,1.7
5.343897342681885,0.71,-0.96,0.44,1.27
5.3539512157440186,0.69,-0.28,0.76,1.06
5.3640313148498535,0.71,0.47,1.14,1.42
5.379604339599609,0.74,1.2,1.36,1.95
5.383839130401611,0.75,1.86,1.3,2.39
5.393802165985107,0.78,2.41,1.11,2.76
5.40388822555542,0.7,2.79,1.08,3.07
5.413981199264526,0.6,3.06,1.23,3.35
5.430060148239136,0.47,3.22,1.5,3.58
5.433810234069824,0.37,3.27,1.72,3.71
5.44376015663147,0.23,3.15,1.78,3.62
5.45399808883667,0.04,2.98,1.59,3.37
5.463946342468262,-0.16,3.03,1.33,3.31
5.480051040649414,-0.3,3.37,1.22,3.59
5.483851194381714,-0.53,3.82,1.08,4.0
5.493715286254883,-0.72,4.27,0.69,4.38
5.503923177719116,-0.9,4.54,0.16,4.63
5.513862133026123,-0.97,4.52,-0.21,4.62
5.53005313873291,-1.02,4.1,-0.6,4.26
5.53361701965332,-1.13,3.31,-1.2,3.69
5.5437331199646,-1.15,2.34,-1.66,3.09
5.5536932945251465,-0.99,1.32,-1.73,2.39
5.563868045806885,-0.83,0.35,-1.59,1.82
5.579805135726929,-0.67,-0.32,-1.66,1.81
5.58364725112915,-0.64,-0.6,-1.84,2.03
5.5936102867126465,-0.77,-0.54,-1.78,2.01
5.603667259216309,-0.87,-0.33,-1.37,1.65
5.613779067993164,-0.91,-0.09,-0.99,1.34
5.629353046417236,-0.87,0.06,-0.77,1.16
5.633402109146118,-0.79,0.12,-0.81,1.13
5.643487215042114,-0.68,0.23,-0.86,1.12
5.653431177139282,-0.39,0.32,-0.61,0.79
5.6636152267456055,0.04,0.34,-0.44,0.55
5.679277181625366,0.25,0.14,-0.43,0.51
5.683403015136719,0.26,-0.26,-0.3,0.47
5.693375110626221,0.25,-0.83,-0.27,0.9
5.703386306762695,0.3,-1.57,-0.38,1.64
5.713627338409424,0.35,-2.29,-0.55,2.38
5.728788137435913,0.39,-2.91,-0.73,3.02
5.7331931591033936,0.39,-3.48,-0.78,3.58
5.743458271026611,0.4,-3.88,-0.77,3.97
5.753253221511841,0.39,-4.12,-0.76,4.2
5.7635602951049805,0.43,-4.25,-0.71,4.33
5.778785228729248,0.45,-4.23,-0.58,4.29
5.783433198928833,0.48,-4.08,-0.44,4.13
5.7933549880981445,0.38,-3.8,-0.26,3.82
5.803396224975586,0.27,-3.4,-0.07,3.41
5.813429117202759,0.17,-3.03,0.04,3.03
5.828514099121094,0.03,-2.64,0.09,2.64
5.83347225189209,-0.05,-2.24,0.12,2.24
5.843401193618774,-0.11,-1.84,0.23,1.85
5.853138208389282,-0.2,-1.41,0.41,1.48
5.8632121086120605,-0.32,-0.94,0.56,1.14
5.878876209259033,-0.47,-0.54,0.64,0.96
5.883677005767822,-0.64,-0.19,0.6,0.89
5.893249034881592,-0.83,0.08,0.51,0.97
5.903302192687988,-1.0,0.32,0.46,1.14
5.913331031799316,-1.09,0.59,0.56,1.36
5.928937196731567,-1.08,0.9,0.87,1.65
5.933761119842529,-0.95,1.19,1.13,1.89
5.943225145339966,-0.75,1.48,1.11,1.99
5.953071117401123,-0.68,1.78,1.1,2.2
5.963259220123291,-0.66,1.99,1.15,2.39
5.979124069213867,-0.67,2.11,1.25,2.54
5.983889102935791,-0.62,2.22,1.38,2.68
5.993004322052002,-0.64,2.34,1.39,2.79
6.00295615196228,-0.62,2.61,1.35,3.0
6.013233184814453,-0.57,3.1,1.28,3.4
6.030435085296631,-0.43,3.73,1.07,3.9
6.032917022705078,-0.34,4.3,0.76,4.37
6.043198108673096,-0.28,4.7,0.3,4.71
6.052899122238159,-0.18,4.77,-0.31,4.78
6.063198089599609,-0.01,4.35,-0.94,4.45
6.079353332519531,0.2,3.5,-1.29,3.73
6.082919120788574,0.32,2.46,-1.2,2.75
6.0929601192474365,0.41,1.31,-1.03,1.71
6.102959156036377,0.6,0.19,-1.1,1.26
6.113104343414307,0.8,-0.64,-1.12,1.51
6.130033016204834,0.98,-1.02,-1.07,1.77
6.132847309112549,1.14,-0.99,-0.97,1.79
6.142982006072998,1.23,-0.62,-0.67,1.53
6.152752161026001,1.23,-0.16,-0.5,1.33
6.1630940437316895,1.14,0.24,-0.42,1.23
6.180605173110962,0.94,0.61,-0.47,1.21
6.182819128036499,0.7,0.98,-0.49,1.3
6.1929521560668945,0.48,1.36,-0.37,1.48
6.20269513130188,0.32,1.6,-0.27,1.65
6.2130632400512695,0.21,1.45,-0.37,1.51
6.230222225189209,0.11,0.91,-0.48,1.03
6.232628107070923,0.01,0.16,-0.5,0.52
6.242828130722046,-0.02,-0.71,-0.53,0.88
6.25267219543457,0.04,-1.63,-0.56,1.72
6.262925148010254,0.15,-2.52,-0.62,2.59
6.280970096588135,0.25,-3.3,-0.7,3.38
6.28265905380249,0.23,-3.97,-0.74,4.04
6.292795181274414,0.18,-4.38,-0.82,4.45
6.302618026733398,0.05,-4.62,-0.86,4.69
6.312865257263184,-0.08,-4.79,-0.86,4.86
6.331344127655029,-0.11,-4.84,-0.82,4.91
6.332532167434692,-0.12,-4.81,-0.76,4.87
6.34273624420166,-0.13,-4.69,-0.64,4.73
6.3525071144104,-0.08,-4.42,-0.54,4.45
6.362850189208984,0.01,-3.99,-0.37,4.0
6.381345272064209,0.06,-3.43,-0.16,3.43
6.382462024688721,0.2,-2.81,-0.01,2.81
6.392649173736572,0.36,-2.14,0.0,2.17
6.402420997619629,0.44,-1.46,0.01,1.52
6.412672996520996,0.55,-0.73,0.33,0.97
6.430594205856323,0.85,0.03,0.66,1.07
6.432328224182129,1.05,0.67,0.74,1.44
6.442532062530518,1.09,1.26,0.84,1.86
6.4524312019348145,1.03,1.74,0.96,2.23
6.462738037109375,0.95,2.11,1.11,2.56
6.481770038604736,0.8,2.41,1.26,2.83
6.482416152954102,0.64,2.59,1.39,3.0
6.492508172988892,0.57,2.66,1.44,3.07
6.5023651123046875,0.51,2.64,1.43,3.04
6.51266622543335,0.5,2.53,1.41,2.93
6.531674146652222,0.46,2.4,1.15,2.7
6.532320022583008,0.32,2.55,0.88,2.71
6.542534112930298,0.03,3.0,0.9,3.13
6.552227020263672,-0.42,3.59,0.97,3.74
6.562410116195679,-0.86,4.07,0.89,4.25
6.582255125045776,-1.07,4.33,0.47,4.48
6.582911014556885,-1.1,4.44,0.24,4.58
6.592417240142822,-1.09,4.28,0.12,4.41
6.6022162437438965,-1.07,3.57,-0.49,3.75
6.612654209136963,-0.97,2.5,-1.36,3.0
6.632174015045166,-0.86,1.38,-1.88,2.48
6.632821083068848,-0.87,0.4,-1.91,2.13
6.642379283905029,-0.94,-0.28,-1.68,1.94
6.652302265167236,-0.99,-0.53,-1.48,1.85
6.662459135055542,-1.21,-0.36,-1.25,1.77
6.68290901184082,-1.49,0.03,-0.93,1.75
6.683537006378174,-1.58,0.37,-0.76,1.79
6.6923322677612305,-1.51,0.65,-0.91,1.87
6.702416181564331,-1.23,0.94,-1.05,1.87
6.712463140487671,-0.77,1.34,-0.77,1.72
6.732475280761719,-0.36,1.61,-0.62,1.76
6.733107089996338,-0.1,1.64,-0.53,1.72
6.742203235626221,0.06,1.37,-0.34,1.41
6.752549171447754,0.09,0.76,-0.31,0.82
6.762534141540527,0.03,-0.09,-0.38,0.39
6.7827301025390625,0.03,-1.06,-0.42,1.14
6.783355236053467,0.15,-1.94,-0.51,2.01
6.792197227478027,0.26,-2.67,-0.62,2.75
6.802786111831665,0.33,-3.24,-0.7,3.33
6.812251091003418,0.33,-3.66,-0.65,3.73
6.833268165588379,0.33,-3.97,-0.62,4.03
6.833938121795654,0.31,-4.16,-0.75,4.23
6.84220814704895,0.35,-4.23,-0.9,4.33
6.851990222930908,0.38,-4.25,-0.93,4.36
6.862061023712158,0.45,-4.18,-0.77,4.27
6.883216142654419,0.48,-4.06,-0.59,4.13
6.8838090896606445,0.48,-3.88,-0.39,3.92
6.892062187194824,0.42,-3.65,-0.16,3.67
6.901956081390381,0.34,-3.36,0.04,3.37
6.912001132965088,0.25,-3.02,0.16,3.03
6.93328332901001,0.1,-2.56,0.29,2.57
6.933941125869751,-0.11,-1.99,0.48,2.05
6.941982269287109,-0.31,-1.37,0.66,1.55
6.951873302459717,-0.44,-0.74,0.75,1.14
6.961963176727295,-0.62,-0.23,0.83,1.06
6.9834160804748535,-0.86,0.23,0.92,1.28
6.984037160873413,-1.1,0.68,1.06,1.67
6.991915225982666,-1.31,1.06,1.24,2.09
7.001895189285278,-1.42,1.36,1.37,2.39
7.011786222457886,-1.36,1.56,1.31,2.44
7.034182071685791,-1.24,1.67,1.21,2.4
7.034817218780518,-1.16,1.71,1.1,2.34
7.041901111602783,-1.09,1.7,1.04,2.27
7.0516862869262695,-0.96,1.75,1.05,2.25
7.062005043029785,-0.96,1.85,1.06,2.33
7.084155082702637,-0.95,2.11,1.2,2.6
7.0847930908203125,-0.89,2.58,1.46,3.09
7.091734170913696,-0.79,3.26,1.56,3.69
7.101772308349609,-0.49,4.02,1.23,4.23
7.111918210983276,-0.34,4.59,0.26,4.6
7.134353160858154,-0.2,4.92,-0.56,4.95
7.135003089904785,-0.04,4.89,-1.35,5.07
7.141749143600464,0.01,4.42,-1.94,4.82
7.151595115661621,-0.01,3.61,-1.91,4.08
7.1619873046875,-0.06,2.55,-1.72,3.07
7.185511112213135,-0.01,1.41,-1.62,2.14
7.186145305633545,0.21,0.33,-1.49,1.54
7.191644191741943,0.57,-0.49,-1.27,1.47
7.201638221740723,0.98,-0.93,-1.07,1.72
7.2116382122039795,1.32,-0.98,-0.87,1.86
7.2335920333862305,1.42,-0.72,-0.63,1.71
7.234253168106079,1.24,-0.34,-0.48,1.37
7.2417051792144775,0.86,0.02,-0.5,0.99
7.251514196395874,0.46,0.33,-0.62,0.83
7.261644124984741,0.16,0.67,-0.68,0.96
7.283581256866455,0.0,1.02,-0.6,1.18
7.284207344055176,-0.08,1.19,-0.47,1.28
7.291344165802002,-0.15,0.99,-0.4,1.07
7.3014891147613525,-0.24,0.43,-0.44,0.66
7.3115410804748535,-0.21,-0.36,-0.44,0.6
7.334287166595459,-0.1,-1.3,-0.41,1.36
7.334941148757935,0.0,-2.25,-0.38,2.28
7.341498136520386,0.11,-3.11,-0.42,3.14
7.351387023925781,0.13,-3.81,-0.49,3.84
7.361534118652344,0.09,-4.32,-0.55,4.35
7.383960247039795,-0.04,-4.61,-0.65,4.65
7.384587287902832,-0.15,-4.72,-0.69,4.77
7.391338109970093,-0.2,-4.66,-0.62,4.7
7.401376247406006,-0.24,-4.54,-0.55,4.57
7.411352157592773,-0.26,-4.31,-0.37,4.33
7.434091091156006,-0.24,-3.98,-0.15,3.99
7.434765338897705,-0.18,-3.64,-0.17,3.64
7.441171169281006,-0.03,-3.25,-0.13,3.25
7.451273202896118,0.07,-2.8,0.02,2.8
7.461399078369141,0.16,-2.27,0.23,2.28
7.4842753410339355,0.27,-1.75,0.47,1.83
7.484942197799683,0.34,-1.17,0.77,1.44
7.491260051727295,0.44,-0.54,1.11,1.31
7.5013041496276855,0.58,0.1,1.38,1.5
7.51124119758606,0.71,0.74,1.47,1.79
7.53449010848999,0.81,1.33,1.44,2.12
7.535099029541016,0.8,1.8,1.42,2.42
7.541079044342041,0.78,2.19,1.49,2.76
7.551083087921143,0.71,2.48,1.7,3.08
7.56124210357666,0.64,2.68,1.9,3.34
7.584598064422607,0.53,2.78,2.02,3.47
7.585140228271484,0.4,2.78,2.05,3.47
7.5911571979522705,0.32,2.68,2.07,3.4
7.60113525390625,0.25,2.55,1.99,3.24
7.611161231994629,0.11,2.69,1.79,3.23
7.634562015533447,-0.16,3.04,1.54,3.41
7.635193109512329,-0.4,3.46,1.12,3.65
7.641165256500244,-0.52,3.89,0.53,3.96
7.651060104370117,-0.65,4.28,-0.15,4.33
7.661194324493408,-0.85,4.49,-0.51,4.59
7.685140132904053,-1.12,4.29,-0.78,4.5
7.68578314781189,-1.28,3.6,-1.57,4.13
7.690916061401367,-1.27,2.66,-2.36,3.77
7.701009273529053,-1.17,1.62,-2.55,3.23
7.710919141769409,-1.03,0.59,-2.33,2.61
7.720996141433716,-0.91,-0.28,-2.14,2.34
7.735907077789307,-0.82,-0.8,-2.16,2.44
7.741075038909912,-0.84,-0.91,-2.19,2.51
7.750929117202759,-0.93,-0.63,-1.97,2.26
7.761290073394775,-0.9,-0.14,-1.58,1.82
7.770871162414551,-0.81,0.41,-1.22,1.52
7.785511016845703,-0.7,0.91,-0.99,1.51
7.790930271148682,-0.49,1.31,-0.89,1.65
7.800965309143066,-0.19,1.57,-0.7,1.72
7.810976028442383,0.17,1.66,-0.38,1.71
7.820789337158203,0.45,1.52,-0.3,1.61
7.835792064666748,0.53,1.07,-0.38,1.25
7.840821266174316,0.57,0.37,-0.38,0.77
7.851156234741211,0.62,-0.52,-0.59,1.0
7.860928058624268,0.55,-1.49,-0.91,1.83
7.871045112609863,0.42,-2.38,-0.97,2.6
7.885509014129639,0.32,-3.1,-0.88,3.23
7.8910112380981445,0.26,-3.67,-0.78,3.76
7.900842189788818,0.2,-4.08,-0.72,4.14
7.911016225814819,0.1,-4.28,-0.65,4.33
7.920711040496826,0.06,-4.35,-0.48,4.37
7.935790061950684,0.11,-4.34,-0.33,4.35
7.940747261047363,0.19,-4.26,-0.28,4.27
7.9506871700286865,0.29,-4.07,-0.3,4.09
7.961117267608643,0.24,-3.84,-0.3,3.85
7.970767021179199,0.14,-3.6,-0.21,3.6
7.98606014251709,0.05,-3.32,-0.09,3.32
7.990586280822754,-0.05,-3.0,0.07,3.0
8.000686168670654,-0.1,-2.65,0.24,2.66
8.009183168411255,-0.15,-2.24,0.34,2.27
8.019136190414429,-0.28,-1.81,0.47,1.89
8.035900115966797,-0.44,-1.35,0.64,1.55
8.039560317993164,-0.57,-0.82,0.81,1.28
8.049261093139648,-0.78,-0.26,1.0,1.29
8.059225082397461,-0.96,0.26,1.13,1.5
8.069240093231201,-1.04,0.76,1.14,1.72
8.085618019104004,-1.05,1.2,1.1,1.93
8.089500188827515,-1.05,1.62,1.1,2.22
8.099254131317139,-1.0,1.98,1.19,2.51
8.109023094177246,-0.93,2.2,1.34,2.73
8.119043111801147,-0.86,2.31,1.37,2.82
8.136008262634277,-0.76,2.3,1.25,2.72
8.139855146408081,-0.71,2.27,1.31,2.71
8.149057149887085,-0.74,2.28,1.36,2.75
8.15901803970337,-0.86,2.43,1.51,2.98
8.168943166732788,-0.84,2.83,1.53,3.32
8.185805320739746,-0.66,3.39,1.36,3.71
8.188915252685547,-0.44,3.99,0.92,4.11
8.199006080627441,-0.3,4.42,0.22,4.43
8.208855152130127,-0.12,4.6,-0.46,4.62
8.21888017654419,0.05,4.51,-0.9,4.59
8.236239194869995,0.18,4.04,-1.26,4.23
8.23884916305542,0.23,3.15,-1.51,3.5
8.249013185501099,0.08,2.03,-1.55,2.55
8.258955001831055,0.01,0.81,-1.68,1.86
8.268866062164307,0.19,-0.28,-1.73,1.76
8.28626823425293,0.5,-1.02,-1.48,1.86
8.288807153701782,0.84,-1.36,-1.12,1.95
8.29887318611145,1.14,-1.23,-0.83,1.87
8.308755159378052,1.27,-0.76,-0.72,1.64
8.318777084350586,1.25,-0.18,-0.65,1.42
8.33644723892212,1.13,0.42,-0.69,1.38
8.338771343231201,0.87,1.03,-0.8,1.56
8.348774194717407,0.59,1.58,-0.72,1.83
8.358640193939209,0.28,1.98,-0.65,2.1
8.368726253509521,0.09,2.07,-0.68,2.18
8.38676404953003,-0.02,1.73,-0.6,1.83
8.388752222061157,-0.11,1.12,-0.48,1.22
8.398739337921143,-0.16,0.31,-0.36,0.5
8.408765316009521,-0.11,-0.62,-0.34,0.71
8.42125415802002,0.01,-1.6,-0.41,1.65
8.436998128890991,0.07,-2.5,-0.5,2.55
8.441161155700684,0.1,-3.29,-0.62,3.34
8.451170206069946,0.06,-3.88,-0.76,3.95
8.461258172988892,0.03,-4.22,-0.81,4.29
8.471143245697021,-0.01,-4.39,-0.8,4.46
8.487480163574219,-0.11,-4.45,-0.77,4.51
8.491143226623535,-0.19,-4.38,-0.68,4.43
8.501160144805908,-0.2,-4.18,-0.54,4.21
8.511031150817871,-0.18,-3.9,-0.44,3.92
8.520985126495361,-0.14,-3.6,-0.36,3.62
8.537532329559326,0.01,-3.28,-0.27,3.29
8.540963172912598,0.21,-2.99,-0.25,3.0
8.551010131835938,0.47,-2.68,-0.24,2.73
8.560979127883911,0.6,-2.3,-0.13,2.38
8.570918083190918,0.67,-1.8,0.05,1.92
8.587791204452515,0.7,-1.25,0.39,1.48
8.590906143188477,0.7,-0.74,0.68,1.22
8.601191997528076,0.68,-0.24,0.93,1.17
8.610927104949951,0.79,0.32,1.24,1.5
8.62095308303833,0.9,0.93,1.31,1.84
8.637676239013672,0.93,1.53,1.22,2.16
8.640998125076294,0.8,2.04,1.26,2.52
8.650864124298096,0.62,2.45,1.27,2.82
8.660926342010498,0.44,2.7,1.34,3.04
8.670801162719727,0.23,2.78,1.53,3.18
8.688154220581055,0.02,2.62,1.73,3.13
8.691180229187012,-0.07,2.34,1.8,2.95
8.700936317443848,-0.06,2.0,1.73,2.64
8.710743188858032,-0.04,1.86,1.48,2.37
8.72077226638794,-0.06,2.13,1.22,2.45
8.73843002319336,-0.23,2.62,1.08,2.84
8.741438150405884,-0.46,3.16,0.99,3.34
8.750861167907715,-0.61,3.57,0.61,3.67
8.760770320892334,-0.69,3.85,0.12,3.91
8.770687103271484,-0.75,4.09,0.02,4.15
8.788463115692139,-0.72,3.98,-0.13,4.04
8.791449069976807,-0.63,3.3,-0.73,3.43
8.800724029541016,-0.54,2.3,-1.42,2.75
8.810693264007568,-0.48,1.26,-1.83,2.27
8.82055115699768,-0.48,0.27,-1.88,1.95
8.83861517906189,-0.52,-0.47,-1.8,1.93
8.840665340423584,-0.59,-0.86,-1.74,2.02
8.850747108459473,-0.71,-0.91,-1.62,1.98
8.860637187957764,-0.91,-0.7,-1.44,1.84
8.870702266693115,-1.11,-0.43,-1.26,1.73
8.88896918296814,-1.18,-0.11,-1.18,1.67
8.89064621925354,-1.07,0.26,-1.24,1.65
8.90067720413208,-0.8,0.66,-1.11,1.51
8.910649299621582,-0.44,1.0,-0.66,1.27
8.920575141906738,-0.18,1.08,-0.52,1.21
8.938908100128174,-0.03,0.95,-0.48,1.06
8.94059133529663,0.04,0.59,-0.43,0.73
8.950691223144531,0.12,0.02,-0.49,0.5
8.960560321807861,0.25,-0.65,-0.58,0.9
8.970794200897217,0.41,-1.39,-0.66,1.59
8.989335060119629,0.52,-2.09,-0.69,2.26
8.990725040435791,0.53,-2.65,-0.65,2.77
9.000534057617188,0.44,-3.1,-0.57,3.18
9.010416030883789,0.4,-3.42,-0.59,3.49
9.020403146743774,0.39,-3.63,-0.61,3.7
9.039156198501587,0.39,-3.74,-0.55,3.8
9.040509223937988,0.41,-3.75,-0.51,3.8
9.0508451461792,0.41,-3.63,-0.43,3.67
9.060411214828491,0.37,-3.38,-0.26,3.41
9.070459127426147,0.31,-3.07,-0.06,3.08
9.089584112167358,0.2,-2.78,0.08,2.78
9.090363025665283,0.11,-2.49,0.19,2.49
9.100410223007202,0.03,-2.17,0.29,2.18
9.110297203063965,-0.07,-1.82,0.35,1.85
9.120368003845215,-0.16,-1.48,0.41,1.54
9.139656066894531,-0.28,-1.17,0.47,1.29
9.140575170516968,-0.42,-0.9,0.56,1.14
9.150578022003174,-0.57,-0.68,0.67,1.11
9.160256147384644,-0.68,-0.4,0.73,1.07
9.170577049255371,-0.73,-0.06,0.89,1.15
9.1895432472229,-0.79,0.3,1.09,1.37
9.190182209014893,-0.88,0.69,1.15,1.6
9.200411319732666,-0.92,1.08,1.04,1.75
9.210269212722778,-0.93,1.42,0.97,1.95
9.220448017120361,-0.91,1.72,1.1,2.23
9.239639282226562,-0.86,1.91,1.24,2.43
9.240256309509277,-0.79,1.93,1.23,2.42
9.250371217727661,-0.73,1.81,1.18,2.28
9.260111331939697,-0.7,1.62,1.05,2.05
9.270423173904419,-0.71,1.63,0.86,1.97
9.290066242218018,-0.64,2.02,1.04,2.36
9.290716171264648,-0.43,2.71,1.44,3.09
9.300319194793701,-0.3,3.42,1.32,3.67
9.310168266296387,-0.34,4.03,0.61,4.09
9.320204257965088,-0.34,4.59,-0.17,4.6
9.340210199356079,-0.3,4.97,-0.91,5.06
9.340835094451904,-0.26,4.86,-1.54,5.1
9.35032033920288,-0.13,4.14,-1.84,4.53
9.359913110733032,0.01,3.05,-1.77,3.52
9.370280265808105,0.11,1.8,-1.62,2.42
9.390321254730225,0.35,0.59,-1.49,1.64
9.39094614982605,0.68,-0.43,-1.26,1.49
9.400220155715942,1.08,-1.12,-1.09,1.89
9.409978151321411,1.52,-1.38,-1.01,2.28
9.420180320739746,1.82,-1.25,-0.94,2.39
9.440585136413574,1.74,-0.94,-0.87,2.16
9.44120717048645,1.39,-0.55,-0.84,1.71
9.450156211853027,0.87,-0.12,-0.82,1.2
9.459935188293457,0.41,0.33,-0.76,0.92
9.470312118530273,0.08,0.71,-0.62,0.94
9.490957260131836,-0.17,0.9,-0.5,1.04
9.491571187973022,-0.28,0.88,-0.47,1.03
9.500023126602173,-0.37,0.59,-0.45,0.82
9.510030269622803,-0.41,0.01,-0.39,0.56
9.51994800567627,-0.26,-0.78,-0.3,0.87
9.540862083435059,-0.03,-1.66,-0.27,1.68
9.541496276855469,0.18,-2.5,-0.34,2.52
9.550034046173096,0.32,-3.16,-0.47,3.21
9.560164213180542,0.35,-3.7,-0.53,3.75
9.570081233978271,0.28,-4.06,-0.56,4.1
9.591162204742432,0.15,-4.26,-0.63,4.3
9.591806173324585,0.01,-4.33,-0.65,4.37
9.599908113479614,-0.05,-4.3,-0.63,4.34
9.61033821105957,-0.06,-4.17,-0.48,4.19
9.619844198226929,-0.03,-3.87,-0.18,3.87
9.641162157058716,0.06,-3.49,-0.14,3.49
9.641777038574219,0.21,-3.02,-0.08,3.02
9.649879217147827,0.29,-2.5,0.14,2.52
9.660404205322266,0.47,-1.99,0.31,2.06
9.669918060302734,0.61,-1.48,0.36,1.64
9.691482067108154,0.67,-0.94,0.5,1.25
9.692108154296875,0.68,-0.39,0.77,1.09
9.699762344360352,0.66,0.16,1.0,1.2
9.70969009399414,0.62,0.64,1.05,1.37
9.726749181747437,0.58,1.04,0.95,1.52
9.729639053344727,0.59,1.38,0.91,1.75
9.739673137664795,0.63,1.69,0.99,2.05
9.749643325805664,0.62,1.94,1.19,2.35
9.759610176086426,0.6,2.18,1.42,2.66
9.777376174926758,0.51,2.42,1.6,2.94
9.77944016456604,0.41,2.51,1.7,3.05
9.789462089538574,0.38,2.44,1.72,3.0
9.799360275268555,0.38,2.22,1.73,2.84
9.809563159942627,0.36,1.97,1.65,2.59
9.826815128326416,0.26,1.97,1.3,2.37
9.829474210739136,0.07,2.29,1.03,2.51
9.839503288269043,-0.2,2.77,0.94,2.93
9.84962511062622,-0.42,3.26,0.77,3.37
9.85952615737915,-0.49,3.61,0.09,3.64
9.87666130065918,-0.67,3.76,-0.6,3.86
9.879662036895752,-0.91,3.64,-0.8,3.83
9.889527320861816,-1.1,3.2,-0.97,3.52
9.899571180343628,-1.14,2.49,-1.24,3.0
9.909416198730469,-0.98,1.56,-1.29,2.24
9.926537990570068,-0.74,0.53,-1.23,1.53
9.92949628829956,-0.54,-0.38,-1.37,1.52
9.939470291137695,-0.49,-0.98,-1.7,2.02
9.949429988861084,-0.57,-1.17,-1.9,2.3
9.959426164627075,-0.73,-1.06,-1.81,2.22
9.976583003997803,-0.91,-0.72,-1.53,1.92
9.979355335235596,-1.14,-0.3,-1.19,1.67
9.989346027374268,-1.34,0.13,-0.94,1.64
9.999441146850586,-1.29,0.63,-0.74,1.61
10.009352207183838,-0.89,1.12,-0.59,1.54
10.02688717842102,-0.46,1.49,-0.49,1.63
10.029430150985718,-0.13,1.7,-0.33,1.73
10.039323329925537,0.19,1.6,-0.37,1.65
10.049320220947266,0.4,1.13,-0.5,1.29
10.059288024902344,0.43,0.41,-0.39,0.71
10.076598167419434,0.42,-0.48,-0.28,0.69
10.07926607131958,0.52,-1.42,-0.35,1.55
10.089315176010132,0.62,-2.28,-0.5,2.41
10.099230289459229,0.58,-3.01,-0.67,3.13
10.109209060668945,0.5,-3.56,-0.75,3.67
10.126696109771729,0.43,-3.89,-0.76,3.98
10.129102230072021,0.42,-4.04,-0.78,4.13
10.139217138290405,0.45,-3.98,-0.82,4.08
10.149246215820312,0.51,-3.79,-0.78,3.9
10.15916919708252,0.52,-3.53,-0.66,3.62
10.176652193069458,0.44,-3.24,-0.44,3.29
10.179067134857178,0.33,-2.88,-0.19,2.9
10.189175128936768,0.25,-2.57,0.0,2.58
10.19916820526123,0.13,-2.27,0.13,2.27
10.209121227264404,0.01,-1.98,0.25,1.99
10.22648811340332,-0.1,-1.7,0.34,1.73
10.229015111923218,-0.25,-1.43,0.41,1.5
10.239130020141602,-0.44,-1.15,0.5,1.32
10.249143123626709,-0.69,-0.86,0.61,1.26
10.259066104888916,-0.93,-0.54,0.63,1.24
10.276809215545654,-1.14,-0.17,0.6,1.29
10.278984069824219,-1.28,0.19,0.63,1.43
10.289015293121338,-1.33,0.56,0.7,1.6
10.29906702041626,-1.3,0.89,0.91,1.81
10.309959173202515,-1.21,1.16,1.06,1.98
10.327535152435303,-1.02,1.36,1.05,1.99
10.328996181488037,-0.85,1.52,1.07,2.04
10.33910608291626,-0.69,1.61,1.1,2.06
10.348964214324951,-0.56,1.61,1.19,2.07
10.358980178833008,-0.39,1.67,1.29,2.14
10.377029180526733,-0.41,1.69,1.25,2.14
10.379065036773682,-0.55,1.72,1.11,2.11
10.388984203338623,-0.61,1.96,1.02,2.29
10.398788213729858,-0.49,2.48,1.06,2.74
10.40874433517456,-0.29,3.13,1.08,3.32
10.42728328704834,-0.17,3.67,0.76,3.75
10.429436206817627,-0.06,4.0,0.06,4.0
10.43885326385498,0.07,4.16,-0.63,4.2
10.44877815246582,0.1,4.1,-1.07,4.23
10.458802223205566,0.11,3.56,-1.24,3.77
10.477412223815918,0.11,2.55,-1.23,2.83
10.479358196258545,0.07,1.33,-1.36,1.9
10.488853216171265,0.22,0.2,-1.6,1.62
10.498810291290283,0.54,-0.62,-1.6,1.79
10.508787155151367,0.93,-1.04,-1.33,1.92
10.52734112739563,1.27,-1.04,-1.08,1.96
10.52859115600586,1.48,-0.67,-0.92,1.86
10.538886070251465,1.39,-0.18,-0.74,1.58
10.548754215240479,1.12,0.33,-0.62,1.32
10.558670043945312,0.8,0.74,-0.61,1.24
10.577920198440552,0.55,1.08,-0.72,1.4
10.57854700088501,0.37,1.37,-0.65,1.56
10.588844299316406,0.16,1.46,-0.46,1.53
10.598692178726196,-0.08,1.24,-0.37,1.29
10.608625173568726,-0.21,0.67,-0.39,0.8
10.627961158752441,-0.24,-0.1,-0.36,0.44
10.628603219985962,-0.2,-0.93,-0.29,0.99
10.638698101043701,-0.12,-1.8,-0.27,1.82
10.648697137832642,-0.06,-2.61,-0.35,2.63
10.65853500366211,0.01,-3.23,-0.44,3.25
10.678013324737549,0.03,-3.67,-0.48,3.7
10.678600311279297,0.05,-3.96,-0.48,3.98
10.688688278198242,0.07,-4.08,-0.45,4.1
10.698531150817871,0.0,-4.05,-0.4,4.06
10.708535194396973,-0.14,-3.92,-0.32,3.93
10.72829818725586,-0.23,-3.72,-0.24,3.73
10.728926181793213,-0.27,-3.45,-0.15,3.46
10.738584041595459,-0.25,-3.12,-0.07,3.13
10.748420238494873,-0.16,-2.77,-0.04,2.77
10.75846529006958,-0.04,-2.45,-0.11,2.45
10.778375148773193,0.08,-2.1,-0.04,2.1
10.779009342193604,0.29,-1.73,0.22,1.76
10.788555145263672,0.46,-1.37,0.4,1.49
10.798405170440674,0.54,-0.91,0.59,1.21
10.808446168899536,0.55,-0.4,0.78,1.03
10.828504085540771,0.49,0.15,0.94,1.07
10.829121112823486,0.43,0.72,1.1,1.38
10.83851432800293,0.42,1.24,1.22,1.78
10.848235130310059,0.41,1.71,1.21,2.13
10.858341217041016,0.45,2.11,1.24,2.48
10.878754138946533,0.46,2.42,1.4,2.83
10.87938404083252,0.39,2.67,1.63,3.15
10.888413190841675,0.22,2.75,1.78,3.28
10.898153305053711,0.07,2.54,1.8,3.11
10.908290147781372,-0.05,2.23,1.84,2.89
10.928999185562134,-0.13,1.95,1.83,2.67
10.92957615852356,-0.16,1.95,1.61,2.53
10.938363075256348,-0.26,2.31,1.37,2.69
10.948092222213745,-0.38,3.01,1.38,3.33
10.958193302154541,-0.4,3.81,1.32,4.05
10.979087114334106,-0.5,4.46,0.78,4.55
10.979725122451782,-0.73,4.86,0.34,4.92
10.988286018371582,-0.84,4.95,0.28,5.02
10.998069286346436,-0.81,4.47,-0.13,4.54
11.008137226104736,-0.76,3.33,-1.02,3.56
11.029308319091797,-0.69,2.05,-1.59,2.68
11.029938220977783,-0.6,0.72,-1.65,1.89
11.038195133209229,-0.51,-0.46,-1.6,1.74
11.047987222671509,-0.43,-1.36,-1.7,2.21
11.058151245117188,-0.36,-1.95,-1.9,2.74
11.07944631576538,-0.35,-2.12,-1.92,2.88
11.080071210861206,-0.37,-1.98,-1.74,2.66
11.088210105895996,-0.54,-1.74,-1.69,2.48
11.097850322723389,-0.72,-1.41,-1.54,2.2
11.108081340789795,-0.72,-1.07,-1.45,1.94
11.129746198654175,-0.56,-0.67,-1.37,1.62
11.131275177001953,-0.27,-0.26,-1.03,1.09
11.138099193572998,0.03,0.11,-0.54,0.55
11.147865295410156,0.23,0.35,-0.23,0.47
11.158039093017578,0.32,0.38,-0.25,0.55
11.179518222808838,0.35,0.21,-0.44,0.6
11.180147171020508,0.3,-0.15,-0.57,0.66
11.188040256500244,0.23,-0.62,-0.67,0.94
11.197827339172363,0.16,-1.14,-0.76,1.37
11.207999229431152,0.13,-1.68,-0.86,1.89
11.229786157608032,0.07,-2.15,-0.88,2.32
11.23042106628418,0.0,-2.51,-0.78,2.62
11.23800015449524,0.02,-2.75,-0.61,2.81
11.248000144958496,0.07,-2.85,-0.44,2.88
11.257952213287354,0.17,-2.84,-0.3,2.86
11.279873132705688,0.29,-2.7,-0.25,2.72
11.280448198318481,0.35,-2.52,-0.25,2.55
11.287891149520874,0.33,-2.3,-0.26,2.33
11.298103332519531,0.28,-2.1,-0.25,2.13
11.307867050170898,0.23,-1.89,-0.18,1.91
11.330106258392334,0.13,-1.7,0.01,1.7
11.330746173858643,-0.02,-1.53,0.24,1.54
11.33785104751587,-0.14,-1.43,0.35,1.47
11.348217010498047,-0.23,-1.37,0.28,1.41
11.357749223709106,-0.27,-1.35,0.25,1.39
11.380216121673584,-0.29,-1.27,0.23,1.32
11.380848169326782,-0.32,-1.1,0.34,1.19
11.387779235839844,-0.37,-0.8,0.56,1.04
11.398380279541016,-0.48,-0.41,0.86,1.06
11.407752990722656,-0.53,0.04,1.05,1.17
11.430456161499023,-0.64,0.49,1.08,1.34
11.431875228881836,-0.79,0.91,1.05,1.59
11.43762731552124,-0.81,1.23,1.02,1.79
11.447575092315674,-0.82,1.47,1.06,1.98
11.45769715309143,-0.87,1.56,0.93,2.01
11.480644226074219,-0.79,1.62,1.01,2.06
11.482108116149902,-0.62,1.7,1.13,2.13
11.487617015838623,-0.57,1.73,0.96,2.05
11.497504234313965,-0.62,1.97,0.97,2.28
11.507686138153076,-0.65,2.53,1.26,2.9
11.530840158462524,-0.5,3.22,1.61,3.63
11.532336235046387,-0.35,3.83,1.34,4.07
11.537545204162598,-0.3,4.2,0.4,4.22
11.547548294067383,-0.27,4.4,-0.46,4.43
11.557547092437744,-0.24,4.29,-0.86,4.38
11.58089017868042,-0.12,3.65,-1.15,3.82
11.582349300384521,0.1,2.71,-1.38,3.04
11.58760118484497,0.21,1.67,-1.44,2.21
11.597474098205566,0.24,0.58,-1.5,1.62
11.607503175735474,0.4,-0.47,-1.53,1.64
11.631077289581299,0.73,-1.31,-1.42,2.06
11.632579326629639,1.11,-1.79,-1.24,2.44
11.637416124343872,1.48,-1.85,-1.05,2.59
11.647284030914307,1.7,-1.52,-0.91,2.45
11.657511234283447,1.56,-0.96,-0.92,2.04
11.681331157684326,1.26,-0.33,-0.93,1.6
11.682835102081299,0.9,0.35,-0.92,1.33
11.687429189682007,0.53,0.99,-0.87,1.42
11.69729232788086,0.26,1.55,-0.64,1.69
11.707436084747314,0.07,1.9,-0.39,1.94
11.731403112411499,-0.07,1.89,-0.28,1.91
11.732915163040161,-0.21,1.42,-0.38,1.48
11.737324237823486,-0.31,0.7,-0.52,0.92
11.747298240661621,-0.23,-0.16,-0.58,0.64
11.757257223129272,-0.06,-1.07,-0.65,1.25
11.781679153442383,0.08,-1.92,-0.5,1.98
11.783159255981445,0.23,-2.62,-0.47,2.67
11.787239074707031,0.27,-3.2,-0.63,3.27
11.797140121459961,0.24,-3.6,-0.68,3.67
11.80717134475708,0.17,-3.79,-0.57,3.83
11.831797122955322,0.08,-3.86,-0.54,3.89
11.83328104019165,-0.04,-3.84,-0.48,3.87
11.837289333343506,-0.08,-3.75,-0.36,3.76
11.84719705581665,-0.02,-3.53,-0.27,3.54
11.857216119766235,0.05,-3.25,-0.11,3.25
11.881939172744751,0.17,-2.97,0.14,2.97
11.883398056030273,0.34,-2.68,0.28,2.71
11.887217998504639,0.53,-2.4,0.29,2.47
11.89704704284668,0.64,-2.13,0.24,2.23
11.907199144363403,0.7,-1.77,0.2,1.91
11.932027339935303,0.73,-1.35,0.37,1.57
11.93356704711914,0.8,-0.84,0.7,1.35
11.937056064605713,0.85,-0.29,1.07,1.39
11.946997165679932,0.84,0.26,1.38,1.63
11.957111120223999,0.79,0.8,1.5,1.87
11.982270240783691,0.7,1.3,1.36,2.0
11.98373031616211,0.62,1.73,1.18,2.18
11.986923217773438,0.56,2.1,1.16,2.46
11.996991157531738,0.45,2.42,1.36,2.81
12.007214069366455,0.27,2.57,1.65,3.06
12.014293193817139,0.12,2.51,1.8,3.09
12.031708240509033,0.07,2.28,1.82,2.91
12.034240245819092,0.02,1.92,1.82,2.64
12.044368267059326,0.07,1.68,1.75,2.42
12.05437421798706,-0.03,1.76,1.53,2.33
12.064335107803345,-0.29,2.19,1.23,2.52
12.081820011138916,-0.47,2.71,0.87,2.88
12.08430814743042,-0.59,3.23,0.4,3.3
12.09441328048706,-0.72,3.56,-0.17,3.63
12.104517221450806,-0.8,3.84,-0.45,3.94
12.114472150802612,-0.9,3.97,-0.45,4.09
12.133000135421753,-0.92,3.62,-0.93,3.84
12.134411334991455,-0.84,2.91,-1.51,3.38
12.144270181655884,-0.75,2.12,-1.7,2.81
12.154224157333374,-0.78,1.2,-1.69,2.21
12.164255142211914,-0.82,0.31,-1.53,1.76
12.182380199432373,-0.69,-0.38,-1.71,1.88
12.184094190597534,-0.67,-0.75,-2.16,2.38
12.194404125213623,-0.8,-0.74,-2.05,2.32
12.204264163970947,-0.95,-0.47,-1.54,1.86
12.214178085327148,-1.03,-0.17,-1.22,1.6
12.232298135757446,-0.97,0.13,-1.16,1.51
12.23403811454773,-0.75,0.52,-1.16,1.47
12.244202136993408,-0.45,0.87,-0.97,1.37
12.254204273223877,-0.09,1.12,-0.58,1.26
12.264154195785522,0.18,1.27,-0.33,1.32
12.28253722190857,0.32,1.18,-0.33,1.26
12.28409719467163,0.35,0.78,-0.42,0.95
12.294149160385132,0.34,0.12,-0.5,0.61
12.304439067840576,0.43,-0.7,-0.54,0.98
12.314144134521484,0.55,-1.58,-0.63,1.78
12.333124160766602,0.54,-2.36,-0.76,2.53
12.334604263305664,0.5,-3.01,-0.81,3.15
12.344090223312378,0.5,-3.49,-0.74,3.6
12.35391116142273,0.51,-3.84,-0.63,3.92
12.363969326019287,0.54,-4.08,-0.57,4.15
12.38291621208191,0.58,-4.12,-0.55,4.19
12.38447618484497,0.55,-4.0,-0.54,4.07
12.393968105316162,0.5,-3.77,-0.45,3.82
12.403902053833008,0.4,-3.49,-0.29,3.52
12.433756113052368,0.31,-3.2,-0.12,3.21
12.435235023498535,0.26,-2.88,0.02,2.89
12.437699317932129,0.22,-2.57,0.11,2.58
12.44768214225769,0.19,-2.23,0.19,2.24
12.45778226852417,0.11,-1.86,0.3,1.88
12.48377013206482,-0.04,-1.49,0.47,1.56
12.485215187072754,-0.17,-1.14,0.67,1.33
12.487668991088867,-0.36,-0.81,0.83,1.21
12.497649192810059,-0.56,-0.41,1.03,1.24
12.507684230804443,-0.81,-0.01,1.21,1.45
12.534127235412598,-1.11,0.4,1.27,1.73
12.53559923171997,-1.33,0.82,1.24,1.99
12.537549018859863,-1.41,1.2,1.23,2.22
12.547651290893555,-1.37,1.52,1.26,2.4
12.557732105255127,-1.33,1.69,1.3,2.51
12.584892272949219,-1.26,1.75,1.35,2.54
12.586384296417236,-1.08,1.75,1.31,2.43
12.587494134902954,-0.84,1.68,1.27,2.26
12.59750509262085,-0.74,1.56,1.27,2.14
12.60744333267212,-0.72,1.43,1.32,2.07
12.634445190429688,-0.67,1.32,1.29,1.96
12.635964155197144,-0.64,1.23,1.21,1.84
12.6373131275177,-0.62,1.36,1.02,1.8
12.647547245025635,-0.45,1.79,0.97,2.08
12.657600164413452,-0.2,2.47,0.91,2.63
12.667602062225342,-0.13,3.12,0.52,3.16
12.684670209884644,-0.29,3.68,-0.06,3.69
12.687520027160645,-0.32,4.19,-0.51,4.23
12.697496175765991,-0.14,4.36,-0.77,4.42
12.70744800567627,0.19,3.91,-1.12,4.07
12.717336177825928,0.29,2.92,-1.45,3.27
12.734513282775879,0.15,1.68,-1.62,2.33
12.737480163574219,0.18,0.37,-1.67,1.71
12.747411251068115,0.29,-0.74,-1.45,1.65
12.75750732421875,0.54,-1.52,-1.09,1.94
12.767384052276611,0.93,-1.8,-0.82,2.18
12.784526109695435,1.28,-1.56,-0.63,2.11
12.787233114242554,1.4,-1.02,-0.54,1.81
12.7972891330719,1.26,-0.35,-0.51,1.4
12.807331085205078,0.94,0.33,-0.47,1.1
12.817222118377686,0.62,1.04,-0.52,1.31
12.835249185562134,0.4,1.67,-0.43,1.77
12.837208271026611,0.22,2.13,-0.32,2.16
12.847269058227539,0.03,2.29,-0.48,2.33
12.857290267944336,-0.21,1.99,-0.63,2.09
12.867332220077515,-0.33,1.22,-0.57,1.38
12.884825229644775,-0.29,0.24,-0.44,0.57
12.887156009674072,-0.17,-0.8,-0.31,0.87
12.897226333618164,-0.03,-1.83,-0.39,1.87
12.907199144363403,-0.01,-2.77,-0.55,2.82
12.917132139205933,0.02,-3.56,-0.67,3.62
12.935147285461426,0.16,-4.1,-0.79,4.17
12.93705129623413,0.22,-4.43,-0.83,4.51
12.947063207626343,0.15,-4.58,-0.74,4.64
12.957083225250244,0.01,-4.55,-0.61,4.59
12.967164039611816,-0.14,-4.41,-0.46,4.43
12.98551321029663,-0.15,-4.14,-0.36,4.15
12.98706316947937,-0.14,-3.77,-0.33,3.78
12.997214317321777,-0.08,-3.34,-0.25,3.35
13.006946086883545,0.1,-2.89,-0.14,2.89
13.017000198364258,0.28,-2.46,0.03,2.47
13.036192178726196,0.38,-2.05,0.2,2.09
13.03770399093628,0.43,-1.67,0.37,1.76
13.047008991241455,0.44,-1.24,0.59,1.44
13.057082176208496,0.49,-0.74,0.85,1.22
13.067136287689209,0.62,-0.21,1.1,1.28
13.086173057556152,0.76,0.32,1.18,1.43
13.08775019645691,0.88,0.9,1.16,1.71
13.096948146820068,0.89,1.49,1.13,2.07
13.106873035430908,0.85,2.01,1.19,2.48
13.1168851852417,0.76,2.41,1.37,2.87
13.136396169662476,0.6,2.76,1.63,3.26
13.13792610168457,0.33,2.93,1.84,3.47
13.14690613746643,0.06,2.84,1.96,3.45
13.156690120697021,-0.04,2.51,1.96,3.18
13.16693925857544,-0.02,2.0,1.96,2.8
13.18657112121582,0.01,1.54,1.76,2.33
13.188130140304565,-0.03,1.43,1.52,2.08
13.196784019470215,-0.06,1.76,1.71,2.45
13.207274198532104,-0.2,2.2,1.71,2.79
13.216775178909302,-0.43,2.45,1.05,2.69
13.236784219741821,-0.58,2.59,-0.05,2.65
13.238386154174805,-0.91,2.75,-0.76,2.99
13.2466881275177,-1.19,3.03,-0.65,3.31
13.25665020942688,-1.21,3.31,-0.56,3.56
13.266784191131592,-1.1,3.26,-1.06,3.6
13.287177085876465,-0.92,2.74,-1.89,3.45
13.288756132125854,-0.85,2.07,-2.36,3.25
13.296703338623047,-0.81,1.37,-2.09,2.62
13.306578159332275,-0.73,0.72,-1.62,1.91
13.316647052764893,-0.68,0.18,-1.34,1.51
13.336887121200562,-0.67,-0.19,-1.24,1.42
13.338415145874023,-0.81,-0.46,-1.27,1.57
13.346659183502197,-0.88,-0.63,-1.29,1.68
13.356581211090088,-0.87,-0.64,-1.32,1.7
13.366781234741211,-0.83,-0.61,-1.3,1.65
13.387325286865234,-0.79,-0.38,-1.15,1.44
13.38888931274414,-0.6,0.04,-0.71,0.93
13.396499156951904,-0.33,0.45,-0.14,0.57
13.406569004058838,-0.13,0.67,0.1,0.68
13.416465282440186,0.04,0.67,-0.08,0.67
13.437499046325684,0.13,0.39,-0.39,0.56
13.439096212387085,0.17,-0.07,-0.5,0.53
13.446459293365479,0.17,-0.64,-0.51,0.83
13.456465244293213,0.24,-1.32,-0.47,1.42
13.466614246368408,0.34,-2.08,-0.42,2.14
13.487663269042969,0.43,-2.76,-0.45,2.82
13.489172220230103,0.51,-3.28,-0.49,3.35
13.496392250061035,0.58,-3.67,-0.54,3.75
13.506555080413818,0.62,-3.92,-0.58,4.01
13.51640510559082,0.66,-4.05,-0.61,4.14
13.537665128707886,0.68,-4.06,-0.63,4.16
13.539159297943115,0.63,-3.97,-0.57,4.05
13.54634428024292,0.53,-3.8,-0.44,3.86
13.556539058685303,0.4,-3.55,-0.15,3.57
13.566462993621826,0.4,-3.18,0.07,3.2
13.58791208267212,0.35,-2.74,0.28,2.77
13.589442253112793,0.3,-2.28,0.44,2.34
13.596291065216064,0.18,-1.77,0.54,1.85
13.608193159103394,0.03,-1.23,0.58,1.36
13.616181135177612,-0.22,-0.75,0.5,0.92
13.638054132461548,-0.5,-0.34,0.7,0.92
13.638725280761719,-0.74,-0.05,0.79,1.08
13.646194219589233,-1.03,0.2,0.76,1.29
13.656176090240479,-1.2,0.49,1.01,1.64
13.666295051574707,-1.21,0.78,1.32,1.95
13.688138008117676,-1.05,1.1,1.53,2.15
13.689653158187866,-0.94,1.41,1.51,2.26
13.696088314056396,-0.83,1.64,1.37,2.29
13.70700216293335,-0.66,1.84,1.23,2.3
13.71615719795227,-0.52,2.01,1.22,2.4
13.738150119781494,-0.42,2.12,1.24,2.49
13.739667177200317,-0.39,2.17,1.22,2.51
13.746145248413086,-0.44,2.23,1.17,2.55
13.757147312164307,-0.49,2.36,1.16,2.67
13.766241073608398,-0.34,2.7,1.24,2.99
13.788326263427734,-0.1,3.17,1.13,3.36
13.789766311645508,0.03,3.53,0.56,3.57
13.796061038970947,0.13,3.69,-0.36,3.7
13.80734920501709,0.22,3.73,-1.07,3.88
13.816006183624268,0.22,3.51,-1.42,3.79
13.83870816230774,0.24,2.94,-1.73,3.41
13.840158224105835,0.32,2.14,-1.98,2.93
13.846004009246826,0.25,1.14,-2.09,2.39
13.85800313949585,0.3,0.17,-2.1,2.12
13.866089344024658,0.53,-0.56,-1.75,1.91
13.88850712776184,0.85,-0.89,-1.15,1.68
13.89003610610962,1.14,-0.84,-0.63,1.54
13.895966053009033,1.32,-0.43,-0.44,1.45
13.90885615348816,1.22,0.14,-0.49,1.32
13.91607117652893,0.98,0.72,-0.57,1.34
13.938732147216797,0.72,1.31,-0.44,1.55
13.940260171890259,0.48,1.78,-0.51,1.91
13.945886135101318,0.24,2.04,-0.59,2.13
13.9588942527771,-0.02,2.03,-0.62,2.12
13.965999126434326,-0.3,1.66,-0.6,1.79
13.988911151885986,-0.5,0.99,-0.59,1.25
13.99044919013977,-0.55,0.13,-0.44,0.71
13.995847225189209,-0.42,-0.81,-0.17,0.92
14.008654117584229,-0.26,-1.8,0.0,1.81
14.015890121459961,-0.1,-2.7,-0.02,2.7
14.039066314697266,0.03,-3.48,-0.2,3.48
14.040614128112793,0.05,-4.05,-0.46,4.07
14.045754194259644,0.04,-4.4,-0.67,4.45
14.05757212638855,0.05,-4.57,-0.74,4.62
14.065874099731445,0.05,-4.6,-0.7,4.65
14.089354991912842,0.01,-4.49,-0.52,4.52
14.090952157974243,-0.01,-4.3,-0.27,4.3
14.095725059509277,-0.01,-4.02,-0.02,4.02
14.109125137329102,0.08,-3.72,0.14,3.72
14.115732192993164,0.2,-3.36,0.17,3.37
14.139528274536133,0.32,-2.93,0.1,2.94
14.141071319580078,0.42,-2.51,0.12,2.54
14.14565134048462,0.49,-2.02,0.16,2.08
14.158299207687378,0.54,-1.5,0.2,1.6
14.165769100189209,0.54,-0.99,0.4,1.19
14.189687252044678,0.5,-0.5,0.71,1.0
14.191177129745483,0.51,-0.06,1.08,1.19
14.195605278015137,0.62,0.38,1.34,1.52
14.20832633972168,0.72,0.83,1.53,1.88
14.215601205825806,0.8,1.28,1.62,2.21
14.23967719078064,0.83,1.8,1.63,2.56
14.241265296936035,0.7,2.27,1.59,2.85
14.24551010131836,0.57,2.69,1.61,3.18
14.258791208267212,0.42,2.93,1.75,3.43
14.2658212184906,0.29,2.86,1.87,3.42
14.289923191070557,0.18,2.54,1.8,3.11
14.291475296020508,0.04,2.22,1.7,2.79
14.295570135116577,-0.19,2.25,1.68,2.81
14.30871319770813,-0.48,2.58,1.66,3.1
14.31551218032837,-0.64,2.99,1.33,3.33
14.339738130569458,-0.66,3.38,0.61,3.49
14.341275215148926,-0.68,3.74,0.27,3.81
14.345474243164062,-0.81,4.01,0.09,4.09
14.359515190124512,-1.02,4.01,-0.57,4.17
14.36555528640747,-1.28,3.67,-1.19,4.06
14.390027046203613,-1.36,3.09,-1.51,3.69
14.39146900177002,-1.31,2.33,-1.55,3.08
14.395410060882568,-1.25,1.49,-1.52,2.46
14.408799171447754,-1.18,0.66,-1.63,2.11
14.415319204330444,-1.17,0.01,-1.87,2.2
14.44010305404663,-1.18,-0.4,-1.99,2.34
14.441704273223877,-1.13,-0.58,-1.8,2.2
14.44531512260437,-0.97,-0.57,-1.42,1.81
14.455255031585693,-0.8,-0.45,-1.01,1.36
14.475017070770264,-0.76,-0.34,-0.73,1.1
14.476426124572754,-0.69,-0.18,-0.68,0.98
14.485266208648682,-0.43,0.06,-0.69,0.81
14.495266199111938,-0.14,0.29,-0.58,0.66
14.505269050598145,0.06,0.46,-0.31,0.55
14.525538206100464,0.14,0.51,-0.04,0.53
14.526986122131348,0.18,0.32,0.08,0.37
14.535262107849121,0.22,-0.11,0.05,0.25
14.545128107070923,0.26,-0.7,-0.07,0.75
14.555175304412842,0.35,-1.38,-0.21,1.43
14.575180053710938,0.46,-2.01,-0.35,2.09
14.576723098754883,0.48,-2.57,-0.47,2.65
14.585110187530518,0.48,-2.97,-0.57,3.06
14.59508228302002,0.46,-3.29,-0.6,3.37
14.605058193206787,0.47,-3.53,-0.54,3.6
14.624978065490723,0.51,-3.66,-0.46,3.72
14.626469135284424,0.52,-3.74,-0.35,3.79
14.63508129119873,0.52,-3.73,-0.32,3.77
14.645119190216064,0.42,-3.61,-0.23,3.64
14.655039310455322,0.37,-3.44,-0.22,3.46
14.674814224243164,0.26,-3.22,-0.15,3.23
14.675457000732422,0.22,-2.92,-0.07,2.92
14.685063123703003,0.24,-2.53,0.09,2.54
14.694996118545532,0.17,-2.13,0.46,2.18
14.705003261566162,-0.07,-1.75,0.83,1.93
14.724688053131104,-0.26,-1.36,1.03,1.72
14.726275205612183,-0.4,-1.0,1.09,1.53
14.734950065612793,-0.6,-0.71,1.06,1.4
14.745012283325195,-0.87,-0.39,1.05,1.41
14.75497817993164,-1.08,-0.03,1.19,1.6
14.775201320648193,-1.19,0.36,1.46,1.91
14.776741027832031,-1.24,0.79,1.59,2.16
14.784937143325806,-1.26,1.18,1.52,2.3
14.794764995574951,-1.23,1.52,1.43,2.42
14.804872035980225,-1.18,1.78,1.48,2.59
14.824982166290283,-1.04,1.93,1.58,2.7
14.826479196548462,-0.83,1.99,1.54,2.64
14.834893226623535,-0.69,2.01,1.55,2.63
14.844828128814697,-0.59,2.15,1.49,2.68
14.854791164398193,-0.51,2.55,1.43,2.96
14.875367164611816,-0.41,3.23,1.36,3.52
14.876891136169434,-0.26,4.06,1.06,4.2
14.884851217269897,-0.13,4.85,0.48,4.87
14.895061016082764,0.02,5.36,-0.23,5.36
14.904738187789917,0.21,5.44,-0.9,5.51
14.925594329833984,0.45,4.93,-1.54,5.18
14.927151203155518,0.62,3.88,-1.96,4.39
14.934771060943604,0.45,2.63,-2.03,3.35
14.944743156433105,0.3,1.26,-1.88,2.28
14.954647064208984,0.48,0.01,-1.7,1.76
14.97551417350769,0.76,-0.96,-1.46,1.9
14.977189064025879,1.05,-1.49,-1.34,2.26
14.984670162200928,1.37,-1.46,-1.27,2.37
14.994656085968018,1.47,-0.97,-1.1,2.07
15.004627227783203,1.27,-0.41,-0.88,1.59
15.025888204574585,0.94,0.11,-0.74,1.2
15.027438163757324,0.6,0.57,-0.66,1.05
15.034632205963135,0.35,0.99,-0.53,1.17
15.044830322265625,0.18,1.39,-0.38,1.45
15.054532051086426,0.05,1.62,-0.29,1.64
15.075566291809082,-0.09,1.57,-0.2,1.58
15.077088117599487,-0.22,1.15,-0.08,1.17
15.084753036499023,-0.3,0.42,-0.01,0.51
15.09483528137207,-0.26,-0.6,-0.05,0.65
15.104603290557861,-0.19,-1.74,-0.14,1.75
15.125566005706787,0.03,-2.73,-0.31,2.74
15.127121210098267,0.23,-3.55,-0.47,3.58
15.134486198425293,0.28,-4.16,-0.59,4.21
15.144942283630371,0.23,-4.51,-0.64,4.56
15.154435157775879,0.08,-4.7,-0.67,4.74
15.175661087036133,-0.05,-4.79,-0.57,4.82
15.177201271057129,-0.13,-4.72,-0.48,4.74
15.184400081634521,-0.18,-4.52,-0.39,4.54
15.194425106048584,-0.1,-4.25,-0.28,4.26
15.204371213912964,0.03,-3.8,-0.2,3.8
15.2259840965271,0.15,-3.24,-0.12,3.24
15.22753119468689,0.26,-2.67,-0.08,2.68
15.23435115814209,0.34,-2.17,-0.07,2.19
15.24435019493103,0.39,-1.66,-0.03,1.7
15.25429916381836,0.38,-1.18,0.12,1.24
15.276610136032104,0.32,-0.76,0.43,0.93
15.2782142162323,0.33,-0.35,0.79,0.92
15.28429913520813,0.48,0.15,1.06,1.17
15.294405221939087,0.64,0.67,1.27,1.57
15.304277181625366,0.78,1.19,1.29,1.92
15.326427221298218,0.79,1.67,1.19,2.19
15.32797122001648,0.63,2.08,1.14,2.45
15.334245204925537,0.42,2.41,1.26,2.75
15.345255136489868,0.18,2.65,1.45,3.02
15.354193210601807,0.05,2.77,1.66,3.22
15.376603126525879,0.02,2.72,1.88,3.3
15.378159999847412,0.04,2.59,1.99,3.26
15.38415813446045,0.11,2.44,1.83,3.05
15.394604206085205,0.14,2.57,1.61,3.03
15.404098987579346,-0.1,3.0,1.5,3.35
15.426813125610352,-0.54,3.56,1.32,3.83
15.428383111953735,-0.89,4.02,0.51,4.14
15.4340341091156,-1.02,4.26,-0.38,4.39
15.44572401046753,-1.08,4.25,-0.9,4.47
15.454211235046387,-1.16,3.84,-1.01,4.13
15.476922035217285,-1.21,2.99,-1.11,3.41
15.47852611541748,-1.12,1.96,-1.37,2.64
15.484116077423096,-0.89,0.88,-1.7,2.11
15.494829177856445,-0.75,-0.02,-1.94,2.08
15.504057168960571,-0.78,-0.6,-1.96,2.19
15.52688217163086,-0.88,-0.82,-1.84,2.19
15.528194189071655,-0.98,-0.74,-1.63,2.04
15.534001111984253,-1.07,-0.5,-1.34,1.78
15.544705152511597,-1.06,-0.18,-1.14,1.56
15.553933143615723,-0.99,0.19,-1.04,1.44
15.577300071716309,-0.77,0.63,-0.91,1.34
15.578893184661865,-0.46,1.01,-0.65,1.28
15.583984136581421,-0.19,1.28,-0.3,1.32
15.595208168029785,0.04,1.38,-0.04,1.38
15.603931188583374,0.24,1.19,0.0,1.21
15.62726616859436,0.37,0.71,-0.12,0.8
15.62882113456726,0.45,-0.02,-0.3,0.54
15.63385009765625,0.5,-0.83,-0.49,1.08
15.645249128341675,0.52,-1.61,-0.64,1.8
15.653916120529175,0.46,-2.33,-0.74,2.48
15.67736530303955,0.41,-2.99,-0.77,3.11
15.678879261016846,0.39,-3.54,-0.81,3.65
15.683836221694946,0.37,-3.92,-0.77,4.01
15.695440292358398,0.42,-4.17,-0.67,4.24
15.703811168670654,0.48,-4.24,-0.57,4.3
15.72756314277649,0.51,-4.19,-0.44,4.24
15.729157209396362,0.49,-4.03,-0.37,4.07
15.733756065368652,0.45,-3.78,-0.3,3.81
15.746062278747559,0.42,-3.51,-0.2,3.54
15.753718137741089,0.42,-3.18,-0.15,3.21
15.777592182159424,0.36,-2.85,-0.02,2.87
15.779181003570557,0.24,-2.47,0.16,2.48
15.783666133880615,0.09,-2.11,0.4,2.14
15.796041011810303,-0.1,-1.82,0.69,1.94
15.803696155548096,-0.25,-1.51,0.83,1.74
15.827742099761963,-0.43,-1.17,0.88,1.52
15.829349040985107,-0.64,-0.8,0.77,1.28
15.833644151687622,-0.85,-0.38,0.89,1.28
15.846616268157959,-0.91,0.11,1.16,1.47
15.85367727279663,-1.01,0.6,1.21,1.68
15.877871990203857,-1.13,1.1,1.3,2.04
15.879384994506836,-1.22,1.6,1.33,2.41
15.883617162704468,-1.18,1.96,1.32,2.64
15.89576005935669,-1.0,2.17,1.38,2.75
15.903622150421143,-0.84,2.18,1.34,2.69
15.927640199661255,-0.63,2.11,1.28,2.54
15.929205179214478,-0.49,2.04,1.32,2.47
15.933547019958496,-0.5,1.98,1.36,2.45
15.946181297302246,-0.63,2.05,1.29,2.5
15.953591108322144,-0.7,2.42,1.26,2.81
15.978088140487671,-0.56,3.11,1.38,3.44
15.979660034179688,-0.41,3.83,1.08,4.0
15.983376026153564,-0.39,4.31,0.25,4.33
15.997227191925049,-0.34,4.61,-0.6,4.66
16.004308223724365,-0.17,4.59,-1.15,4.73
16.027233123779297,0.14,4.07,-1.58,4.36
16.02868127822876,0.35,3.2,-1.8,3.68
16.029466152191162,0.3,2.14,-1.75,2.78
16.039578199386597,0.31,1.05,-1.76,2.07
16.049638271331787,0.52,-0.02,-1.73,1.8
16.0595703125,0.83,-0.88,-1.47,1.9
16.077351093292236,1.16,-1.34,-1.12,2.09
16.079487323760986,1.48,-1.35,-0.81,2.16
16.08962321281433,1.64,-1.05,-0.78,2.09
16.099509239196777,1.53,-0.51,-0.81,1.8
16.10962724685669,1.27,0.13,-0.86,1.53
16.128077030181885,0.92,0.75,-0.95,1.52
16.129573106765747,0.61,1.29,-0.67,1.57
16.13948106765747,0.4,1.62,-0.56,1.76
16.149445056915283,0.17,1.62,-0.72,1.78
16.159359216690063,-0.06,1.32,-0.84,1.56
16.177242279052734,-0.3,0.73,-0.77,1.1
16.179330110549927,-0.4,-0.07,-0.6,0.72
16.189279079437256,-0.31,-1.0,-0.5,1.16
16.199429035186768,-0.16,-1.86,-0.45,1.92
16.209320068359375,0.01,-2.65,-0.42,2.68
16.228318214416504,0.11,-3.32,-0.49,3.35
16.229753017425537,0.19,-3.82,-0.68,3.88
16.23941707611084,0.2,-4.16,-0.78,4.23
16.24941110610962,0.15,-4.35,-0.79,4.42
16.25931215286255,0.1,-4.4,-0.73,4.46
16.27816414833069,0.08,-4.34,-0.63,4.38
16.27977418899536,0.04,-4.18,-0.52,4.21
16.28930902481079,0.02,-3.96,-0.38,3.97
16.299386024475098,0.05,-3.68,-0.18,3.68
16.30921721458435,0.09,-3.38,-0.02,3.38
16.32831120491028,0.18,-3.05,-0.01,3.05
16.32985520362854,0.29,-2.72,-0.1,2.73
16.339457035064697,0.38,-2.36,-0.07,2.39
16.349247217178345,0.47,-1.89,0.19,1.95
16.359264135360718,0.51,-1.3,0.56,1.5
16.37814426422119,0.53,-0.66,1.01,1.31
16.379616260528564,0.56,-0.02,1.36,1.47
16.38916015625,0.63,0.63,1.47,1.71
16.39916706085205,0.65,1.23,1.46,2.01
16.409173011779785,0.68,1.77,1.48,2.4
16.4287691116333,0.7,2.23,1.53,2.79
16.432897090911865,0.64,2.61,1.61,3.13
16.442899227142334,0.55,2.85,1.68,3.35
16.452916145324707,0.46,2.92,1.8,3.46
16.479379177093506,0.41,2.83,1.93,3.44
16.480877161026,0.4,2.58,1.97,3.27
16.482808113098145,0.42,2.25,1.89,2.96
16.492902278900146,0.29,2.15,1.53,2.65
16.50292420387268,-0.01,2.41,1.26,2.71
16.529743194580078,-0.38,2.9,1.16,3.14
16.53128433227539,-0.81,3.44,0.86,3.63
16.532801151275635,-1.07,3.83,0.02,3.97
16.542842149734497,-1.17,4.08,-0.48,4.27
16.552857160568237,-1.11,4.28,-0.36,4.43
16.57984733581543,-0.98,4.02,-0.7,4.19
16.581363201141357,-0.87,3.24,-1.33,3.6
16.582622051239014,-0.85,2.24,-1.63,2.89
16.592671155929565,-0.85,1.12,-1.69,2.19
16.602951049804688,-0.85,0.12,-1.72,1.92
16.629756212234497,-0.87,-0.54,-1.82,2.08
16.63132119178772,-0.98,-0.84,-1.85,2.25
16.63254714012146,-1.1,-0.77,-1.59,2.08
16.64265203475952,-1.19,-0.43,-1.15,1.7
16.652690172195435,-1.17,-0.08,-0.85,1.44
16.679925203323364,-1.04,0.25,-0.75,1.3
16.681410312652588,-0.77,0.58,-0.73,1.2
16.68256115913391,-0.3,0.87,-0.65,1.12
16.69256615638733,0.17,1.13,-0.39,1.2
16.702710151672363,0.46,1.23,-0.17,1.32
16.729838132858276,0.6,1.0,-0.07,1.16
16.73137331008911,0.65,0.47,-0.11,0.8
16.732611179351807,0.62,-0.28,-0.23,0.71
16.742623329162598,0.61,-1.14,-0.35,1.33
16.75252914428711,0.57,-1.96,-0.45,2.09
16.780094146728516,0.46,-2.67,-0.55,2.76
16.781678199768066,0.35,-3.21,-0.69,3.3
16.782422065734863,0.3,-3.61,-0.79,3.7
16.792489051818848,0.31,-3.87,-0.79,3.96
16.802589178085327,0.35,-3.98,-0.75,4.06
16.830313205718994,0.39,-3.93,-0.62,3.99
16.831836223602295,0.41,-3.86,-0.48,3.91
16.832436084747314,0.41,-3.73,-0.44,3.77
16.842456340789795,0.37,-3.53,-0.39,3.57
16.852283000946045,0.29,-3.26,-0.18,3.27
16.88031816482544,0.25,-2.97,-0.13,2.98
16.881874084472656,0.19,-2.68,0.05,2.68
16.882509231567383,0.15,-2.35,0.25,2.36
16.892378330230713,0.1,-2.03,0.3,2.05
16.90239429473877,0.05,-1.7,0.44,1.75
16.93048334121704,-0.07,-1.31,0.67,1.47
16.932101249694824,-0.26,-0.94,0.87,1.3
16.932714223861694,-0.45,-0.58,0.89,1.15
16.942397117614746,-0.68,-0.26,0.82,1.09
16.952378273010254,-0.95,0.1,0.84,1.27
16.980513095855713,-1.18,0.52,1.02,1.64
16.98211431503296,-1.34,0.94,1.24,2.05
16.982752323150635,-1.33,1.35,1.29,2.29
16.99227809906006,-1.26,1.71,1.26,2.46
17.002185344696045,-1.06,1.93,1.3,2.55
17.030848026275635,-0.78,2.07,1.33,2.58
17.03244924545288,-0.53,2.08,1.29,2.5
17.033050060272217,-0.4,2.03,1.26,2.42
17.042198181152344,-0.42,1.96,1.37,2.42
17.05224323272705,-0.53,2.05,1.43,2.55
17.080976009368896,-0.62,2.45,1.37,2.87
17.08235502243042,-0.5,3.16,1.3,3.45
17.082953214645386,-0.32,3.94,1.03,4.08
17.092228174209595,-0.24,4.57,0.4,4.59
17.102174282073975,-0.14,4.88,-0.41,4.89
17.11209511756897,0.02,4.96,-1.0,5.05
17.131237030029297,0.26,4.63,-1.27,4.8
17.132791996002197,0.48,3.78,-1.35,4.04
17.142173290252686,0.37,2.68,-1.38,3.03
17.152096271514893,0.3,1.45,-1.43,2.05
17.162304162979126,0.46,0.29,-1.44,1.53
17.18178129196167,0.73,-0.57,-1.26,1.56
17.183288097381592,1.02,-1.08,-0.9,1.73
17.192111015319824,1.32,-1.13,-0.58,1.83
17.20215916633606,1.51,-0.8,-0.46,1.76
17.212053298950195,1.46,-0.35,-0.4,1.55
17.231338024139404,1.2,0.06,-0.42,1.27
17.23287010192871,0.79,0.42,-0.65,1.1
17.242016315460205,0.47,0.69,-0.77,1.13
17.25194025039673,0.21,0.85,-0.63,1.07
17.26210927963257,-0.03,0.9,-0.47,1.01
17.281662225723267,-0.2,0.68,-0.48,0.85
17.28339910507202,-0.25,0.15,-0.5,0.57
17.291929244995117,-0.28,-0.61,-0.46,0.81
17.30198621749878,-0.11,-1.51,-0.4,1.56
17.311820030212402,0.16,-2.38,-0.5,2.43
17.331459045410156,0.26,-3.16,-0.6,3.22
17.33297824859619,0.26,-3.77,-0.55,3.81
17.34202527999878,0.21,-4.14,-0.47,4.17
17.352265119552612,0.12,-4.33,-0.4,4.35
17.36185312271118,0.02,-4.34,-0.35,4.35
17.381632328033447,-0.1,-4.22,-0.37,4.23
17.38318109512329,-0.09,-4.0,-0.37,4.01
17.391807079315186,-0.07,-3.69,-0.31,3.7
17.40185022354126,-0.05,-3.29,-0.22,3.29
17.411899089813232,-0.01,-2.91,-0.21,2.91
17.431847095489502,0.1,-2.53,-0.18,2.53
17.433414220809937,0.21,-2.16,-0.13,2.17
17.44165325164795,0.33,-1.81,-0.02,1.83
17.451662063598633,0.43,-1.45,0.15,1.51
17.46166706085205,0.54,-1.08,0.38,1.26
17.482332229614258,0.67,-0.67,0.73,1.19
17.483736991882324,0.8,-0.17,1.04,1.32
17.491744995117188,0.95,0.42,1.19,1.57
17.50166416168213,1.01,1.01,1.26,1.9
17.51164221763611,0.97,1.54,1.18,2.16
17.533493041992188,0.83,2.07,1.02,2.45
17.535446166992188,0.56,2.48,1.1,2.77
17.541688203811646,0.28,2.79,1.33,3.1
17.55168318748474,0.08,2.92,1.64,3.34
17.561829090118408,0.0,2.84,1.8,3.36
17.581995010375977,0.0,2.59,1.77,3.13
17.58341932296753,-0.02,2.29,1.54,2.75
17.59151816368103,-0.17,2.26,1.16,2.54
17.60157012939453,-0.34,2.64,1.04,2.85
17.61159920692444,-0.54,3.2,1.22,3.46
17.63213014602661,-0.86,3.7,1.22,3.98
17.633368015289307,-0.98,3.92,0.51,4.07
17.641523122787476,-1.14,3.92,-0.14,4.08
17.651519298553467,-1.25,3.76,-0.33,3.97
17.6614191532135,-1.17,3.13,-0.69,3.41
17.682682037353516,-1.04,2.17,-1.26,2.71
17.6841561794281,-0.93,1.13,-1.59,2.16
17.691468238830566,-0.86,0.19,-1.62,1.84
17.70163917541504,-0.86,-0.52,-1.56,1.85
17.71129012107849,-0.84,-0.97,-1.58,2.03
17.732596158981323,-0.84,-1.08,-1.56,2.07
17.734024047851562,-0.97,-0.93,-1.43,1.96
17.74138116836548,-1.08,-0.71,-1.24,1.79
17.75129222869873,-1.1,-0.47,-1.03,1.57
17.76146411895752,-0.96,-0.14,-0.93,1.34
17.78285813331604,-0.74,0.29,-0.72,1.07
17.78425621986389,-0.45,0.69,-0.4,0.91
17.791405200958252,-0.15,0.97,-0.08,0.98
17.80124807357788,0.03,1.05,0.02,1.05
17.811232089996338,0.16,0.84,-0.03,0.85
17.83271312713623,0.29,0.39,-0.2,0.52
17.8342502117157,0.39,-0.25,-0.45,0.64
17.84129524230957,0.47,-1.09,-0.6,1.33
17.852619171142578,0.62,-1.9,-0.72,2.12
17.86140203475952,0.62,-2.53,-0.78,2.71
17.883084297180176,0.56,-3.02,-0.81,3.17
17.884586334228516,0.59,-3.39,-0.82,3.53
17.8911612033844,0.62,-3.63,-0.77,3.76
17.901519298553467,0.66,-3.7,-0.73,3.82
17.911091327667236,0.65,-3.66,-0.62,3.76
17.932836055755615,0.59,-3.54,-0.49,3.62
17.934425115585327,0.51,-3.38,-0.32,3.43
17.941107273101807,0.46,-3.22,-0.18,3.25
17.954180240631104,0.43,-3.04,-0.03,3.07
17.961242198944092,0.37,-2.83,0.16,2.85
17.98360300064087,0.27,-2.59,0.4,2.63
17.985096216201782,0.15,-2.31,0.41,2.35
17.99101734161377,0.02,-2.0,0.46,2.05
18.002324104309082,-0.16,-1.67,0.61,1.78
18.01099920272827,-0.37,-1.35,0.52,1.49
18.033504009246826,-0.64,-1.0,0.51,1.29
18.035004138946533,-0.93,-0.66,0.62,1.29
18.04104232788086,-1.16,-0.26,0.83,1.44
18.052703142166138,-1.35,0.22,1.19,1.81
18.061111211776733,-1.46,0.71,1.49,2.2
18.0837721824646,-1.51,1.12,1.49,2.39
18.085241317749023,-1.45,1.5,1.29,2.45
18.090883255004883,-1.28,1.88,1.11,2.53
18.102720260620117,-1.07,2.16,1.08,2.64
18.110942125320435,-0.9,2.33,1.13,2.74
18.133377075195312,-0.82,2.41,1.14,2.78
18.134891033172607,-0.84,2.44,1.1,2.8
18.140953063964844,-0.85,2.65,1.27,3.05
18.152844190597534,-0.8,3.12,1.71,3.64
18.161104202270508,-0.6,3.78,1.93,4.28
18.183587074279785,-0.43,4.32,1.55,4.6
18.185140132904053,-0.36,4.64,0.65,4.69
18.190768241882324,-0.25,4.73,-0.3,4.74
18.202128171920776,-0.06,4.37,-1.2,4.53
18.210745334625244,0.2,3.42,-1.98,3.95
18.234191179275513,0.45,2.22,-2.45,3.33
18.23571014404297,0.5,1.04,-2.57,2.81
18.24082326889038,0.57,-0.04,-2.43,2.49
18.2533540725708,0.81,-0.91,-2.0,2.34
18.26093316078186,1.24,-1.41,-1.36,2.31
18.28437328338623,1.65,-1.5,-0.85,2.38
18.28590726852417,1.89,-1.23,-0.75,2.37
18.290677070617676,1.73,-0.69,-0.72,1.99
18.303205013275146,1.41,-0.03,-0.68,1.56
18.310651302337646,1.06,0.56,-0.77,1.42
18.33426523208618,0.74,1.18,-0.85,1.63
18.334867000579834,0.4,1.74,-0.67,1.9
18.34068202972412,0.1,2.11,-0.37,2.14
18.35048818588257,-0.08,2.02,-0.33,2.04
18.360839128494263,-0.16,1.41,-0.34,1.45
18.384485244750977,-0.17,0.56,-0.27,0.64
18.386030197143555,-0.03,-0.38,-0.18,0.42
18.390628337860107,0.17,-1.35,-0.16,1.37
18.403303146362305,0.35,-2.26,-0.22,2.29
18.410543203353882,0.42,-3.03,-0.35,3.07
18.434540271759033,0.44,-3.59,-0.48,3.64
18.43597912788391,0.44,-3.98,-0.61,4.05
18.44047713279724,0.43,-4.24,-0.66,4.31
18.454105138778687,0.35,-4.31,-0.58,4.36
18.46068000793457,0.27,-4.29,-0.47,4.32
18.484838008880615,0.17,-4.19,-0.32,4.2
18.48636817932129,0.05,-4.02,-0.21,4.02
18.49052906036377,0.02,-3.79,-0.09,3.79
18.503636121749878,0.08,-3.55,0.03,3.55
18.510504245758057,0.16,-3.29,0.07,3.29
18.534746170043945,0.26,-3.01,-0.02,3.02
18.53627634048462,0.37,-2.66,-0.13,2.68
18.540285110473633,0.47,-2.17,0.01,2.22
18.55323600769043,0.52,-1.52,0.43,1.66
18.560585021972656,0.5,-0.78,0.93,1.31
18.58530020713806,0.53,-0.07,1.24,1.35
18.586828231811523,0.56,0.58,1.35,1.57
18.590474128723145,0.62,1.2,1.33,1.89
18.603875160217285,0.63,1.74,1.27,2.24
18.610595226287842,0.67,2.21,1.22,2.61
18.634947299957275,0.71,2.58,1.35,2.99
18.636537075042725,0.67,2.83,1.65,3.34
18.640257120132446,0.6,2.93,1.88,3.53
18.653968334197998,0.52,2.85,1.96,3.49
18.660438060760498,0.42,2.58,1.84,3.19
18.685310125350952,0.34,2.25,1.75,2.87
18.68684220314026,0.25,2.1,1.39,2.53
18.69016933441162,-0.03,2.35,0.87,2.5
18.705636024475098,-0.46,2.9,0.72,3.02
18.710228204727173,-0.81,3.54,0.65,3.68
18.735416173934937,-0.85,4.05,0.23,4.14
18.736915111541748,-0.84,4.32,-0.22,4.4
18.740317344665527,-0.89,4.24,-0.64,4.37
18.753790140151978,-0.96,3.66,-1.28,3.99
18.760316133499146,-0.95,2.79,-1.82,3.46
18.78534507751465,-0.79,1.78,-1.89,2.71
18.786869049072266,-0.69,0.75,-1.7,1.98
18.79013729095459,-0.75,-0.11,-1.74,1.89
18.800076007843018,-0.82,-0.67,-1.99,2.25
18.821149110794067,-0.94,-0.85,-2.08,2.43
18.822590112686157,-1.1,-0.72,-1.69,2.14
18.83012318611145,-1.2,-0.34,-1.21,1.73
18.84009599685669,-1.18,0.06,-1.01,1.55
18.85002899169922,-1.02,0.43,-1.03,1.51
18.870580196380615,-0.72,0.8,-1.04,1.49
18.87214231491089,-0.4,1.12,-0.96,1.52
18.880035161972046,-0.12,1.32,-0.71,1.5
18.889957189559937,0.08,1.35,-0.38,1.4
18.90001106262207,0.23,1.14,-0.15,1.17
18.920586109161377,0.34,0.66,-0.08,0.74
18.921967029571533,0.39,-0.02,-0.2,0.43
18.930002212524414,0.52,-0.76,-0.4,1.0
18.939974308013916,0.67,-1.48,-0.6,1.73
18.949894189834595,0.71,-2.12,-0.74,2.35
18.97075915336609,0.62,-2.62,-0.87,2.82
18.972345113754272,0.52,-3.03,-0.94,3.21
18.97991919517517,0.5,-3.28,-0.78,3.4
18.98986005783081,0.5,-3.47,-0.69,3.57
18.99989914894104,0.52,-3.57,-0.48,3.63
19.020215034484863,0.54,-3.59,-0.29,3.64
19.02167320251465,0.52,-3.52,-0.27,3.56
19.029811143875122,0.42,-3.38,-0.27,3.41
19.039717197418213,0.35,-3.22,-0.21,3.24
19.049856185913086,0.31,-3.01,-0.15,3.02
19.070341110229492,0.25,-2.82,-0.02,2.83
19.071808338165283,0.21,-2.59,0.17,2.6
19.079829216003418,0.11,-2.31,0.35,2.33
19.089745044708252,0.04,-2.0,0.48,2.05
19.099770069122314,-0.08,-1.64,0.5,1.71
19.120317220687866,-0.27,-1.32,0.57,1.46
19.12178325653076,-0.45,-1.01,0.71,1.31
19.129786014556885,-0.64,-0.66,0.81,1.22
19.139766216278076,-0.89,-0.24,0.87,1.26
19.149675130844116,-1.13,0.17,0.95,1.48
19.170679092407227,-1.23,0.62,1.08,1.75
19.172182083129883,-1.24,1.11,1.22,2.06
19.17966914176941,-1.21,1.46,1.3,2.29
19.18947410583496,-1.11,1.71,1.3,2.41
19.199542999267578,-0.93,1.84,1.26,2.41
19.220243215560913,-0.75,1.88,1.22,2.36
19.22174310684204,-0.64,1.89,1.24,2.34
19.229660987854004,-0.53,1.9,1.36,2.39
19.23948311805725,-0.58,1.89,1.5,2.48
19.249593257904053,-0.66,2.03,1.37,2.53
19.27029323577881,-0.6,2.43,1.15,2.75
19.271812200546265,-0.37,3.04,0.95,3.2
19.279551029205322,-0.25,3.64,0.67,3.7
19.289515018463135,-0.2,4.12,0.2,4.12
19.299525260925293,-0.13,4.49,-0.19,4.49
19.320499181747437,-0.03,4.55,-0.39,4.56
19.321994304656982,0.13,4.01,-0.73,4.07
19.32951307296753,0.18,2.99,-1.21,3.23
19.33938503265381,0.0,1.74,-1.47,2.27
19.3493332862854,0.1,0.47,-1.53,1.6
19.37063717842102,0.42,-0.68,-1.4,1.61
19.372140169143677,0.72,-1.5,-1.04,1.96
19.37942123413086,1.13,-1.84,-0.85,2.32
19.38929510116577,1.44,-1.68,-0.86,2.37
19.399396181106567,1.42,-1.16,-0.66,1.94
19.420526027679443,1.2,-0.55,-0.42,1.38
19.421821117401123,0.83,0.08,-0.33,0.89
19.42934513092041,0.47,0.75,-0.41,0.97
19.439208030700684,0.23,1.38,-0.45,1.46
19.449275016784668,0.08,1.84,-0.54,1.91
19.470874309539795,-0.03,2.07,-0.61,2.15
19.47246503829956,-0.09,1.84,-0.53,1.91
19.479401111602783,-0.16,1.21,-0.39,1.28
19.489259243011475,-0.12,0.28,-0.35,0.46
19.499256134033203,0.03,-0.79,-0.38,0.87
19.52088212966919,0.17,-1.8,-0.43,1.85
19.52236819267273,0.29,-2.67,-0.43,2.71
19.52926731109619,0.38,-3.34,-0.45,3.39
19.53919816017151,0.38,-3.86,-0.47,3.9
19.549174308776855,0.29,-4.17,-0.46,4.2
19.570757150650024,0.21,-4.33,-0.41,4.35
19.572288036346436,0.11,-4.33,-0.35,4.34
19.579193115234375,0.0,-4.17,-0.26,4.17
19.589495182037354,-0.08,-3.91,-0.18,3.91
19.59916925430298,-0.06,-3.53,-0.09,3.53
19.62095618247986,0.03,-3.06,0.02,3.06
19.622438192367554,0.14,-2.55,0.08,2.55
19.629179000854492,0.28,-2.1,0.06,2.11
19.640080213546753,0.43,-1.75,0.06,1.8
19.649078130722046,0.58,-1.42,0.1,1.53
19.670968055725098,0.72,-1.08,0.22,1.31
19.6724591255188,0.75,-0.77,0.47,1.17
19.679160118103027,0.83,-0.38,0.93,1.3
19.691975116729736,0.92,0.11,1.2,1.51
19.699053287506104,1.04,0.61,1.32,1.78
19.721038341522217,1.06,1.09,1.2,1.93
19.722524166107178,0.94,1.54,1.09,2.1
19.72895622253418,0.78,1.98,1.09,2.39
19.740578174591064,0.57,2.33,1.23,2.69
19.74895429611206,0.31,2.52,1.4,2.89
19.77132821083069,0.15,2.45,1.5,2.87
19.7728431224823,0.09,2.14,1.49,2.6
19.77891206741333,0.06,1.87,1.31,2.28
19.790603160858154,-0.03,2.0,1.24,2.35
19.798925161361694,-0.24,2.46,1.26,2.77
19.821489334106445,-0.45,3.13,1.44,3.47
19.82298707962036,-0.57,3.88,1.19,4.09
19.828939199447632,-0.74,4.6,0.58,4.69
19.839877128601074,-1.04,5.18,0.36,5.29
19.848856210708618,-1.27,5.43,0.22,5.58
19.871779203414917,-1.35,4.9,-0.43,5.1
19.873308181762695,-1.29,3.81,-1.13,4.17
19.878817081451416,-1.18,2.57,-1.34,3.12
19.890089988708496,-0.96,1.26,-1.27,2.03
19.89887523651123,-0.74,-0.03,-1.29,1.48
19.92188024520874,-0.56,-1.13,-1.5,1.95
19.923384189605713,-0.52,-1.81,-1.77,2.58
19.9287531375885,-0.65,-1.99,-1.86,2.8
19.93983221054077,-0.79,-1.87,-1.73,2.66
19.948686122894287,-0.85,-1.59,-1.54,2.37
19.97201919555664,-0.81,-1.23,-1.4,2.03
19.973560333251953,-0.68,-0.74,-1.32,1.65
19.97869610786438,-0.46,-0.17,-1.03,1.14
19.990243196487427,-0.21,0.27,-0.56,0.65
19.998757123947144,0.03,0.56,-0.2,0.59
20.021092176437378,0.18,0.59,-0.14,0.63
20.022502183914185,0.21,0.38,-0.27,0.51
20.024760246276855,0.22,-0.09,-0.29,0.37
20.03482413291931,0.27,-0.75,-0.19,0.81
20.04479217529297,0.41,-1.52,-0.12,1.57
20.071242332458496,0.48,-2.23,-0.27,2.29
20.072713136672974,0.38,-2.84,-0.57,2.92
20.074915170669556,0.38,-3.4,-0.61,3.47
20.084890127182007,0.47,-3.83,-0.67,3.91
20.09487819671631,0.56,-4.04,-0.71,4.13
20.12144708633423,0.59,-4.09,-0.55,4.16
20.122828006744385,0.53,-3.99,-0.36,4.04
20.124675273895264,0.45,-3.73,-0.16,3.76
20.13485813140869,0.37,-3.38,0.08,3.4
20.144719123840332,0.31,-2.96,0.22,2.98
20.171345233917236,0.26,-2.53,0.26,2.55
20.17269229888916,0.16,-2.1,0.19,2.11
20.174596309661865,0.07,-1.6,0.17,1.61
20.184686183929443,-0.09,-1.12,0.25,1.15
20.19471502304077,-0.3,-0.73,0.37,0.87
20.22166109085083,-0.61,-0.48,0.49,0.91
20.223042011260986,-0.91,-0.33,0.57,1.12
20.224626064300537,-1.15,-0.22,0.71,1.36
20.23481822013855,-1.22,-0.02,0.98,1.56
20.244668006896973,-1.26,0.34,1.2,1.77
20.271700143814087,-1.3,0.76,1.29,1.98
20.273130178451538,-1.31,1.15,1.19,2.11
20.274566173553467,-1.23,1.52,1.0,2.19
20.284632205963135,-1.11,1.81,0.97,2.33
20.294556140899658,-0.99,1.96,1.11,2.46
20.321957111358643,-0.86,1.96,1.17,2.43
20.32328224182129,-0.7,1.89,1.18,2.33
20.324564218521118,-0.54,1.82,1.19,2.24
20.334586143493652,-0.49,1.93,1.22,2.33
20.34450626373291,-0.48,2.39,1.47,2.84
20.371939182281494,-0.4,3.1,1.78,3.59
20.37343120574951,-0.33,3.83,1.68,4.19
20.374378204345703,-0.27,4.42,1.12,4.56
20.38447618484497,-0.15,4.8,0.16,4.8
20.39447522163391,-0.02,4.8,-0.67,4.84
20.40442705154419,0.19,4.15,-1.18,4.31
20.424403190612793,0.35,3.1,-1.49,3.45
20.426712036132812,0.33,1.88,-1.57,2.47
20.436889171600342,0.36,0.59,-1.57,1.71
20.44709610939026,0.6,-0.55,-1.46,1.67
20.473042011260986,0.91,-1.36,-1.22,2.04
20.47459125518799,1.22,-1.84,-1.02,2.43
20.47688913345337,1.44,-1.93,-0.95,2.58
20.486895084381104,1.49,-1.66,-0.89,2.4
20.4968101978302,1.34,-1.21,-0.83,1.98
20.523292064666748,1.07,-0.7,-0.77,1.49
20.524843215942383,0.73,-0.15,-0.78,1.07
20.52668523788452,0.41,0.39,-0.76,0.94
20.536697149276733,0.14,0.86,-0.53,1.01
20.546938180923462,-0.02,1.18,-0.28,1.21
20.57305121421814,-0.09,1.18,-0.28,1.21
20.574072122573853,-0.18,0.78,-0.43,0.9
20.57674217224121,-0.2,0.17,-0.43,0.5
20.586730003356934,-0.13,-0.57,-0.35,0.68
20.596835136413574,0.01,-1.35,-0.25,1.37
20.623698234558105,0.17,-2.12,-0.28,2.14
20.62503433227539,0.26,-2.79,-0.44,2.83
20.626573085784912,0.25,-3.29,-0.57,3.34
20.636718273162842,0.22,-3.63,-0.54,3.67
20.646772146224976,0.14,-3.81,-0.49,3.84
20.673319339752197,0.04,-3.85,-0.49,3.88
20.674573183059692,-0.08,-3.77,-0.47,3.8
20.676767110824585,-0.12,-3.55,-0.45,3.58
20.686679124832153,-0.07,-3.22,-0.4,3.24
20.696732997894287,-0.03,-2.84,-0.26,2.85
20.723647117614746,0.0,-2.39,-0.1,2.39
20.724980115890503,0.13,-1.99,0.07,1.99
20.726622104644775,0.31,-1.64,0.24,1.68
20.736600160598755,0.45,-1.33,0.21,1.41
20.74661421775818,0.5,-1.03,0.29,1.18
20.77397108078003,0.57,-0.71,0.56,1.06
20.775517225265503,0.62,-0.34,0.67,0.97
20.776305198669434,0.57,0.1,0.75,0.94
20.78638505935669,0.46,0.55,0.87,1.12
20.796343326568604,0.37,0.93,0.92,1.35
20.82393503189087,0.39,1.23,0.93,1.59
20.825465202331543,0.38,1.48,0.97,1.8
20.826516151428223,0.37,1.73,1.15,2.11
20.836324214935303,0.39,1.96,1.51,2.5
20.846269130706787,0.43,2.19,1.86,2.9
20.874152183532715,0.4,2.35,2.04,3.13
20.875720024108887,0.35,2.42,1.98,3.14
20.876301288604736,0.26,2.42,1.73,2.98
20.886436223983765,0.16,2.57,1.46,2.96
20.896395206451416,-0.05,3.01,1.32,3.28
20.924192190170288,-0.38,3.57,1.12,3.76
20.925743103027344,-0.56,4.03,0.78,4.14
20.926496028900146,-0.62,4.21,0.27,4.26
20.93629503250122,-0.7,4.09,-0.12,4.15
20.94630718231201,-0.66,3.63,-0.41,3.71
20.974503993988037,-0.64,2.83,-0.79,3.0
20.976100206375122,-0.68,1.82,-1.27,2.32
20.976704120635986,-0.64,0.74,-1.59,1.86
20.986308097839355,-0.68,-0.26,-1.68,1.83
20.996317148208618,-0.77,-1.02,-1.78,2.19
21.024598121643066,-0.93,-1.43,-1.97,2.6
21.026199340820312,-1.12,-1.46,-1.99,2.71
21.02680206298828,-1.22,-1.13,-1.67,2.35
21.03629732131958,-1.26,-0.66,-1.28,1.91
21.04624915122986,-1.23,-0.21,-1.15,1.69
21.074941158294678,-1.04,0.24,-1.02,1.47
21.076568126678467,-0.67,0.67,-0.99,1.37
21.07716703414917,-0.28,0.98,-0.94,1.38
21.08623218536377,-0.03,1.21,-0.51,1.31
21.09619116783142,0.16,1.26,-0.09,1.27
21.106133222579956,0.24,1.07,-0.11,1.1
21.125463008880615,0.28,0.62,-0.24,0.72
21.12707018852234,0.37,-0.07,-0.29,0.47
21.136178016662598,0.53,-0.86,-0.31,1.05
21.146128177642822,0.64,-1.71,-0.38,1.86
21.15620231628418,0.62,-2.42,-0.55,2.55
21.17563819885254,0.52,-2.91,-0.66,3.02
21.17719316482544,0.54,-3.28,-0.61,3.37
21.18611717224121,0.58,-3.5,-0.52,3.58
21.19599413871765,0.61,-3.59,-0.42,3.66
21.206006050109863,0.64,-3.57,-0.36,3.64
21.225439071655273,0.6,-3.48,-0.26,3.54
21.226962089538574,0.55,-3.31,-0.15,3.35
21.236032009124756,0.44,-3.1,-0.1,3.13
21.24607014656067,0.38,-2.81,-0.06,2.83
21.25605320930481,0.34,-2.51,0.02,2.53
21.275804042816162,0.2,-2.22,0.32,2.25
21.277339220046997,0.12,-1.91,0.64,2.01
21.285994052886963,-0.03,-1.58,0.69,1.72
21.295977115631104,-0.25,-1.28,0.61,1.43
21.305928230285645,-0.41,-1.03,0.61,1.26
21.325608253479004,-0.55,-0.81,0.62,1.15
21.327171325683594,-0.66,-0.58,0.64,1.08
21.335973262786865,-0.77,-0.3,0.71,1.08
21.345784187316895,-0.84,0.04,0.81,1.16
21.355839252471924,-0.84,0.39,0.9,1.29
21.375890254974365,-0.8,0.74,0.96,1.45
21.377483129501343,-0.74,1.11,1.0,1.66
21.385809183120728,-0.7,1.45,1.13,1.96
21.395781993865967,-0.65,1.71,1.29,2.23
21.405673027038574,-0.57,1.85,1.52,2.46
21.425875186920166,-0.48,1.95,1.72,2.64
21.427428245544434,-0.4,2.13,1.76,2.79
21.435715198516846,-0.39,2.43,1.62,2.94
21.445853233337402,-0.35,2.93,1.61,3.36
21.455790042877197,-0.42,3.53,1.62,3.9
21.476032257080078,-0.4,4.07,1.11,4.23
21.477551221847534,-0.28,4.43,0.38,4.45
21.485730171203613,-0.24,4.61,-0.09,4.61
21.495745182037354,-0.26,4.44,-0.18,4.45
21.50566005706787,-0.11,3.82,-0.17,3.82
21.525854110717773,0.01,2.91,-0.51,2.95
21.527361154556274,-0.02,1.83,-0.85,2.01
21.535680294036865,-0.01,0.74,-1.07,1.3
21.545510292053223,0.16,-0.24,-1.28,1.31
21.555697202682495,0.45,-1.08,-1.23,1.69
21.576391220092773,0.74,-1.66,-1.03,2.08
21.57799220085144,0.91,-1.9,-0.9,2.29
21.585583209991455,1.06,-1.74,-0.76,2.17
21.59544610977173,1.11,-1.33,-0.64,1.84
21.60549521446228,0.96,-0.85,-0.69,1.45
21.626452207565308,0.74,-0.27,-0.82,1.13
21.628074169158936,0.55,0.42,-0.74,1.01
21.63552212715149,0.43,1.05,-0.5,1.23
21.645369052886963,0.33,1.48,-0.43,1.57
21.655571222305298,0.29,1.57,-0.57,1.69
21.676658153533936,0.15,1.24,-0.67,1.41
21.678235054016113,-0.02,0.57,-0.61,0.83
21.685442209243774,-0.05,-0.28,-0.54,0.61
21.69575309753418,0.05,-1.23,-0.46,1.31
21.70541214942932,0.15,-2.08,-0.44,2.13
21.7263240814209,0.25,-2.77,-0.44,2.81
21.727660179138184,0.3,-3.28,-0.44,3.32
21.73542833328247,0.25,-3.58,-0.48,3.62
21.746617317199707,0.17,-3.73,-0.59,3.78
21.75548815727234,0.07,-3.72,-0.58,3.76
21.776895999908447,0.03,-3.57,-0.48,3.6
21.778269290924072,0.0,-3.35,-0.33,3.36
21.785344123840332,0.02,-3.08,-0.22,3.08
21.796631336212158,0.07,-2.82,-0.16,2.82
21.805325031280518,0.12,-2.59,-0.09,2.59
21.826824188232422,0.2,-2.33,-0.03,2.33
21.828328132629395,0.33,-2.02,0.06,2.04
21.835243225097656,0.43,-1.7,0.17,1.76
21.846593141555786,0.52,-1.3,0.31,1.43
21.855284214019775,0.58,-0.89,0.42,1.14
21.876953125,0.6,-0.5,0.48,0.91
21.878488063812256,0.62,-0.15,0.53,0.82
21.885250091552734,0.6,0.24,0.67,0.93
21.896035194396973,0.59,0.66,0.85,1.22
21.9051570892334,0.66,1.12,0.97,1.62
21.927139282226562,0.75,1.51,1.12,2.02
21.9286150932312,0.74,1.82,1.3,2.35
21.93513512611389,0.68,1.99,1.31,2.47
21.946431159973145,0.57,2.0,1.25,2.42
21.955222129821777,0.46,1.85,1.16,2.23
21.9774911403656,0.31,1.67,0.99,1.96
21.97811222076416,0.11,1.86,0.95,2.09
21.985125064849854,-0.14,2.5,1.21,2.78
21.99519109725952,-0.52,3.3,1.44,3.63
22.00501298904419,-0.69,3.98,1.03,4.16
22.027499198913574,-0.77,4.47,0.16,4.53
22.02903413772583,-0.86,4.92,0.05,4.99
22.03503131866455,-0.82,5.15,0.4,5.23
22.04675006866455,-0.79,4.67,-0.05,4.73
22.05510425567627,-0.7,3.64,-0.98,3.83
22.07766103744507,-0.67,2.51,-1.43,2.96
22.079162120819092,-0.64,1.34,-1.25,1.94
22.0849552154541,-0.74,0.24,-1.17,1.4
22.096400260925293,-0.83,-0.71,-1.34,1.72
22.10484027862549,-0.83,-1.29,-1.56,2.18
22.127814292907715,-0.9,-1.41,-1.54,2.27
22.129330158233643,-1.01,-1.23,-1.24,2.01
22.134913206100464,-1.03,-0.94,-1.05,1.74
22.14691925048828,-1.03,-0.7,-1.15,1.69
22.155025005340576,-0.96,-0.41,-1.18,1.57
22.178253173828125,-0.6,0.0,-1.12,1.27
22.17981219291687,-0.19,0.41,-0.76,0.88
22.184821128845215,0.03,0.68,-0.28,0.73
22.197341203689575,0.12,0.68,-0.14,0.7
22.20485520362854,0.15,0.39,-0.22,0.47
22.2281231880188,0.16,-0.09,-0.29,0.34
22.229680061340332,0.2,-0.76,-0.3,0.84
22.23474621772766,0.27,-1.5,-0.35,1.56
22.24622917175293,0.31,-2.18,-0.45,2.24
22.254905223846436,0.27,-2.72,-0.59,2.79
22.27834916114807,0.28,-3.12,-0.64,3.19
22.279951095581055,0.27,-3.37,-0.6,3.43
22.284698009490967,0.19,-3.46,-0.54,3.5
22.297800064086914,0.19,-3.49,-0.4,3.51
22.30473232269287,0.17,-3.39,-0.27,3.4
22.328732013702393,0.19,-3.2,-0.13,3.2
22.330207109451294,0.19,-2.9,0.02,2.9
22.334660053253174,0.2,-2.57,0.13,2.58
22.34710717201233,0.21,-2.21,0.23,2.23
22.354804039001465,0.16,-1.87,0.32,1.9
22.37862515449524,0.04,-1.56,0.38,1.6
22.38014030456543,-0.12,-1.28,0.41,1.34
22.384552001953125,-0.28,-1.06,0.46,1.18
22.397953033447266,-0.5,-0.95,0.51,1.18
22.404608249664307,-0.67,-0.91,0.53,1.24
22.42878818511963,-0.79,-0.89,0.58,1.32
22.430307149887085,-0.86,-0.82,0.64,1.34
22.434495210647583,-0.94,-0.63,0.67,1.31
22.447050094604492,-0.97,-0.34,0.73,1.26
22.45464324951172,-0.99,0.08,1.01,1.41
22.478914260864258,-1.0,0.51,1.0,1.5
22.479539155960083,-0.98,0.92,0.95,1.64
22.48440933227539,-0.98,1.31,1.13,1.98
22.494693279266357,-0.92,1.59,1.2,2.19
22.504427194595337,-0.81,1.73,1.1,2.2
22.528969287872314,-0.66,1.74,1.11,2.16
22.53029203414917,-0.59,1.71,1.19,2.16
22.534502029418945,-0.64,1.79,1.13,2.21
22.547543048858643,-0.64,2.2,1.31,2.63
22.554495334625244,-0.54,2.86,1.57,3.3
22.579155206680298,-0.4,3.48,1.36,3.75
22.580754280090332,-0.3,3.92,0.55,3.96
22.584386110305786,-0.34,4.38,-0.16,4.39
22.598109245300293,-0.36,4.73,-0.35,4.75
22.604342222213745,-0.33,4.49,-0.57,4.53
22.629361152648926,-0.24,3.58,-1.04,3.73
22.630882263183594,-0.22,2.42,-1.53,2.87
22.6342351436615,-0.13,1.24,-1.67,2.08
22.647842168807983,0.14,0.22,-1.39,1.41
22.654351234436035,0.56,-0.59,-1.0,1.28
22.6794011592865,1.0,-1.03,-0.83,1.65
22.68087911605835,1.35,-0.99,-0.76,1.83
22.684275150299072,1.42,-0.65,-0.74,1.72
22.69782304763794,1.29,-0.22,-0.78,1.52
22.704232215881348,1.01,0.19,-0.77,1.28
22.729194164276123,0.63,0.53,-0.88,1.2
22.730769157409668,0.29,0.79,-1.05,1.34
22.734323024749756,0.08,1.02,-0.96,1.4
22.744129180908203,-0.15,1.09,-0.76,1.33
22.765608310699463,-0.24,0.81,-0.61,1.04
22.767012119293213,-0.2,0.3,-0.54,0.64
22.774198055267334,-0.04,-0.4,-0.44,0.59
22.78414511680603,0.13,-1.21,-0.29,1.25
22.794101238250732,0.26,-1.99,-0.2,2.01
22.815086126327515,0.36,-2.66,-0.19,2.69
22.816498279571533,0.38,-3.2,-0.26,3.23
22.82424521446228,0.31,-3.63,-0.43,3.66
22.833965301513672,0.17,-3.95,-0.57,3.99
22.84396505355835,0.05,-4.12,-0.59,4.16
22.864761114120483,0.03,-4.17,-0.72,4.23
22.86609125137329,0.04,-4.03,-0.65,4.08
22.873991012573242,0.06,-3.76,-0.35,3.77
22.8840012550354,0.09,-3.46,-0.08,3.46
22.89396619796753,0.18,-3.13,0.09,3.13
22.914820194244385,0.28,-2.76,0.21,2.78
22.916128158569336,0.36,-2.36,0.32,2.4
22.924015045166016,0.42,-1.97,0.34,2.04
22.933922290802002,0.5,-1.54,0.32,1.65
22.943925142288208,0.53,-1.07,0.34,1.24
22.964927196502686,0.58,-0.52,0.5,0.92
22.966243267059326,0.66,0.02,0.81,1.04
22.973883152008057,0.7,0.48,1.01,1.31
22.983907222747803,0.73,0.88,1.03,1.53
22.99381923675537,0.76,1.25,1.02,1.78
23.01460599899292,0.72,1.59,1.07,2.04
23.016188144683838,0.61,1.85,1.11,2.24
23.023895263671875,0.5,2.1,1.24,2.48
23.033863067626953,0.36,2.23,1.42,2.66
23.043835163116455,0.28,2.25,1.51,2.72
23.064406156539917,0.2,2.12,1.45,2.57
23.06572914123535,0.21,1.87,1.44,2.36
23.073803186416626,0.25,1.62,1.41,2.16
23.083664178848267,0.1,1.55,1.33,2.04
23.093745231628418,-0.17,1.87,1.19,2.22
23.114723205566406,-0.46,2.5,1.06,2.75
23.116263151168823,-0.66,3.21,0.87,3.39
23.123629093170166,-0.69,3.68,0.12,3.74
23.133525133132935,-0.65,3.88,-0.74,4.0
23.143582344055176,-0.65,3.94,-0.7,4.05
23.164690017700195,-0.67,3.61,-0.76,3.74
23.166280269622803,-0.61,2.87,-1.12,3.14
23.17368507385254,-0.47,1.99,-1.27,2.4
23.183449268341064,-0.33,1.07,-1.35,1.75
23.193546295166016,-0.31,0.15,-1.43,1.47
23.21473717689514,-0.39,-0.52,-1.62,1.74
23.216238021850586,-0.45,-0.82,-1.77,2.0
23.223637104034424,-0.56,-0.77,-1.61,1.87
23.233696222305298,-0.78,-0.5,-1.22,1.53
23.243568181991577,-0.93,-0.15,-0.94,1.33
23.26448106765747,-0.92,0.25,-0.84,1.27
23.26606321334839,-0.71,0.7,-0.82,1.29
23.27358102798462,-0.37,1.06,-0.66,1.3
23.283550262451172,-0.06,1.33,-0.39,1.38
23.29349112510681,0.19,1.44,-0.15,1.46
23.31445026397705,0.4,1.28,-0.08,1.34
23.3159601688385,0.59,0.8,-0.17,1.0
23.32344627380371,0.68,0.07,-0.34,0.76
23.333433151245117,0.65,-0.75,-0.52,1.12
23.343399047851562,0.55,-1.47,-0.62,1.68
23.364420175552368,0.49,-2.13,-0.62,2.27
23.36589527130127,0.44,-2.67,-0.63,2.77
23.373491287231445,0.38,-3.11,-0.64,3.19
23.38335132598877,0.36,-3.45,-0.54,3.51
23.393428325653076,0.37,-3.65,-0.44,3.69
23.4144229888916,0.38,-3.76,-0.37,3.79
23.41596031188965,0.4,-3.75,-0.32,3.78
23.423209190368652,0.4,-3.66,-0.25,3.69
23.433914184570312,0.3,-3.47,-0.17,3.48
23.44333028793335,0.22,-3.21,-0.09,3.21
23.46462917327881,0.16,-2.92,0.06,2.92
23.46619701385498,0.06,-2.6,0.22,2.6
23.47330117225647,-0.01,-2.23,0.29,2.24
23.485105991363525,-0.1,-1.86,0.31,1.88
23.49325132369995,-0.2,-1.52,0.34,1.57
23.514774322509766,-0.3,-1.23,0.4,1.32
23.51631212234497,-0.37,-1.0,0.57,1.2
23.523216247558594,-0.45,-0.81,0.75,1.19
23.533255100250244,-0.57,-0.61,0.86,1.19
23.5431911945343,-0.72,-0.35,0.74,1.09
23.564921140670776,-0.94,-0.03,0.66,1.14
23.566405296325684,-1.05,0.37,0.86,1.4
23.573156118392944,-1.07,0.8,0.88,1.59
23.583423137664795,-1.03,1.2,0.86,1.8
23.593212127685547,-1.01,1.56,1.2,2.21
23.61485528945923,-0.96,1.82,1.46,2.52
23.616382122039795,-0.82,1.96,1.48,2.58
23.623114109039307,-0.6,1.98,1.35,2.47
23.634151220321655,-0.45,1.88,1.27,2.31
23.643084049224854,-0.41,1.83,1.37,2.32
23.664817333221436,-0.43,1.97,1.4,2.45
23.66640329360962,-0.31,2.38,1.3,2.72
23.67310118675232,-0.16,2.98,1.11,3.18
23.684094190597534,-0.12,3.57,0.67,3.63
23.693100214004517,-0.08,3.97,0.1,3.97
23.715091228485107,-0.03,4.14,-0.36,4.15
23.71663212776184,-0.12,3.95,-0.64,4.0
23.723082065582275,-0.19,3.35,-0.86,3.46
23.73644518852234,-0.18,2.43,-1.05,2.65
23.74312114715576,-0.15,1.36,-1.25,1.85
23.765374183654785,-0.04,0.23,-1.47,1.48
23.766918182373047,0.26,-0.67,-1.53,1.69
23.772921085357666,0.68,-1.2,-1.3,1.89
23.78472900390625,1.11,-1.22,-1.12,1.99
23.792887210845947,1.25,-0.75,-0.95,1.73
23.81534218788147,1.12,-0.14,-0.64,1.29
23.816911220550537,0.85,0.42,-0.4,1.02
23.822818279266357,0.63,0.92,-0.57,1.25
23.83415126800537,0.51,1.35,-0.84,1.66
23.842920303344727,0.5,1.73,-0.82,1.97
23.865385055541992,0.4,1.99,-0.65,2.13
23.866958141326904,0.15,1.94,-0.47,2.0
23.87288212776184,-0.08,1.44,-0.41,1.49
23.885480165481567,-0.16,0.68,-0.35,0.78
23.89276933670044,-0.05,-0.15,-0.32,0.35
23.91570806503296,0.06,-1.04,-0.41,1.11
23.917243003845215,0.22,-1.89,-0.47,1.95
23.9228572845459,0.29,-2.54,-0.5,2.6
23.936041116714478,0.33,-3.02,-0.55,3.08
23.942652225494385,0.27,-3.36,-0.53,3.41
23.96586799621582,0.2,-3.55,-0.5,3.59
23.96740412712097,0.12,-3.65,-0.49,3.68
23.97261333465576,0.0,-3.65,-0.52,3.68
23.984402179718018,-0.06,-3.55,-0.42,3.57
23.99268913269043,-0.01,-3.37,-0.29,3.38
24.015695095062256,0.04,-3.15,-0.16,3.15
24.017254114151,0.1,-2.88,-0.08,2.88
24.02266216278076,0.2,-2.62,0.01,2.62
24.034377098083496,0.24,-2.34,0.01,2.35
24.042567253112793,0.33,-2.07,0.0,2.09
24.065880298614502,0.41,-1.78,0.01,1.82
24.067403316497803,0.44,-1.46,0.07,1.52
24.07252812385559,0.49,-1.17,0.15,1.27
24.08456516265869,0.53,-0.83,0.31,1.03
24.09250020980835,0.61,-0.48,0.59,0.97
24.115883111953735,0.73,-0.08,0.78,1.07
24.11750817298889,0.8,0.31,0.93,1.26
24.12241220474243,0.8,0.71,0.99,1.45
24.13505506515503,0.8,1.13,1.02,1.71
24.142462253570557,0.76,1.51,1.14,2.03
24.165879249572754,0.63,1.86,1.28,2.34
24.167392253875732,0.48,2.1,1.35,2.54
24.172500133514404,0.32,2.09,1.33,2.49
24.185392141342163,0.29,1.84,1.29,2.26
24.192430019378662,0.27,1.53,1.29,2.01
24.215994119644165,0.12,1.45,1.04,1.78
24.21756410598755,-0.08,1.84,0.92,2.05
24.222320079803467,-0.3,2.56,1.25,2.86
24.234886169433594,-0.57,3.29,1.38,3.61
24.24233913421631,-0.73,3.93,0.9,4.09
24.266258239746094,-0.83,4.48,0.68,4.6
24.26773715019226,-0.83,4.94,1.0,5.1
24.272351264953613,-0.66,4.92,0.84,5.03
24.28503131866455,-0.36,4.18,0.03,4.19
24.292433261871338,-0.07,3.09,-0.82,3.19
24.316497325897217,-0.12,1.91,-1.29,2.3
24.3180251121521,-0.32,0.71,-1.22,1.44
24.322266101837158,-0.44,-0.42,-1.36,1.48
24.335811138153076,-0.54,-1.33,-1.68,2.2
24.342304229736328,-0.7,-1.81,-1.78,2.63
24.36674404144287,-0.81,-1.89,-1.66,2.64
24.368328094482422,-0.87,-1.7,-1.35,2.33
24.372159004211426,-0.95,-1.42,-1.09,2.02
24.385046005249023,-1.04,-1.09,-1.03,1.82
24.392144203186035,-1.03,-0.7,-1.03,1.61
24.41701316833496,-0.66,-0.19,-0.87,1.1
24.4185631275177,-0.15,0.36,-0.59,0.7
24.42201018333435,0.15,0.73,-0.38,0.83
24.43544101715088,0.23,0.86,-0.34,0.95
24.442113161087036,0.2,0.68,-0.46,0.84
24.467024326324463,0.11,0.27,-0.53,0.6
24.46859121322632,0.03,-0.3,-0.48,0.56
24.472122192382812,0.01,-0.95,-0.47,1.05
24.48540711402893,0.07,-1.56,-0.49,1.63
24.492127180099487,0.11,-2.05,-0.54,2.12
24.51704716682434,0.09,-2.44,-0.56,2.5
24.518593311309814,0.1,-2.73,-0.48,2.77
24.521998167037964,0.13,-2.89,-0.4,2.92
24.5356502532959,0.25,-2.89,-0.37,2.92
24.54199504852295,0.33,-2.82,-0.37,2.86
24.56718611717224,0.29,-2.75,-0.35,2.78
24.568798065185547,0.19,-2.59,-0.27,2.61
24.571967124938965,0.09,-2.35,-0.12,2.35
24.585978031158447,0.05,-2.08,0.1,2.08
24.591946125030518,0.05,-1.81,0.22,1.82
24.61724019050598,-0.01,-1.54,0.28,1.56
24.61873722076416,-0.09,-1.22,0.39,1.28
24.621912002563477,-0.26,-1.07,0.18,1.11
24.63579821586609,-0.45,-0.98,0.02,1.07
24.641902208328247,-0.62,-0.99,0.09,1.17
24.6672682762146,-0.71,-1.08,0.15,1.3
24.668830156326294,-0.77,-1.17,0.28,1.42
24.671852111816406,-0.82,-1.13,0.55,1.5
24.681777000427246,-0.85,-0.88,0.87,1.5
24.69187307357788,-0.91,-0.46,1.09,1.49
24.717209339141846,-0.96,0.05,1.19,1.52
24.718701124191284,-0.95,0.58,1.11,1.57
24.72178030014038,-0.95,1.06,1.0,1.73
24.731757164001465,-0.87,1.38,0.94,1.88
24.74181318283081,-0.75,1.59,1.0,2.02
24.767330169677734,-0.58,1.69,1.18,2.14
24.76867413520813,-0.46,1.71,1.37,2.23
24.77186417579651,-0.42,1.65,1.41,2.21
24.78169012069702,-0.5,1.63,1.31,2.15
24.79177713394165,-0.58,1.88,1.28,2.34
24.817317008972168,-0.46,2.48,1.47,2.91
24.818875312805176,-0.22,3.13,1.39,3.43
24.821559190750122,-0.23,3.54,0.7,3.61
24.831669330596924,-0.43,3.81,-0.02,3.83
24.841745138168335,-0.62,4.07,-0.24,4.12
24.867653131484985,-0.61,3.91,-0.43,3.98
24.869211196899414,-0.37,3.17,-0.96,3.33
24.871589183807373,-0.18,2.18,-1.5,2.65
24.88159704208374,-0.01,1.12,-1.61,1.96
24.89160418510437,0.21,0.1,-1.36,1.37
24.91762614250183,0.54,-0.79,-0.93,1.33
24.919172286987305,0.89,-1.47,-0.66,1.84
24.921573162078857,1.22,-1.77,-0.8,2.29
24.931499004364014,1.41,-1.62,-1.05,2.39
24.941553115844727,1.39,-1.19,-1.08,2.12
24.967859268188477,1.18,-0.62,-0.93,1.62
24.96933913230896,0.81,-0.01,-0.72,1.08
24.971461296081543,0.37,0.59,-0.62,0.93
24.981417179107666,0.05,1.23,-0.44,1.3
24.991539001464844,-0.05,1.72,-0.35,1.75
25.017593145370483,-0.05,1.85,-0.56,1.93
25.019079208374023,-0.04,1.58,-0.62,1.69
25.021438121795654,-0.03,0.99,-0.57,1.14
25.031389236450195,0.05,0.23,-0.39,0.45
25.041414260864258,0.16,-0.66,-0.1,0.68
25.068177223205566,0.26,-1.51,-0.03,1.53
25.069799184799194,0.35,-2.23,-0.09,2.25
25.07126212120056,0.37,-2.77,-0.26,2.8
25.081366062164307,0.3,-3.18,-0.48,3.22
25.091421127319336,0.15,-3.45,-0.59,3.5
25.11828899383545,0.04,-3.58,-0.52,3.61
25.1198673248291,0.01,-3.6,-0.4,3.62
25.121178150177002,0.01,-3.49,-0.25,3.49
25.131258010864258,0.02,-3.27,-0.1,3.27
25.141240119934082,0.05,-2.99,0.0,2.99
25.16852331161499,0.12,-2.66,0.11,2.66
25.170111179351807,0.23,-2.4,0.14,2.41
25.171144008636475,0.39,-2.14,0.06,2.17
25.181263208389282,0.53,-1.9,0.0,1.97
25.191233158111572,0.56,-1.65,0.09,1.74
25.218621253967285,0.59,-1.32,0.3,1.47
25.220203161239624,0.63,-0.93,0.49,1.22
25.221068143844604,0.65,-0.55,0.61,1.04
25.231133222579956,0.6,-0.17,0.72,0.95
25.24116802215576,0.59,0.25,0.89,1.09
25.26893901824951,0.62,0.71,1.07,1.42
25.270540237426758,0.63,1.18,1.3,1.86
25.271154165267944,0.6,1.64,1.48,2.28
25.281150341033936,0.52,2.0,1.56,2.58
25.290963172912598,0.46,2.22,1.55,2.74
25.318533182144165,0.36,2.3,1.47,2.75
25.319873332977295,0.24,2.28,1.67,2.83
25.320919036865234,0.24,2.1,1.65,2.68
25.331061124801636,0.17,1.96,1.49,2.46
25.341118335723877,-0.03,2.12,1.57,2.63
25.368837118148804,-0.32,2.58,1.47,2.98
25.370431184768677,-0.59,3.12,1.14,3.37
25.37104034423828,-0.74,3.58,0.6,3.7
25.381043195724487,-0.84,3.86,0.01,3.95
25.390932083129883,-0.95,3.98,-0.17,4.09
25.41896414756775,-0.97,3.89,-0.17,4.01
25.42043113708496,-0.97,3.32,-0.51,3.49
25.421066284179688,-0.91,2.43,-1.13,2.83
25.431021213531494,-0.84,1.45,-1.44,2.2
25.440919160842896,-0.83,0.44,-1.41,1.69
25.469049215316772,-0.87,-0.45,-1.46,1.75
25.470516204833984,-0.87,-1.1,-1.6,2.12
25.471145153045654,-0.89,-1.4,-1.65,2.33
25.480926990509033,-0.98,-1.3,-1.58,2.26
25.49081802368164,-1.01,-0.98,-1.32,1.92
25.519216060638428,-0.98,-0.58,-1.12,1.59
25.520848274230957,-0.89,-0.15,-1.01,1.35
25.52146005630493,-0.69,0.28,-0.86,1.13
25.53079605102539,-0.25,0.63,-0.67,0.95
25.540894031524658,0.19,0.94,-0.44,1.05
25.569449186325073,0.48,1.11,-0.19,1.22
25.571105003356934,0.65,1.02,-0.09,1.21
25.571720123291016,0.73,0.69,-0.15,1.01
25.580823183059692,0.74,0.1,-0.23,0.78
25.590671062469482,0.69,-0.66,-0.29,0.99
25.60070013999939,0.66,-1.47,-0.37,1.65
25.620005130767822,0.63,-2.21,-0.51,2.35
25.62161421775818,0.54,-2.81,-0.65,2.93
25.630836009979248,0.44,-3.32,-0.74,3.42
25.64085102081299,0.39,-3.61,-0.7,3.69
25.65077018737793,0.44,-3.74,-0.57,3.8
25.670039176940918,0.47,-3.78,-0.47,3.83
25.671643257141113,0.48,-3.71,-0.35,3.75
25.68063712120056,0.49,-3.47,-0.22,3.51
25.690521240234375,0.44,-3.14,-0.12,3.17
25.700541019439697,0.37,-2.78,0.02,2.8
25.71949529647827,0.33,-2.39,0.2,2.42
25.720858097076416,0.26,-1.97,0.36,2.01
25.730571269989014,0.16,-1.54,0.38,1.59
25.740658283233643,0.03,-1.16,0.54,1.27
25.75062131881714,-0.12,-0.83,0.75,1.12
25.769803047180176,-0.22,-0.6,0.8,1.02
25.771412134170532,-0.43,-0.45,0.84,1.04
25.78061008453369,-0.74,-0.29,0.8,1.12
25.790544033050537,-0.94,-0.2,0.69,1.18
25.800639152526855,-1.08,-0.07,0.66,1.26
25.819807052612305,-1.14,0.11,0.78,1.38
25.821356296539307,-1.19,0.34,1.06,1.62
25.83051300048828,-1.14,0.62,1.29,1.82
25.840347290039062,-0.98,0.93,1.38,1.93
25.850529193878174,-0.8,1.25,1.39,2.03
25.869983196258545,-0.65,1.5,1.4,2.15
25.871328115463257,-0.56,1.68,1.37,2.23
25.88049817085266,-0.5,1.76,1.34,2.26
25.89034128189087,-0.43,1.73,1.39,2.26
25.900309085845947,-0.43,1.67,1.47,2.26
25.91978406906128,-0.54,1.67,1.47,2.28
25.92113208770752,-0.55,1.88,1.35,2.37
25.93034601211548,-0.38,2.37,1.23,2.69
25.940227031707764,-0.26,3.04,1.04,3.22
25.95039129257202,-0.32,3.69,0.58,3.74
25.97023916244507,-0.33,4.24,-0.14,4.25
25.971837997436523,-0.19,4.44,-0.77,4.51
25.980366230010986,0.0,4.06,-1.29,4.26
25.990228176116943,0.03,3.14,-1.6,3.52
26.0002760887146,-0.12,1.97,-1.57,2.52
26.020618200302124,-0.04,0.73,-1.48,1.65
26.02233123779297,0.18,-0.4,-1.43,1.49
26.030291080474854,0.49,-1.2,-1.22,1.78
26.04024314880371,0.79,-1.58,-1.0,2.02
26.050271034240723,0.99,-1.43,-0.87,1.94
26.0701801776886,1.11,-0.95,-0.89,1.71
26.071750164031982,1.09,-0.39,-0.86,1.44
26.080249309539795,1.01,0.24,-0.71,1.25
26.09015417098999,0.84,0.79,-0.64,1.31
26.10010004043579,0.58,1.26,-0.65,1.53
26.120259284973145,0.32,1.63,-0.56,1.75
26.121880054473877,0.1,1.78,-0.54,1.86
26.130308151245117,-0.07,1.56,-0.59,1.66
26.140000343322754,-0.24,1.01,-0.53,1.16
26.150440216064453,-0.28,0.29,-0.44,0.59
26.170684337615967,-0.22,-0.55,-0.35,0.68
26.172245025634766,-0.08,-1.42,-0.28,1.44
26.18011713027954,0.05,-2.18,-0.25,2.19
26.18987226486206,0.14,-2.78,-0.34,2.8
26.199947118759155,0.14,-3.25,-0.47,3.28
26.220746994018555,0.1,-3.58,-0.62,3.63
26.22224712371826,0.05,-3.79,-0.72,3.85
26.230119228363037,0.04,-3.85,-0.71,3.91
26.239936113357544,0.0,-3.8,-0.59,3.84
26.250193119049072,0.0,-3.74,-0.44,3.76
26.270684242248535,0.05,-3.6,-0.31,3.61
26.27227020263672,0.13,-3.38,-0.16,3.38
26.279980182647705,0.21,-3.09,-0.01,3.09
26.28982400894165,0.29,-2.77,0.08,2.78
26.299856185913086,0.37,-2.43,0.12,2.46
26.321099281311035,0.47,-2.1,0.16,2.15
26.322646141052246,0.56,-1.75,0.3,1.86
26.32996129989624,0.64,-1.34,0.57,1.59
26.33989906311035,0.7,-0.89,0.9,1.44
26.349828243255615,0.8,-0.43,1.13,1.44
26.371037006378174,0.91,0.05,1.09,1.42
26.37258815765381,1.05,0.53,1.03,1.56
26.37984323501587,1.04,1.04,1.06,1.81
26.389784336090088,0.93,1.5,1.18,2.12
26.39969515800476,0.82,1.91,1.28,2.44
26.421500205993652,0.6,2.27,1.45,2.75
26.42306613922119,0.45,2.53,1.64,3.04
26.429726123809814,0.33,2.66,1.69,3.16
26.43983817100525,0.28,2.6,1.7,3.11
26.44981622695923,0.26,2.44,1.63,2.94
26.47146224975586,0.18,2.38,1.43,2.78
26.47299098968506,0.02,2.64,1.34,2.96
26.47974729537964,-0.37,3.17,1.49,3.52
26.490128993988037,-0.76,3.7,1.1,3.93
26.499698162078857,-0.96,3.92,0.03,4.03
26.521441221237183,-1.02,3.99,-0.55,4.15
26.52296733856201,-1.05,4.07,-0.52,4.23
26.52967119216919,-1.04,3.85,-0.7,4.04
26.540101051330566,-0.96,3.18,-1.23,3.54
26.54984712600708,-0.88,2.28,-1.74,3.0
26.57158613204956,-0.79,1.37,-1.95,2.51
26.573101043701172,-0.73,0.42,-1.94,2.11
26.57968807220459,-0.78,-0.38,-1.95,2.13
26.589829206466675,-0.78,-0.86,-1.88,2.2
26.599614143371582,-0.77,-0.97,-1.6,2.02
26.621628284454346,-0.85,-0.84,-1.25,1.72
26.623221158981323,-0.91,-0.62,-1.03,1.5
26.629559993743896,-0.88,-0.4,-0.94,1.34
26.640762329101562,-0.73,-0.09,-0.89,1.15
26.649646282196045,-0.43,0.28,-0.79,0.94
26.671900272369385,-0.11,0.62,-0.52,0.81
26.67341423034668,0.13,0.91,-0.15,0.93
26.6795392036438,0.27,1.0,0.04,1.03
26.690515995025635,0.37,0.76,-0.01,0.84
26.699491024017334,0.43,0.24,-0.15,0.51
26.721837043762207,0.39,-0.43,-0.31,0.65
26.723408222198486,0.44,-1.14,-0.42,1.29
26.729401111602783,0.52,-1.78,-0.53,1.92
26.74062728881836,0.54,-2.29,-0.61,2.43
26.749474048614502,0.47,-2.73,-0.67,2.85
26.77190113067627,0.44,-3.05,-0.68,3.15
26.773295164108276,0.5,-3.26,-0.6,3.35
26.779455184936523,0.56,-3.45,-0.48,3.52
26.790396213531494,0.57,-3.55,-0.46,3.62
26.799330234527588,0.57,-3.56,-0.52,3.64
26.821954250335693,0.51,-3.47,-0.35,3.52
26.82349729537964,0.43,-3.29,-0.34,3.33
26.829318046569824,0.32,-3.04,-0.4,3.08
26.840708255767822,0.29,-2.72,-0.29,2.75
26.849390029907227,0.27,-2.35,-0.06,2.36
26.87223219871521,0.2,-2.0,0.17,2.01
26.873812198638916,0.04,-1.65,0.36,1.68
26.87919020652771,-0.11,-1.31,0.57,1.43
26.891144275665283,-0.25,-0.99,0.73,1.25
26.899179220199585,-0.43,-0.68,0.84,1.16
26.922064304351807,-0.64,-0.4,0.77,1.07
26.92357110977173,-0.81,-0.12,0.65,1.04
26.9291672706604,-0.93,0.14,0.63,1.13
26.941670179367065,-1.05,0.41,0.73,1.34
26.949312210083008,-1.16,0.66,0.89,1.6
26.973875999450684,-1.19,0.89,1.05,1.81
26.975353240966797,-1.14,1.11,1.1,1.93
26.97930121421814,-1.02,1.34,1.12,2.02
26.99186420440674,-0.83,1.52,1.12,2.06
26.999085187911987,-0.66,1.67,1.11,2.11
27.022512197494507,-0.55,1.8,1.16,2.21
27.024102210998535,-0.5,1.87,1.18,2.26
27.029024124145508,-0.52,1.95,1.18,2.33
27.04099702835083,-0.51,2.23,1.29,2.62
27.0491361618042,-0.4,2.7,1.35,3.04
27.07245922088623,-0.13,3.13,1.07,3.31
27.074048042297363,-0.02,3.33,0.39,3.35
27.079023122787476,0.0,3.36,-0.32,3.37
27.09156322479248,0.03,3.35,-0.65,3.41
27.099009037017822,0.07,3.11,-0.8,3.21
27.12293815612793,0.19,2.5,-1.04,2.71
27.124492168426514,0.23,1.65,-1.37,2.15
27.128974199295044,0.25,0.66,-1.58,1.73
27.142244338989258,0.44,-0.28,-1.52,1.6
27.148994207382202,0.7,-1.03,-1.2,1.72
27.17278218269348,1.0,-1.43,-0.78,1.91
27.174342155456543,1.34,-1.38,-0.52,1.99
27.17891025543213,1.49,-0.91,-0.45,1.8
27.193037033081055,1.38,-0.31,-0.38,1.46
27.198814153671265,1.11,0.32,-0.38,1.21
27.222862243652344,0.76,0.93,-0.42,1.27
27.22441530227661,0.53,1.4,-0.58,1.6
27.22881817817688,0.41,1.78,-0.67,1.94
27.242760181427002,0.13,2.06,-0.49,2.12
27.24899911880493,-0.17,2.06,-0.41,2.1
27.273369312286377,-0.38,1.65,-0.45,1.75
27.274919033050537,-0.32,0.96,-0.41,1.09
27.278748989105225,-0.18,0.11,-0.37,0.42
27.29270029067993,-0.12,-0.8,-0.33,0.87
27.298742294311523,-0.03,-1.71,-0.3,1.73
27.323363304138184,0.06,-2.46,-0.36,2.48
27.324974060058594,0.14,-3.09,-0.46,3.12
27.32867431640625,0.14,-3.58,-0.59,3.63
27.34324312210083,0.09,-3.88,-0.69,3.94
27.34873914718628,-0.02,-4.02,-0.72,4.08
27.375701189041138,-0.12,-4.01,-0.65,4.06
27.377214193344116,-0.2,-3.87,-0.49,3.9
27.378565311431885,-0.17,-3.68,-0.29,3.69
27.393470287322998,-0.11,-3.45,-0.08,3.45
27.39859414100647,0.02,-3.15,0.06,3.15
27.423838138580322,0.16,-2.77,0.18,2.78
27.425419330596924,0.28,-2.44,0.25,2.46
27.42854118347168,0.35,-2.08,0.19,2.11
27.438433170318604,0.36,-1.68,0.26,1.73
27.45954132080078,0.37,-1.23,0.5,1.37
27.46086621284485,0.39,-0.77,0.82,1.19
27.468563079833984,0.45,-0.32,1.1,1.23
27.478421211242676,0.52,0.16,1.3,1.4
27.48851728439331,0.61,0.68,1.4,1.67
27.509138107299805,0.62,1.16,1.3,1.84
27.510415077209473,0.59,1.55,1.28,2.09
27.518551111221313,0.59,1.87,1.41,2.41
27.52841329574585,0.49,2.12,1.38,2.57
27.538475036621094,0.35,2.31,1.56,2.8
27.559444189071655,0.2,2.38,1.87,3.03
27.56070327758789,0.07,2.26,1.93,2.97
27.56856632232666,-0.02,1.98,1.9,2.74
27.57832431793213,-0.15,1.8,1.89,2.61
27.58845615386963,-0.36,2.0,1.77,2.69
27.609331130981445,-0.54,2.55,1.57,3.04
27.610563278198242,-0.79,3.19,1.2,3.49
27.618556022644043,-0.99,3.76,0.56,3.92
27.628254175186157,-0.99,4.11,-0.08,4.22
27.63837718963623,-1.16,4.29,-0.4,4.46
27.659301280975342,-1.32,4.13,-0.68,4.38
27.66058611869812,-1.26,3.51,-1.26,3.93
27.668365001678467,-1.21,2.63,-1.86,3.44
27.678126335144043,-1.16,1.64,-2.04,2.86
27.68815803527832,-1.06,0.6,-1.93,2.28
27.709248065948486,-0.97,-0.4,-1.86,2.13
27.709880113601685,-0.82,-1.18,-1.82,2.31
27.718228340148926,-0.74,-1.6,-1.74,2.47
27.72824716567993,-0.75,-1.67,-1.58,2.41
27.738147258758545,-0.67,-1.43,-1.34,2.07
27.75890016555786,-0.64,-1.12,-1.07,1.67
27.760239124298096,-0.62,-0.72,-0.89,1.3
27.768169164657593,-0.49,-0.27,-0.92,1.07
27.778006076812744,-0.25,0.17,-0.8,0.85
27.78810214996338,0.02,0.66,-0.48,0.81
27.80918025970459,0.18,1.08,-0.18,1.1
27.810503005981445,0.25,1.28,0.0,1.3
27.818209171295166,0.3,1.16,-0.02,1.19
27.82814931869507,0.31,0.75,-0.17,0.82
27.83803415298462,0.34,0.11,-0.26,0.44
27.85951519012451,0.39,-0.68,-0.3,0.83
27.860819339752197,0.5,-1.48,-0.39,1.61
27.86836814880371,0.6,-2.21,-0.52,2.34
27.87894916534424,0.65,-2.73,-0.63,2.87
27.888516187667847,0.63,-3.14,-0.65,3.26
27.91139316558838,0.62,-3.44,-0.55,3.53
27.91267728805542,0.66,-3.58,-0.49,3.67
27.918358325958252,0.61,-3.63,-0.48,3.71
27.928609132766724,0.54,-3.6,-0.34,3.65
27.93834114074707,0.54,-3.52,-0.36,3.57
27.9626522064209,0.54,-3.36,-0.47,3.43
27.96407914161682,0.52,-3.07,-0.31,3.12
27.96820306777954,0.45,-2.69,-0.02,2.72
27.979440212249756,0.36,-2.26,0.18,2.29
27.988317012786865,0.23,-1.83,0.26,1.86
28.014934062957764,0.03,-1.46,0.32,1.49
28.016493320465088,-0.19,-1.13,0.5,1.25
28.017832279205322,-0.32,-0.88,0.73,1.18
28.028600215911865,-0.46,-0.69,0.88,1.2
28.03783416748047,-0.57,-0.5,0.85,1.13
28.059929132461548,-0.74,-0.22,0.78,1.09
28.06142520904541,-0.83,0.15,0.85,1.19
28.067936182022095,-0.88,0.6,0.99,1.45
28.07788920402527,-0.92,1.1,1.21,1.87
28.087775230407715,-0.95,1.53,1.35,2.25
28.109060287475586,-0.93,1.91,1.42,2.55
28.11041831970215,-0.88,2.14,1.43,2.72
28.117842197418213,-0.77,2.18,1.38,2.69
28.127753257751465,-0.56,2.13,1.32,2.56
28.137701988220215,-0.37,2.0,1.35,2.44
28.159072160720825,-0.35,1.99,1.37,2.44
28.16027522087097,-0.36,2.31,1.33,2.68
28.16783332824707,-0.3,2.91,1.36,3.22
28.177552223205566,-0.17,3.59,1.28,3.81
28.187745094299316,-0.15,4.11,0.8,4.18
28.20915699005127,-0.11,4.46,0.14,4.46
28.210806131362915,0.06,4.62,-0.27,4.62
28.217721223831177,0.32,4.21,-0.59,4.26
28.229051113128662,0.39,3.26,-1.09,3.45
28.23766803741455,0.3,2.14,-1.42,2.58
28.259470224380493,0.32,0.89,-1.49,1.76
28.261070251464844,0.53,-0.3,-1.39,1.51
28.26764726638794,0.74,-1.26,-1.28,1.94
28.278080224990845,0.91,-1.93,-1.11,2.4
28.28765106201172,1.11,-2.19,-1.04,2.66
28.30905532836914,1.25,-2.0,-1.01,2.56
28.310590267181396,1.24,-1.44,-0.89,2.09
28.317596197128296,1.09,-0.81,-0.74,1.54
28.328118324279785,0.82,-0.16,-0.7,1.08
28.337475299835205,0.52,0.47,-0.74,1.01
28.3591890335083,0.3,1.07,-0.78,1.35
28.36058211326599,0.15,1.62,-0.6,1.73
28.367518186569214,0.0,2.01,-0.48,2.06
28.378526210784912,-0.12,2.04,-0.57,2.12
28.387315273284912,-0.14,1.58,-0.55,1.67
28.408955097198486,-0.06,0.86,-0.43,0.96
28.410545110702515,0.02,0.01,-0.31,0.31
28.417455196380615,0.09,-0.91,-0.25,0.94
28.429612159729004,0.22,-1.79,-0.27,1.82
28.43721628189087,0.28,-2.54,-0.4,2.58
28.45921516418457,0.28,-3.11,-0.55,3.17
28.46065330505371,0.29,-3.53,-0.59,3.59
28.46735906600952,0.13,-3.78,-0.64,3.83
28.477935314178467,0.07,-3.92,-0.67,3.97
28.487186193466187,0.0,-3.95,-0.63,3.99
28.509390115737915,-0.11,-3.91,-0.57,3.95
28.510947227478027,-0.16,-3.78,-0.5,3.81
28.517346143722534,-0.13,-3.57,-0.38,3.59
28.52850317955017,-0.01,-3.28,-0.24,3.28
28.537199020385742,0.06,-2.97,-0.05,2.97
28.559433221817017,0.13,-2.68,0.02,2.68
28.561005115509033,0.25,-2.38,0.06,2.39
28.567317008972168,0.33,-2.06,0.25,2.1
28.578421115875244,0.36,-1.67,0.63,1.82
28.587158203125,0.45,-1.14,0.96,1.55
28.609375,0.54,-0.57,1.28,1.5
28.61091113090515,0.68,0.05,1.38,1.53
28.617282152175903,0.82,0.67,1.28,1.66
28.62847328186035,0.83,1.29,1.24,1.97
28.63714027404785,0.77,1.89,1.34,2.44
28.659810066223145,0.68,2.42,1.46,2.9
28.661349296569824,0.46,2.75,1.44,3.13
28.667065143585205,0.24,2.86,1.58,3.27
28.678110122680664,0.17,2.81,1.72,3.29
28.687047004699707,0.12,2.56,1.66,3.05
28.70966911315918,0.12,2.23,1.72,2.81
28.711098194122314,0.09,1.94,1.64,2.54
28.71710205078125,-0.09,1.96,1.34,2.37
28.72814130783081,-0.52,2.43,1.3,2.8
28.737027168273926,-0.9,2.92,1.38,3.35
28.759870052337646,-1.12,3.31,0.71,3.56
28.761398315429688,-1.07,3.61,-0.29,3.77
28.766929149627686,-1.07,3.88,-0.61,4.07
28.778048992156982,-1.07,4.04,-0.61,4.22
28.7869610786438,-1.03,3.52,-0.86,3.76
28.809847116470337,-1.1,2.52,-1.61,3.18
28.81142020225525,-1.04,1.35,-2.27,2.83
28.81692600250244,-0.83,0.18,-2.42,2.56
28.828607082366943,-0.66,-0.68,-2.25,2.44
28.836976051330566,-0.59,-1.11,-1.96,2.32
28.85990810394287,-0.65,-1.14,-1.67,2.12
28.86147117614746,-0.84,-0.9,-1.45,1.9
28.867009162902832,-1.01,-0.49,-1.33,1.74
28.88001823425293,-1.1,-0.06,-1.32,1.71
28.886874198913574,-1.07,0.4,-1.31,1.73
28.910096168518066,-0.78,0.88,-1.07,1.58
28.91166925430298,-0.47,1.22,-0.71,1.48
28.916803121566772,-0.08,1.41,-0.46,1.48
28.929140090942383,0.13,1.56,-0.18,1.57
28.93681001663208,0.14,1.58,0.09,1.58
28.96049928665161,0.2,1.31,0.1,1.32
28.962093114852905,0.28,0.72,-0.23,0.8
28.96678400039673,0.33,0.05,-0.35,0.48
28.979854106903076,0.43,-0.7,-0.5,0.96
28.986801147460938,0.51,-1.47,-0.77,1.73
29.010422229766846,0.64,-2.13,-0.8,2.36
29.012004137039185,0.73,-2.56,-0.83,2.78
29.016724109649658,0.87,-2.84,-0.82,3.08
29.03002119064331,0.91,-3.11,-0.7,3.31
29.03669309616089,0.93,-3.31,-0.63,3.49
29.060492992401123,0.99,-3.47,-0.65,3.66
29.062031269073486,1.01,-3.52,-0.72,3.73
29.066590309143066,0.96,-3.5,-0.69,3.69
29.07941222190857,0.85,-3.4,-0.53,3.54
29.08673334121704,0.75,-3.23,-0.36,3.33
29.11042022705078,0.59,-3.04,-0.18,3.1
29.11197018623352,0.4,-2.79,0.04,2.81
29.116573333740234,0.28,-2.48,0.2,2.5
29.128947257995605,0.16,-2.14,0.27,2.16
29.136564254760742,-0.03,-1.75,0.24,1.76
29.16087818145752,-0.21,-1.4,0.16,1.42
29.16224718093872,-0.44,-1.13,0.12,1.21
29.166404247283936,-0.61,-0.9,0.12,1.09
29.179466247558594,-0.81,-0.69,0.29,1.1
29.186594009399414,-1.02,-0.48,0.64,1.29
29.21099615097046,-1.13,-0.18,0.93,1.47
29.21260118484497,-1.15,0.15,1.1,1.59
29.216464042663574,-1.13,0.54,1.14,1.69
29.230099201202393,-1.09,0.96,1.12,1.83
29.236489295959473,-0.99,1.35,1.11,2.0
29.26113224029541,-0.9,1.65,1.1,2.17
29.262678146362305,-0.77,1.9,1.04,2.29
29.26631212234497,-0.59,2.01,1.07,2.35
29.28019618988037,-0.41,1.97,1.21,2.34
29.286458015441895,-0.25,1.8,1.37,2.27
29.311357021331787,-0.18,1.62,1.38,2.13
29.312961101531982,-0.2,1.66,1.35,2.14
29.3163161277771,-0.11,2.2,1.73,2.8
29.3303701877594,0.07,2.99,2.2,3.71
29.336360216140747,0.11,3.54,1.76,3.95
29.36168122291565,-0.11,3.77,0.38,3.79
29.363291263580322,-0.18,4.03,-0.42,4.05
29.36627221107483,-0.12,4.01,-0.69,4.07
29.37622618675232,0.07,3.34,-1.04,3.49
29.386320114135742,0.14,2.39,-1.29,2.71
29.41130828857422,0.12,1.27,-1.41,1.9
29.412862300872803,0.27,0.06,-1.42,1.44
29.416237115859985,0.56,-1.08,-1.32,1.79
29.42621111869812,0.94,-2.03,-1.09,2.48
29.436264038085938,1.32,-2.56,-1.03,3.05
29.46151113510132,1.61,-2.57,-1.05,3.2
29.463036060333252,1.77,-2.11,-0.95,2.91
29.466185092926025,1.63,-1.36,-0.85,2.28
29.476104259490967,1.34,-0.5,-0.79,1.63
29.48613715171814,1.04,0.4,-0.76,1.34
29.511569023132324,0.63,1.27,-0.82,1.63
29.51292324066162,0.27,2.03,-1.01,2.28
29.516160011291504,0.05,2.71,-1.06,2.91
29.52607822418213,-0.08,3.17,-0.87,3.28
29.536158084869385,-0.3,3.19,-0.65,3.26
29.561768054962158,-0.47,2.71,-0.57,2.8
29.563374996185303,-0.41,1.92,-0.5,2.02
29.565983295440674,-0.25,0.96,-0.42,1.07
29.576027154922485,-0.12,-0.06,-0.41,0.43
29.586061000823975,0.03,-0.98,-0.48,1.09
29.611841201782227,0.18,-1.75,-0.6,1.85
29.61339807510376,0.2,-2.41,-0.78,2.54
29.615946292877197,0.13,-2.84,-0.91,2.98
29.625936031341553,0.0,-3.17,-0.9,3.29
29.636020183563232,-0.17,-3.4,-0.96,3.53
29.6618390083313,-0.28,-3.52,-1.11,3.7
29.66342306137085,-0.4,-3.54,-1.04,3.71
29.665810108184814,-0.41,-3.47,-0.87,3.6
29.675889015197754,-0.36,-3.33,-0.81,3.44
29.68593716621399,-0.28,-3.11,-0.67,3.19
29.712064266204834,-0.19,-2.83,-0.38,2.86
29.713614225387573,-0.14,-2.5,-0.05,2.5
29.715755224227905,-0.04,-2.18,0.22,2.19
29.725816249847412,0.1,-1.87,0.41,1.91
29.735884189605713,0.24,-1.54,0.39,1.6
29.762256145477295,0.39,-1.18,0.33,1.28
29.763857126235962,0.54,-0.77,0.31,0.99
29.76575016975403,0.65,-0.34,0.37,0.82
29.77573013305664,0.7,0.07,0.44,0.82
29.785730123519897,0.7,0.42,0.54,0.97
29.812089204788208,0.67,0.71,0.71,1.2
29.81354522705078,0.57,0.95,0.87,1.4
29.815951108932495,0.44,1.15,0.94,1.54
29.825674057006836,0.34,1.38,1.0,1.73
29.83574414253235,0.29,1.55,1.05,1.89
29.862603187561035,0.24,1.65,1.05,1.97
29.863819122314453,0.19,1.61,1.12,1.97
29.86558198928833,0.23,1.46,1.31,1.97
29.875627994537354,0.25,1.26,1.44,1.92
29.88564920425415,0.18,1.12,1.46,1.84
29.91259217262268,-0.01,1.25,1.32,1.81
29.914159297943115,-0.3,1.72,1.15,2.09
29.915513038635254,-0.67,2.32,1.08,2.64
29.925624132156372,-0.91,2.86,0.86,3.12
29.935704231262207,-0.9,3.3,0.3,3.43
29.96253204345703,-0.89,3.68,-0.16,3.78
29.963844299316406,-0.89,3.87,-0.25,3.97
29.96546506881714,-0.85,3.61,-0.42,3.73
29.97559404373169,-0.83,2.93,-0.94,3.18
29.985560178756714,-0.85,2.08,-1.37,2.63
30.012725114822388,-0.8,1.13,-1.29,1.89
30.014286994934082,-0.71,0.12,-1.0,1.23
30.03368616104126,-0.64,-0.85,-1.0,1.46
30.03435516357422,-0.61,-1.65,-1.37,2.22
30.035410165786743,-0.63,-2.14,-1.87,2.91
30.06360626220703,-0.7,-2.29,-2.19,3.24
30.065182209014893,-0.87,-2.01,-2.0,2.96
30.065793991088867,-0.91,-1.56,-1.64,2.43
30.075637340545654,-0.82,-1.05,-1.54,2.03
30.085325241088867,-0.67,-0.44,-1.37,1.58
30.1131010055542,-0.53,0.24,-1.04,1.19
30.114654064178467,-0.29,0.82,-0.76,1.15
30.115292072296143,0.06,1.28,-0.6,1.41
30.125447273254395,0.33,1.69,-0.55,1.8
30.135251998901367,0.4,2.0,-0.51,2.1
30.163218021392822,0.37,2.13,-0.41,2.2
30.164637088775635,0.41,1.87,-0.33,1.94
30.165399074554443,0.47,1.32,-0.35,1.44
30.175263166427612,0.52,0.61,-0.44,0.91
30.185399055480957,0.57,-0.2,-0.53,0.8
30.216524124145508,0.67,-0.95,-0.64,1.32
30.218231201171875,0.6,-1.49,-0.8,1.79
30.218882083892822,0.49,-1.79,-0.87,2.04
