time,ax,ay,az,atotal
0.009978771209716797,-0.24,0.05,-0.27,0.36
0.016460895538330078,-0.25,0.22,-0.09,0.34
0.02671194076538086,-0.17,0.11,0.18,0.27
0.045350074768066406,-0.1,0.01,0.2,0.22
0.04637598991394043,-0.09,-0.03,-0.07,0.11
0.05654096603393555,-0.07,-0.02,-0.25,0.26
0.06651496887207031,-0.08,0.0,-0.21,0.22
0.07665681838989258,-0.08,-0.02,-0.12,0.14
0.09657597541809082,-0.12,-0.02,-0.18,0.21
0.09703397750854492,-0.14,0.03,-0.16,0.21
0.10657691955566406,-0.13,0.05,0.06,0.15
0.11658096313476562,-0.1,0.05,0.18,0.21
0.12682199478149414,-0.05,0.07,0.11,0.13
0.14722895622253418,-0.08,0.0,-0.15,0.17
0.14766597747802734,-0.07,-0.08,-0.39,0.4
0.15683889389038086,-0.1,-0.08,-0.45,0.46
0.16672706604003906,-0.03,0.0,-0.14,0.14
0.17679405212402344,0.02,-0.05,0.19,0.19
0.19749975204467773,0.05,-0.05,0.18,0.19
0.19796276092529297,-0.02,-0.06,0.11,0.12
0.20682001113891602,-0.11,-0.07,0.16,0.2
0.21673107147216797,-0.09,-0.06,0.09,0.14
0.2267138957977295,-0.09,-0.03,0.0,0.09
0.24705791473388672,-0.03,0.02,-0.02,0.04
0.2474989891052246,0.05,0.05,0.08,0.1
0.25666379928588867,0.06,0.05,0.15,0.16
0.26661205291748047,0.1,0.05,0.05,0.12
0.27687597274780273,0.1,0.07,-0.03,0.12
0.2976827621459961,0.09,0.05,-0.06,0.11
0.29812192916870117,0.03,0.0,-0.03,0.04
0.3068258762359619,-0.04,-0.03,0.03,0.05
0.31673693656921387,-0.1,-0.08,0.09,0.15
0.32678699493408203,-0.13,-0.08,0.12,0.19
0.34827709197998047,-0.08,-0.05,0.23,0.24
0.34873008728027344,-0.06,-0.03,0.26,0.26
0.35689210891723633,-0.02,0.02,0.24,0.24
0.3666958808898926,-0.01,0.02,0.21,0.21
0.37683796882629395,-0.04,0.02,0.12,0.12
0.39811277389526367,-0.03,0.0,-0.04,0.05
0.39869189262390137,-0.04,0.05,-0.11,0.12
0.40685606002807617,-0.04,0.01,-0.1,0.1
0.41680097579956055,-0.02,-0.04,0.04,0.06
0.42683887481689453,-0.02,0.02,0.1,0.1
0.4484238624572754,-0.03,0.1,0.1,0.14
0.4489908218383789,-0.06,0.14,0.13,0.2
0.45691394805908203,-0.11,0.17,0.12,0.23
0.46677088737487793,-0.07,0.12,-0.05,0.14
0.47693300247192383,-0.07,0.1,-0.26,0.28
0.4990808963775635,-0.08,0.04,-0.33,0.34
0.499661922454834,-0.02,-0.02,-0.21,0.21
0.506807804107666,0.0,-0.04,-0.04,0.05
0.5167980194091797,0.02,-0.01,0.1,0.1
0.5269250869750977,0.05,0.02,0.06,0.08
0.5488269329071045,0.08,0.02,0.06,0.1
0.5492978096008301,0.05,0.03,0.06,0.08
0.5568537712097168,0.05,0.04,-0.01,0.06
0.5668230056762695,0.04,0.01,-0.21,0.21
0.5768609046936035,0.01,-0.03,-0.41,0.41
0.598355770111084,0.01,-0.1,-0.34,0.35
0.5987677574157715,0.01,-0.14,-0.17,0.22
0.6068089008331299,0.01,-0.16,0.06,0.17
0.6168279647827148,0.05,-0.18,0.28,0.33
0.6269478797912598,0.1,-0.2,0.36,0.42
0.6478979587554932,0.15,-0.14,0.27,0.33
0.6484460830688477,0.14,-0.07,0.03,0.15
0.6570940017700195,0.12,0.0,-0.13,0.17
0.666752815246582,0.08,0.05,-0.16,0.18
0.6769437789916992,0.04,0.04,-0.07,0.09
0.6980948448181152,-0.01,0.04,0.09,0.09
0.698512077331543,-0.04,0.04,0.27,0.27
0.7068428993225098,0.02,0.04,0.3,0.3
0.7168118953704834,0.06,0.06,0.21,0.22
0.7268810272216797,0.08,0.11,0.15,0.2
0.748593807220459,0.1,0.15,0.24,0.3
0.7490489482879639,0.1,0.18,0.24,0.31
0.7569019794464111,0.1,0.14,0.12,0.2
0.7668459415435791,0.11,0.09,0.17,0.22
0.7769849300384521,0.15,0.03,0.23,0.27
0.7992658615112305,0.22,-0.08,0.22,0.32
0.7998390197753906,0.24,-0.18,0.29,0.41
0.8068938255310059,0.28,-0.23,0.25,0.44
0.8168668746948242,0.33,-0.27,0.25,0.49
0.8269038200378418,0.36,-0.31,0.31,0.56
0.849822998046875,0.36,-0.33,0.41,0.63
0.8503539562225342,0.39,-0.35,0.44,0.68
0.8567988872528076,0.36,-0.38,0.44,0.68
0.8668859004974365,0.4,-0.43,0.55,0.8
0.8767690658569336,0.44,-0.41,0.62,0.86
0.8993978500366211,0.43,-0.43,0.6,0.85
0.8998928070068359,0.36,-0.46,0.46,0.74
0.9069359302520752,0.32,-0.52,0.5,0.78
0.9168200492858887,0.31,-0.51,0.59,0.83
0.9268519878387451,0.33,-0.35,0.72,0.86
0.949415922164917,0.38,-0.24,0.96,1.06
0.9499368667602539,0.43,-0.2,1.01,1.11
0.9569830894470215,0.48,-0.09,0.8,0.93
0.9667229652404785,0.48,-0.01,0.56,0.73
0.9769389629364014,0.44,0.03,0.46,0.63
0.9992880821228027,0.43,0.01,0.45,0.62
0.9998087882995605,0.33,-0.14,0.41,0.54
1.0069348812103271,0.25,-0.3,0.35,0.52
1.01680588722229,0.15,-0.43,0.33,0.56
1.0269088745117188,0.05,-0.63,0.31,0.7
1.048827886581421,-0.07,-0.89,0.32,0.94
1.0492677688598633,-0.19,-1.15,0.3,1.2
1.0567717552185059,-0.3,-1.24,0.31,1.31
1.0667119026184082,-0.45,-1.08,0.42,1.24
1.0769457817077637,-0.51,-0.76,0.75,1.18
1.099256992340088,-0.69,-0.39,1.21,1.44
1.0996990203857422,-0.78,-0.14,1.6,1.78
1.106848955154419,-0.82,0.06,1.5,1.71
1.1168360710144043,-0.93,0.06,1.08,1.42
1.1269607543945312,-1.02,0.13,0.84,1.32
1.1490497589111328,-1.05,0.21,0.85,1.36
1.1494829654693604,-1.14,0.23,1.0,1.53
1.15702486038208,-1.2,0.32,1.4,1.87
1.1667890548706055,-1.2,0.47,1.73,2.15
1.1769309043884277,-1.23,0.61,1.94,2.37
1.1998357772827148,-1.16,0.78,1.98,2.42
1.2002787590026855,-0.98,0.9,1.96,2.36
1.206934928894043,-0.91,0.85,1.97,2.33
1.2171010971069336,-0.73,0.43,1.85,2.03
1.2269809246063232,-0.57,-0.04,1.53,1.63
1.2497577667236328,-0.45,-0.34,1.31,1.42
1.2502028942108154,-0.31,-0.6,1.45,1.59
1.2571289539337158,-0.18,-0.85,1.67,1.88
1.2668228149414062,-0.08,-1.1,1.8,2.11
1.277148962020874,-0.01,-1.27,1.82,2.21
1.299597978591919,0.09,-1.38,1.73,2.21
1.3000519275665283,0.11,-1.47,1.66,2.22
1.3069868087768555,0.08,-1.44,1.63,2.17
1.3168599605560303,-0.05,-1.32,1.62,2.09
1.3269658088684082,-0.13,-1.16,1.55,1.94
1.3503680229187012,-0.18,-0.97,1.5,1.79
1.350907802581787,-0.23,-0.85,1.56,1.79
1.356813907623291,-0.21,-0.68,1.62,1.76
1.366797924041748,-0.24,-0.43,1.58,1.65
1.3769938945770264,-0.32,-0.07,1.56,1.59
1.399960994720459,-0.37,0.24,1.59,1.65
1.4003868103027344,-0.39,0.41,1.55,1.65
1.4070258140563965,-0.4,0.54,1.43,1.58
1.4169518947601318,-0.33,0.58,1.32,1.47
1.4270610809326172,-0.28,0.61,1.26,1.42
1.450084924697876,-0.28,0.7,1.24,1.45
1.4504847526550293,-0.28,0.91,1.27,1.58
1.4570260047912598,-0.3,1.15,1.34,1.79
1.4669690132141113,-0.31,1.3,1.38,1.92
1.4770817756652832,-0.32,1.46,1.34,2.0
1.5000357627868652,-0.38,1.64,1.2,2.06
1.5004820823669434,-0.45,1.9,1.3,2.34
1.5070610046386719,-0.52,2.13,1.48,2.64
1.516974925994873,-0.56,2.16,1.74,2.82
1.5270559787750244,-0.58,2.1,2.06,2.99
1.5501837730407715,-0.65,2.09,2.28,3.16
1.550642967224121,-0.66,2.2,2.4,3.32
1.556947946548462,-0.73,2.26,2.32,3.32
1.5669927597045898,-0.81,2.22,1.9,3.03
1.5771007537841797,-0.82,2.23,1.15,2.63
1.600205898284912,-0.73,2.36,0.47,2.51
1.600658893585205,-0.63,2.58,0.16,2.66
1.6069309711456299,-0.4,3.03,0.22,3.06
1.6170368194580078,0.0,3.23,0.19,3.23
1.6270809173583984,0.39,3.03,0.04,3.05
1.6500778198242188,0.82,2.38,-0.42,2.55
1.6505088806152344,1.05,1.61,-1.1,2.21
1.6570188999176025,1.07,0.82,-1.86,2.29
1.6668949127197266,1.04,0.13,-2.46,2.67
1.6770968437194824,0.92,-0.49,-2.66,2.85
1.6997990608215332,0.95,-1.18,-2.29,2.74
1.700286865234375,1.04,-1.81,-1.46,2.54
1.7068989276885986,1.1,-2.2,-0.77,2.57
1.7169718742370605,1.23,-2.3,-0.34,2.63
1.7270917892456055,1.22,-2.01,-0.09,2.35
1.749086856842041,1.18,-1.48,-0.11,1.89
1.7495417594909668,1.03,-1.03,-0.17,1.46
1.7570300102233887,0.81,-0.54,-0.02,0.97
1.7671148777008057,0.62,-0.21,0.16,0.67
1.7772119045257568,0.41,-0.18,0.47,0.64
1.800048828125,0.25,-0.24,0.56,0.65
1.8004989624023438,0.13,-0.43,0.32,0.55
1.8070728778839111,0.04,-0.87,-0.03,0.87
1.8170838356018066,-0.03,-1.38,-0.17,1.39
1.8271229267120361,-0.05,-1.83,-0.19,1.84
1.8507990837097168,0.03,-2.22,0.02,2.22
1.851243019104004,0.14,-2.56,0.45,2.6
1.8570499420166016,0.26,-2.78,0.81,2.9
1.8670899868011475,0.34,-2.89,0.94,3.05
1.877129077911377,0.49,-2.92,0.85,3.08
1.9011850357055664,0.52,-2.84,0.7,2.97
1.901735782623291,0.5,-2.66,0.7,2.79
1.9071168899536133,0.46,-2.37,0.81,2.54
1.9173469543457031,0.36,-2.01,0.93,2.24
1.9272770881652832,0.25,-1.67,1.01,1.96
1.950866937637329,0.24,-1.4,1.14,1.82
1.9512939453125,0.33,-1.15,1.14,1.65
1.9571828842163086,0.37,-0.94,1.08,1.47
1.9671478271484375,0.4,-0.85,1.02,1.38
1.9771747589111328,0.41,-0.77,0.83,1.2
2.00095796585083,0.45,-0.69,0.56,0.99
2.0014047622680664,0.46,-0.67,0.34,0.88
2.0071089267730713,0.47,-0.61,0.32,0.83
2.017007827758789,0.54,-0.44,0.48,0.84
2.027122974395752,0.68,-0.21,0.69,0.99
2.049570083618164,0.8,0.02,0.88,1.18
2.050014019012451,0.94,0.31,1.02,1.42
2.0570149421691895,1.18,0.71,1.26,1.86
2.0669729709625244,1.35,1.13,1.46,2.28
2.077177047729492,1.43,1.5,1.65,2.64
2.0987958908081055,1.47,1.89,1.88,3.04
2.0991621017456055,1.42,2.27,2.07,3.38
2.1069960594177246,1.31,2.56,2.09,3.55
2.117006778717041,1.17,2.72,1.93,3.53
2.127018928527832,1.11,2.81,1.68,3.45
2.1499059200286865,1.08,2.82,1.42,3.33
2.1503429412841797,1.06,2.78,1.29,3.24
2.15714693069458,1.02,2.78,1.52,3.32
2.167069911956787,0.88,3.04,1.83,3.65
2.1771609783172607,0.68,3.36,2.03,3.98
2.200885772705078,0.44,3.33,1.73,3.77
2.201326847076416,0.32,3.08,0.37,3.11
2.2071399688720703,0.16,3.0,-0.87,3.12
2.2170310020446777,0.07,3.0,-0.99,3.15
2.227275848388672,-0.18,2.6,-1.11,2.83
2.250990867614746,-0.38,1.89,-1.79,2.63
2.2514400482177734,-0.62,1.22,-2.51,2.85
2.2571349143981934,-0.85,0.65,-2.98,3.16
2.2670488357543945,-1.08,0.25,-2.87,3.07
2.2772529125213623,-1.42,-0.2,-2.39,2.78
2.300778865814209,-1.66,-0.91,-2.22,2.91
2.301224946975708,-1.81,-1.45,-2.09,3.12
2.3071160316467285,-1.87,-1.55,-1.92,3.09
2.317214012145996,-1.68,-1.42,-1.65,2.74
2.3272390365600586,-1.53,-1.01,-1.38,2.29
2.3520619869232178,-1.31,-0.32,-1.28,1.85
2.3525149822235107,-1.06,0.24,-1.08,1.53
2.3572089672088623,-0.82,0.7,-0.89,1.39
2.3672258853912354,-0.64,1.05,-0.84,1.48
2.3773229122161865,-0.54,1.17,-0.71,1.47
2.387148857116699,-0.4,0.89,-0.74,1.22
2.4026529788970947,-0.38,0.35,-0.81,0.96
2.4071359634399414,-0.48,-0.18,-0.74,0.9
2.4172239303588867,-0.61,-0.77,-0.5,1.1
2.427258014678955,-0.48,-1.43,-0.36,1.55
2.4372289180755615,-0.75,-1.92,-0.48,2.11
2.452136993408203,-0.74,-2.31,-0.55,2.48
2.457343101501465,-0.67,-2.46,-0.22,2.55
2.4672329425811768,-0.46,-2.83,0.06,2.86
2.477313995361328,-0.15,-3.13,0.0,3.13
2.4872450828552246,-0.01,-3.25,-0.15,3.25
2.502346992492676,0.09,-3.31,-0.08,3.31
2.507229804992676,0.15,-3.23,0.0,3.23
2.5172548294067383,0.14,-3.2,-0.16,3.2
2.5272068977355957,0.05,-3.21,-0.46,3.24
2.5372519493103027,-0.02,-3.17,-0.51,3.21
2.552794933319092,-0.09,-3.03,-0.3,3.04
2.5573620796203613,-0.15,-2.75,0.02,2.75
2.5672919750213623,-0.22,-2.38,0.4,2.42
2.57725191116333,-0.22,-1.86,0.72,2.0
2.587247848510742,-0.25,-1.21,0.9,1.52
2.603034019470215,-0.35,-0.54,0.84,1.05
2.6072468757629395,-0.51,0.08,0.62,0.8
2.6173629760742188,-0.62,0.56,0.49,0.96
2.62739896774292,-0.71,0.84,0.52,1.21
2.6372528076171875,-0.82,0.86,0.42,1.26
2.6526808738708496,-0.9,0.74,0.53,1.28
2.6573047637939453,-0.94,0.63,0.84,1.4
2.6673009395599365,-0.88,0.53,1.1,1.5
2.67744779586792,-0.75,0.47,1.32,1.58
2.6872668266296387,-0.67,0.55,1.36,1.61
2.7025060653686523,-0.63,0.77,1.26,1.6
2.707261085510254,-0.64,1.13,1.09,1.69
2.7172670364379883,-0.67,1.48,1.03,1.92
2.727324962615967,-0.68,1.85,1.23,2.32
2.7373080253601074,-0.81,2.01,1.59,2.68
2.753041982650757,-0.82,2.04,1.8,2.84
2.7573249340057373,-0.84,1.95,1.92,2.86
2.7672410011291504,-0.84,1.69,2.03,2.77
2.7774388790130615,-0.82,1.49,1.81,2.48
2.7873449325561523,-0.7,1.55,1.73,2.42
2.8035378456115723,-0.46,1.85,2.01,2.77
2.8072569370269775,-0.02,2.15,2.02,2.95
2.8173270225524902,-0.19,2.27,1.4,2.67
2.8274309635162354,-0.42,2.0,0.38,2.07
2.837340831756592,-0.08,1.51,-1.36,2.03
2.853738784790039,-0.36,1.08,-2.45,2.7
2.857280969619751,-0.37,0.44,-2.06,2.13
2.8673179149627686,-0.14,-0.32,-1.29,1.33
2.87748384475708,0.17,-0.36,-0.81,0.9
2.887295961380005,0.57,0.07,-0.63,0.85
2.9030380249023438,1.03,0.31,-0.47,1.17
2.907345771789551,1.38,0.32,-0.42,1.47
2.9174118041992188,1.61,0.35,-0.75,1.81
2.927443027496338,1.68,0.55,-1.45,2.28
2.9373018741607666,1.61,0.65,-2.09,2.71
2.952877998352051,1.52,0.76,-2.18,2.76
2.95723295211792,1.24,0.82,-1.7,2.25
2.967280864715576,0.75,0.83,-0.98,1.48
2.9774560928344727,0.16,0.69,-0.41,0.81
2.987407922744751,-0.35,0.25,-0.11,0.44
3.003326892852783,-0.87,-0.24,0.04,0.9
3.0073959827423096,-1.17,-0.76,0.18,1.4
3.0173988342285156,-1.23,-1.29,0.25,1.79
3.0274600982666016,-1.22,-1.77,0.31,2.17
3.037552833557129,-1.07,-2.05,0.4,2.34
3.053778886795044,-0.82,-2.24,0.49,2.43
3.057356834411621,-0.53,-2.41,0.4,2.49
3.0673117637634277,-0.21,-2.58,0.11,2.59
3.077554941177368,-0.05,-2.64,-0.22,2.64
3.0873279571533203,0.15,-2.52,-0.37,2.55
3.1041359901428223,0.31,-2.37,-0.21,2.39
3.107485771179199,0.32,-2.27,0.16,2.29
3.1174960136413574,0.23,-2.14,0.49,2.2
3.127516984939575,0.12,-1.99,0.71,2.11
3.1374387741088867,0.0,-1.79,0.83,1.97
3.15402889251709,-0.08,-1.61,0.92,1.85
3.157249927520752,-0.08,-1.39,0.71,1.56
3.1673150062561035,-0.08,-1.12,0.58,1.26
3.1775588989257812,0.06,-0.8,0.66,1.03
3.187445878982544,0.21,-0.46,0.59,0.77
3.2040328979492188,0.27,-0.2,0.56,0.65
3.207509994506836,0.33,-0.03,0.68,0.75
3.217494010925293,0.4,0.11,0.78,0.88
3.2275469303131104,0.42,0.24,0.87,0.99
3.2374119758605957,0.41,0.37,1.08,1.21
3.2549259662628174,0.43,0.57,1.04,1.26
3.257211923599243,0.42,0.97,0.77,1.3
3.2675678730010986,0.51,1.49,0.8,1.76
3.277690887451172,0.59,2.08,1.15,2.44
3.2874159812927246,0.67,2.45,1.57,2.98
3.304311752319336,0.75,2.73,1.62,3.26
3.3073787689208984,0.82,2.75,1.43,3.2
3.3174548149108887,0.75,2.57,1.42,3.03
3.3274219036102295,0.7,2.36,1.41,2.83
3.337522029876709,0.72,2.21,1.46,2.74
3.354422092437744,0.64,2.07,1.44,2.6
3.3573389053344727,0.63,2.12,1.41,2.62
3.3675107955932617,0.56,2.35,1.65,2.92
3.377565860748291,0.41,2.47,1.57,2.95
3.387479782104492,0.1,2.43,0.45,2.47
3.4037890434265137,-0.37,2.37,-1.3,2.72
3.4073069095611572,-0.76,2.37,-2.05,3.22
3.4174180030822754,-1.03,2.08,-1.92,3.01
3.4274919033050537,-1.25,1.1,-2.48,2.98
3.437337875366211,-1.55,0.62,-3.13,3.54
3.454352855682373,-1.6,0.55,-2.7,3.18
3.4572367668151855,-1.52,0.61,-1.62,2.3
3.4676239490509033,-1.38,0.48,-0.93,1.73
3.477552890777588,-1.35,0.19,-1.18,1.8
3.4875009059906006,-1.52,-0.11,-1.57,2.18
3.5040178298950195,-1.32,-0.17,-2.1,2.48
3.5072669982910156,-1.43,-0.29,-2.18,2.62
3.5175039768218994,-1.31,-0.39,-1.68,2.16
3.5275440216064453,-1.32,-0.44,-0.58,1.5
3.53764009475708,-0.43,0.5,-0.56,0.86
3.5540337562561035,-0.47,0.48,-0.61,0.9
3.5574140548706055,-0.05,0.5,-0.21,0.54
3.567491054534912,0.25,0.34,0.05,0.42
3.5774779319763184,0.4,0.0,-0.05,0.4
3.587535858154297,0.35,-0.49,-0.16,0.62
3.6036758422851562,0.13,-0.93,-0.29,0.98
3.6073927879333496,-0.14,-1.3,-0.36,1.35
3.6174728870391846,-0.36,-1.74,-0.2,1.78
3.6273961067199707,-0.53,-2.24,0.05,2.3
3.6376399993896484,-0.59,-2.62,0.17,2.69
3.6540307998657227,-0.56,-3.0,0.14,3.05
3.6573147773742676,-0.5,-3.36,0.07,3.39
3.6676809787750244,-0.42,-3.69,-0.02,3.71
3.6776089668273926,-0.33,-3.88,-0.21,3.89
3.6875338554382324,-0.28,-3.9,-0.29,3.92
3.7039129734039307,-0.15,-3.71,-0.29,3.72
3.70731782913208,-0.05,-3.44,-0.21,3.44
3.717517852783203,0.0,-3.12,0.05,3.12
3.727451801300049,-0.01,-2.78,0.27,2.79
3.737569808959961,-0.1,-2.36,0.45,2.4
3.7543718814849854,-0.19,-1.81,0.52,1.89
3.7573599815368652,-0.27,-1.16,0.52,1.29
3.7677628993988037,-0.42,-0.6,0.58,0.93
3.777653932571411,-0.58,-0.1,0.54,0.79
3.787677764892578,-0.76,0.28,0.37,0.89
3.804783821105957,-0.96,0.56,0.19,1.12
3.8074188232421875,-1.07,0.88,0.32,1.42
3.8176040649414062,-1.07,1.22,0.59,1.72
3.827549934387207,-0.99,1.64,0.94,2.13
3.837702989578247,-0.84,2.01,1.28,2.52
3.854994773864746,-0.67,2.35,1.54,2.88
3.8574509620666504,-0.43,2.62,1.65,3.12
3.8676888942718506,-0.25,2.7,1.46,3.07
3.8777518272399902,-0.3,2.57,1.23,2.86
3.887645959854126,-0.39,2.39,1.21,2.7
3.9044339656829834,-0.53,2.2,1.15,2.53
3.9074769020080566,-0.92,2.02,1.14,2.49
3.9176669120788574,-1.16,2.13,1.53,2.86
3.927764892578125,-0.99,2.82,2.31,3.77
3.9376869201660156,-0.5,3.35,2.31,4.09
3.9550459384918213,0.1,3.03,0.81,3.13
3.9576289653778076,0.46,2.62,-1.17,2.9
3.9677019119262695,0.77,2.3,-1.87,3.06
3.9775190353393555,0.93,1.33,-1.63,2.3
3.9875597953796387,0.96,0.5,-1.87,2.16
4.003838062286377,1.0,0.28,-2.22,2.45
4.0047688484191895,1.03,0.4,-1.9,2.19
4.014960765838623,1.1,0.47,-1.21,1.7
4.024775981903076,1.11,0.53,-0.68,1.4
4.035093784332275,1.18,0.53,-0.48,1.37
4.054059028625488,1.28,0.43,-0.65,1.49
4.054895877838135,0.95,0.26,-1.22,1.56
4.064941883087158,0.6,0.03,-1.84,1.93
4.074950933456421,0.46,-0.17,-1.74,1.8
4.085140943527222,0.45,-0.29,-0.86,1.01
4.105007886886597,0.35,-0.36,-0.12,0.51
4.1054840087890625,-0.03,-0.45,0.02,0.45
4.115056037902832,-0.44,-0.72,0.15,0.85
4.125137805938721,-0.69,-1.1,-0.02,1.29
4.135221004486084,-0.82,-1.54,-0.27,1.76
4.15477991104126,-0.67,-2.0,-0.4,2.14
4.15524697303772,-0.46,-2.39,-0.44,2.47
4.164975881576538,-0.2,-2.7,-0.35,2.72
4.17498779296875,0.03,-2.97,-0.19,2.97
4.185211896896362,0.26,-3.18,-0.02,3.19
4.204577922821045,0.5,-3.19,0.19,3.23
4.2050299644470215,0.65,-3.08,0.27,3.15
4.215116024017334,0.6,-2.9,0.28,2.97
4.225019931793213,0.59,-2.72,0.26,2.79
4.235169887542725,0.56,-2.55,0.13,2.61
4.255149841308594,0.51,-2.34,0.1,2.39
4.255598068237305,0.41,-2.07,0.23,2.12
4.265084981918335,0.27,-1.78,0.44,1.85
4.275007963180542,0.15,-1.47,0.54,1.57
4.285082817077637,0.15,-1.16,0.54,1.28
4.304747104644775,0.22,-0.94,0.54,1.1
4.305194854736328,0.42,-0.77,0.68,1.1
4.315205097198486,0.57,-0.63,0.8,1.16
4.325054883956909,0.75,-0.51,0.9,1.27
4.335355758666992,0.88,-0.35,0.65,1.14
4.355715990066528,1.09,0.06,0.49,1.19
4.3561530113220215,1.2,0.67,0.75,1.56
4.365120887756348,1.24,1.43,1.25,2.26
4.375037908554077,1.26,2.23,1.94,3.21
4.3851659297943115,1.31,2.96,2.38,4.01
4.405772924423218,1.21,3.42,2.25,4.26
4.406259059906006,1.03,3.65,1.69,4.15
4.415491104125977,0.81,3.48,1.16,3.75
4.425249099731445,0.57,3.16,0.72,3.29
4.43543004989624,0.45,2.94,0.55,3.02
4.456254005432129,0.39,2.72,0.91,2.89
4.456692934036255,0.41,2.6,1.49,3.02
4.465331077575684,0.32,3.02,1.74,3.5
4.475205898284912,0.14,3.29,1.49,3.61
4.485291004180908,-0.11,3.07,0.2,3.07
4.50616979598999,-0.28,2.79,-1.31,3.09
4.506633758544922,-0.44,2.42,-1.65,2.96
4.515340805053711,-0.56,1.49,-1.64,2.28
4.525160789489746,-0.76,0.62,-2.01,2.23
4.5353899002075195,-0.92,0.22,-2.37,2.55
4.556163787841797,-0.95,-0.1,-2.31,2.49
4.556627988815308,-0.9,-0.16,-1.83,2.04
4.565497875213623,-0.91,-0.1,-1.12,1.44
4.575267791748047,-1.03,-0.21,-1.1,1.52
4.585360050201416,-1.1,-0.16,-1.58,1.93
4.606208801269531,-1.19,0.2,-1.99,2.32
4.60664701461792,-1.34,0.58,-2.13,2.58
4.615401983261108,-1.39,0.85,-1.78,2.41
4.625252962112427,-1.33,1.0,-1.22,2.06
4.635523796081543,-1.18,0.95,-0.92,1.77
4.655971050262451,-0.79,0.88,-0.69,1.36
4.656426906585693,-0.34,0.59,-0.4,0.78
4.665454864501953,0.01,0.09,-0.35,0.36
4.675251007080078,0.19,-0.46,-0.26,0.56
4.685367107391357,0.21,-1.08,-0.1,1.1
4.706430912017822,0.15,-1.74,0.1,1.74
4.706897974014282,-0.01,-2.36,0.29,2.37
4.715379953384399,-0.14,-2.86,0.26,2.87
4.725362777709961,-0.24,-3.31,0.1,3.32
4.735527038574219,-0.29,-3.61,-0.09,3.62
4.7563347816467285,-0.3,-3.76,-0.34,3.78
4.756808757781982,-0.29,-3.87,-0.52,3.91
4.765408992767334,-0.19,-3.85,-0.54,3.89
4.775502920150757,-0.15,-3.75,-0.55,3.79
4.785506963729858,-0.11,-3.55,-0.56,3.59
4.806613922119141,-0.05,-3.29,-0.49,3.32
4.807069778442383,-0.04,-2.92,-0.37,2.94
4.81550407409668,-0.15,-2.48,-0.15,2.48
4.825470924377441,-0.25,-1.98,0.15,2.0
4.83565092086792,-0.33,-1.52,0.28,1.58
4.85697078704834,-0.5,-1.18,0.35,1.32
4.857463836669922,-0.65,-0.92,0.33,1.17
4.8654890060424805,-0.76,-0.69,0.29,1.06
4.87560510635376,-0.77,-0.46,0.34,0.95
4.885487079620361,-0.76,-0.08,0.26,0.8
4.906089782714844,-0.79,0.54,0.32,1.0
4.906523942947388,-0.75,1.29,0.85,1.71
4.915458917617798,-0.68,1.82,1.29,2.33
4.925688982009888,-0.59,2.12,1.29,2.55
4.93549108505249,-0.52,2.35,1.17,2.67
4.956674098968506,-0.5,2.52,1.34,2.89
4.957082986831665,-0.52,2.59,1.4,2.98
4.96555495262146,-0.59,2.48,1.33,2.87
4.975809097290039,-0.73,2.35,1.34,2.8
4.985527038574219,-0.87,2.26,1.43,2.81
5.006629943847656,-0.87,2.22,1.62,2.88
5.007111072540283,-0.92,2.49,2.0,3.32
5.015394926071167,-0.79,3.07,2.37,3.95
5.0258708000183105,-0.47,3.27,1.97,3.84
5.035576820373535,-0.08,3.18,0.4,3.2
5.056416034698486,0.21,3.21,-0.78,3.31
5.056850910186768,0.49,2.88,-0.98,3.08
5.065449953079224,0.77,1.84,-1.1,2.27
5.075987815856934,0.84,0.95,-2.06,2.41
5.0855278968811035,0.97,1.0,-2.78,3.1
5.106929779052734,1.16,1.08,-2.28,2.77
5.1072998046875,1.33,0.76,-1.61,2.22
5.115604877471924,1.45,0.49,-1.34,2.03
5.125393867492676,1.42,0.33,-1.48,2.07
5.139950752258301,1.33,0.28,-1.58,2.08
5.145473957061768,1.11,0.03,-1.66,1.99
5.155405044555664,0.91,-0.09,-1.61,1.85
5.16550087928772,0.66,-0.01,-1.19,1.36
5.175473928451538,0.36,0.19,-0.73,0.83
5.190993785858154,-0.09,0.2,-0.45,0.5
5.195528984069824,-0.46,-0.16,-0.44,0.65
5.20549201965332,-0.78,-0.75,-0.54,1.2
5.215620040893555,-0.86,-1.35,-0.46,1.66
5.225509881973267,-0.81,-1.94,-0.25,2.11
5.240775108337402,-0.62,-2.43,-0.1,2.5
5.245579957962036,-0.41,-2.85,-0.14,2.88
5.255537033081055,-0.11,-3.2,-0.17,3.2
5.265533924102783,0.17,-3.41,-0.18,3.41
5.275589942932129,0.35,-3.42,-0.17,3.44
5.2910990715026855,0.39,-3.26,-0.21,3.28
5.295344829559326,0.4,-3.03,-0.29,3.07
5.305469989776611,0.44,-2.74,-0.18,2.78
5.315680980682373,0.57,-2.4,0.02,2.46
5.325407981872559,0.53,-2.18,0.06,2.24
5.340662002563477,0.47,-1.97,0.08,2.02
5.345552921295166,0.42,-1.69,0.17,1.74
5.355559825897217,0.35,-1.42,0.16,1.47
5.365542888641357,0.27,-1.18,0.21,1.22
5.375586986541748,0.34,-0.88,0.39,1.02
5.3913187980651855,0.53,-0.64,0.48,0.95
5.395451068878174,0.7,-0.46,0.53,0.99
5.405641078948975,0.93,-0.28,0.75,1.22
5.4157938957214355,0.97,-0.1,0.84,1.28
5.42565393447876,0.92,0.11,0.83,1.24
5.4417548179626465,0.81,0.42,0.83,1.23
5.445432901382446,0.72,0.91,0.93,1.48
5.455631971359253,0.66,1.61,1.33,2.19
5.465763092041016,0.5,2.22,1.52,2.73
5.475461959838867,0.43,2.62,1.12,2.88
5.490868091583252,0.46,2.79,0.78,2.93
5.495665073394775,0.51,2.73,0.89,2.91
5.505671977996826,0.49,2.5,1.12,2.78
5.515717029571533,0.48,2.21,1.21,2.56
5.525597095489502,0.58,1.94,1.37,2.44
5.5413548946380615,0.74,1.79,1.49,2.44
5.5454630851745605,0.8,2.03,1.55,2.67
5.555653095245361,0.69,2.7,1.59,3.2
5.565631866455078,0.39,3.29,1.45,3.61
5.575551986694336,0.01,3.2,0.19,3.2
5.591085910797119,-0.42,2.94,-1.57,3.35
5.595432758331299,-0.71,2.61,-2.18,3.47
5.6055309772491455,-0.86,1.62,-2.0,2.71
5.61561393737793,-1.07,0.57,-2.12,2.44
5.625529766082764,-1.16,0.12,-2.51,2.76
5.641500949859619,-1.07,0.03,-2.28,2.51
5.645596027374268,-0.89,0.05,-1.45,1.7
5.6554670333862305,-0.76,-0.05,-0.88,1.16
5.665618896484375,-0.76,-0.18,-1.25,1.47
5.675437927246094,-0.9,-0.11,-1.77,1.98
5.691341876983643,-1.06,0.09,-1.88,2.16
5.695415019989014,-1.07,0.29,-1.65,1.98
5.705538988113403,-0.99,0.5,-1.24,1.66
5.715640068054199,-0.77,0.69,-0.83,1.32
5.725461959838867,-0.48,0.82,-0.6,1.12
5.74134087562561,-0.11,0.83,-0.45,0.95
5.745503902435303,0.24,0.64,-0.47,0.82
5.755595922470093,0.55,0.22,-0.43,0.73
5.765573024749756,0.68,-0.28,-0.3,0.79
5.775625944137573,0.62,-0.79,-0.34,1.06
5.791311979293823,0.46,-1.39,-0.28,1.49
5.795474052429199,0.29,-1.95,-0.08,1.97
5.805490016937256,0.1,-2.4,0.01,2.4
5.8158118724823,-0.11,-2.76,-0.1,2.76
5.825650930404663,-0.23,-3.01,-0.19,3.02
5.84227991104126,-0.29,-3.14,-0.11,3.15
5.84568977355957,-0.31,-3.21,-0.11,3.22
5.85565710067749,-0.21,-3.19,-0.2,3.2
5.8656768798828125,-0.14,-3.17,-0.3,3.18
5.875675916671753,-0.12,-3.19,-0.37,3.21
5.891742944717407,-0.15,-3.25,-0.42,3.28
5.8955159187316895,-0.18,-3.15,-0.21,3.16
5.905504941940308,-0.28,-2.89,0.17,2.9
5.915881872177124,-0.36,-2.49,0.52,2.56
5.925622940063477,-0.41,-1.94,0.73,2.11
5.941539764404297,-0.41,-1.33,0.77,1.59
5.945542812347412,-0.38,-0.82,0.83,1.22
5.955772876739502,-0.36,-0.38,0.79,0.94
5.965743064880371,-0.31,0.06,0.48,0.57
5.9756760597229,-0.3,0.49,0.13,0.58
5.991652011871338,-0.34,0.81,0.2,0.9
5.995544910430908,-0.35,1.04,0.61,1.25
6.005541801452637,-0.35,1.25,0.86,1.55
6.015870094299316,-0.37,1.48,1.0,1.82
6.025728940963745,-0.47,1.75,1.23,2.19
6.042266845703125,-0.55,1.95,1.38,2.45
6.045525074005127,-0.64,1.95,1.37,2.46
6.055647850036621,-0.79,1.81,1.16,2.29
6.065723896026611,-0.9,1.72,1.08,2.22
6.075774908065796,-1.05,1.54,1.17,2.2
6.0918989181518555,-1.15,1.16,1.05,1.94
6.095577955245972,-1.18,0.86,1.04,1.79
6.105763912200928,-1.05,1.19,1.21,1.99
6.115747928619385,-0.66,2.21,1.6,2.8
6.125642776489258,-0.07,2.79,1.84,3.34
6.142206907272339,0.47,2.25,0.1,2.3
6.145619869232178,0.44,1.73,-2.33,2.93
6.155910968780518,0.16,1.92,-2.68,3.3
6.165825843811035,0.0,1.85,-1.64,2.47
6.175801753997803,0.13,1.64,-1.33,2.11
6.192940950393677,0.37,1.98,-1.21,2.34
6.195607900619507,0.52,2.33,-0.8,2.51
6.20573091506958,0.51,2.36,-0.72,2.51
6.215768814086914,0.56,2.22,-1.64,2.81
6.2256598472595215,0.65,1.71,-2.9,3.42
6.243360996246338,0.58,0.86,-3.62,3.76
6.245537757873535,0.46,0.02,-3.0,3.03
6.255803108215332,0.4,-0.38,-1.37,1.47
6.265790939331055,0.13,-0.46,0.02,0.47
6.275804042816162,-0.24,-0.35,0.63,0.75
6.293639898300171,-0.6,-0.4,0.65,0.97
6.295635938644409,-0.85,-0.64,0.19,1.08
6.305912971496582,-1.02,-0.87,-0.46,1.41
6.3159098625183105,-0.9,-1.07,-0.93,1.67
6.3257927894592285,-0.63,-1.14,-0.94,1.6
6.343628883361816,-0.25,-1.23,-0.76,1.46
6.345592975616455,0.09,-1.46,-0.6,1.58
6.355795860290527,0.28,-1.75,-0.46,1.83
6.365742921829224,0.38,-1.99,-0.41,2.06
6.375735759735107,0.39,-2.17,-0.39,2.23
6.392911911010742,0.35,-2.23,-0.23,2.26
6.395617961883545,0.29,-2.3,0.1,2.32
6.405804872512817,0.17,-2.35,0.28,2.37
6.4156739711761475,0.1,-2.36,0.2,2.37
6.425708770751953,0.02,-2.39,0.13,2.39
6.443358898162842,0.01,-2.38,0.18,2.38
6.445565938949585,0.07,-2.22,0.12,2.22
6.455893039703369,0.16,-1.98,0.13,1.99
6.4657440185546875,0.31,-1.77,0.3,1.82
6.475834846496582,0.45,-1.54,0.45,1.66
6.493744850158691,0.6,-1.26,0.54,1.49
6.495599985122681,0.75,-0.97,0.63,1.37
6.505995988845825,0.84,-0.69,0.59,1.23
6.515697956085205,0.87,-0.4,0.57,1.11
6.525754928588867,0.9,0.0,0.61,1.08
6.543850898742676,0.94,0.53,0.75,1.31
6.545662879943848,0.91,1.15,1.13,1.85
6.555949926376343,0.84,1.63,1.45,2.33
6.565704822540283,0.81,1.94,1.55,2.61
6.575861930847168,0.71,2.27,1.51,2.81
6.593164920806885,0.62,2.57,1.54,3.05
6.595778942108154,0.53,2.64,1.43,3.04
6.605920791625977,0.43,2.54,1.21,2.84
6.61584997177124,0.28,2.33,1.15,2.61
6.6257429122924805,0.19,2.13,1.23,2.46
6.64389705657959,0.11,2.2,1.23,2.52
6.645759105682373,0.09,2.75,1.33,3.05
6.656229019165039,0.03,3.17,1.61,3.55
6.665719032287598,-0.22,2.86,1.46,3.21
6.675862789154053,-0.44,2.19,-0.07,2.23
6.693871974945068,-0.62,1.95,-1.44,2.5
6.6960978507995605,-0.67,1.46,-1.46,2.17
6.706027984619141,-0.78,0.54,-1.4,1.69
6.71577787399292,-1.01,-0.05,-1.96,2.2
6.725813865661621,-1.11,-0.3,-2.32,2.58
6.744218826293945,-1.09,-0.4,-2.11,2.4
6.746016025543213,-1.11,-0.14,-1.5,1.87
6.756021022796631,-1.2,-0.16,-0.96,1.54
6.765896797180176,-1.34,-0.35,-1.19,1.82
6.7758588790893555,-1.47,-0.19,-1.62,2.19
6.793941020965576,-1.47,0.06,-1.94,2.43
6.796227931976318,-1.39,0.25,-1.9,2.36
6.805957794189453,-1.16,0.47,-1.6,2.03
6.8159918785095215,-0.91,0.63,-1.34,1.73
6.825870990753174,-0.5,0.72,-1.22,1.5
6.844635009765625,-0.03,0.63,-0.91,1.1
6.846245765686035,0.38,0.26,-0.75,0.88
6.856044769287109,0.56,-0.29,-0.68,0.92
6.865936756134033,0.52,-0.86,-0.31,1.05
6.875905990600586,0.36,-1.41,0.08,1.45
6.894742965698242,0.14,-1.93,0.33,1.96
6.8964338302612305,0.03,-2.28,0.17,2.28
6.906768798828125,-0.13,-2.56,0.19,2.57
6.915863990783691,-0.13,-2.83,0.32,2.85
6.925800800323486,-0.24,-2.84,-0.08,2.85
6.944770812988281,-0.22,-2.84,-0.37,2.87
6.9456467628479,-0.16,-2.73,-0.39,2.76
6.956033945083618,-0.14,-2.54,-0.38,2.57
6.965954780578613,-0.18,-2.37,-0.18,2.38
6.975944995880127,-0.3,-2.2,-0.14,2.22
6.994746923446655,-0.37,-1.99,-0.15,2.02
6.995800971984863,-0.47,-1.84,-0.09,1.9
7.006040096282959,-0.49,-1.76,0.01,1.82
7.015889883041382,-0.45,-1.69,0.15,1.75
7.025842905044556,-0.44,-1.6,0.16,1.66
7.044806003570557,-0.44,-1.47,0.14,1.54
7.045862913131714,-0.49,-1.31,0.13,1.4
7.055963039398193,-0.6,-1.12,0.19,1.28
7.065736770629883,-0.7,-0.97,0.32,1.23
7.075958967208862,-0.75,-0.77,0.22,1.09
7.094821929931641,-0.82,-0.3,0.26,0.91
7.096027851104736,-0.88,0.45,0.75,1.24
7.106069087982178,-0.75,1.32,1.36,2.03
7.115993976593018,-0.61,2.17,1.87,2.92
7.125887870788574,-0.52,2.67,2.23,3.51
7.145174026489258,-0.44,2.9,2.26,3.7
7.145740985870361,-0.45,2.98,1.8,3.51
7.1559858322143555,-0.64,2.88,1.25,3.2
7.165916919708252,-0.92,2.71,0.94,3.01
7.175940036773682,-1.15,2.49,0.9,2.88
7.1949310302734375,-1.29,2.37,1.14,2.92
7.195878028869629,-1.31,2.46,1.79,3.31
7.20593786239624,-1.16,2.88,2.25,3.83
7.215857028961182,-0.83,3.2,1.96,3.84
7.225945949554443,-0.33,3.08,0.47,3.13
7.245628833770752,0.07,2.6,-1.24,2.88
7.246027946472168,0.46,2.07,-1.82,2.79
7.256037950515747,0.81,1.12,-1.87,2.32
7.265915870666504,0.95,0.44,-1.63,1.93
7.2760138511657715,0.98,0.31,-1.46,1.78
7.295330047607422,1.11,0.55,-1.26,1.76
7.295902967453003,1.3,0.63,-0.71,1.6
7.305932998657227,1.46,0.55,-0.56,1.65
7.315889835357666,1.44,0.7,-0.95,1.86
7.325993061065674,1.3,0.96,-1.61,2.28
7.3456339836120605,1.16,1.01,-2.16,2.65
7.3460259437561035,1.02,0.71,-2.09,2.43
7.356084823608398,0.83,0.52,-1.38,1.69
7.365959882736206,0.57,0.39,-0.72,0.99
7.375953912734985,0.37,0.15,-0.4,0.56
7.394786834716797,0.08,-0.27,-0.41,0.49
7.395991802215576,-0.23,-0.83,-0.48,0.98
7.406023979187012,-0.51,-1.44,-0.36,1.56
7.415884017944336,-0.72,-2.02,-0.12,2.14
7.425961971282959,-0.83,-2.54,-0.17,2.67
7.446016788482666,-0.87,-3.0,-0.36,3.14
7.446402072906494,-0.7,-3.44,-0.41,3.53
7.456040859222412,-0.44,-3.7,-0.44,3.75
7.465918064117432,-0.15,-3.68,-0.47,3.71
7.476025104522705,0.12,-3.48,-0.32,3.49
7.49564790725708,0.41,-3.21,-0.17,3.24
7.496030807495117,0.59,-2.89,-0.24,2.95
7.506065845489502,0.58,-2.61,-0.24,2.68
7.515958786010742,0.52,-2.24,-0.13,2.3
7.525983810424805,0.41,-1.9,-0.03,1.94
7.545752048492432,0.29,-1.65,0.22,1.68
7.546133041381836,0.26,-1.41,0.57,1.54
7.556096076965332,0.38,-1.17,0.71,1.42
7.565855026245117,0.46,-0.96,0.38,1.13
7.576045036315918,0.59,-0.84,0.24,1.05
7.595928907394409,0.71,-0.63,0.24,0.97
7.59632682800293,0.84,-0.38,0.23,0.95
7.606104850769043,0.94,-0.16,0.29,0.99
7.615907907485962,0.98,-0.04,0.25,1.01
7.626082897186279,1.1,0.17,0.22,1.13
7.646612882614136,1.17,0.65,0.4,1.39
7.646972894668579,1.11,1.33,1.01,2.0
7.656181812286377,0.97,1.95,1.7,2.76
7.66599702835083,0.92,2.47,2.0,3.3
7.676146984100342,0.92,2.82,2.06,3.61
7.696239948272705,0.85,3.06,1.88,3.69
7.696598052978516,0.72,3.08,1.4,3.45
7.7061309814453125,0.56,2.91,0.93,3.1
7.715928077697754,0.38,2.7,0.87,2.86
7.726074934005737,0.25,2.52,1.21,2.8
7.746788024902344,0.16,2.42,1.77,3.0
7.747154951095581,0.1,2.72,2.03,3.39
7.756089925765991,0.14,3.04,1.96,3.61
7.765946865081787,0.17,2.93,1.45,3.27
7.776134014129639,0.13,2.65,0.45,2.69
7.796452045440674,0.1,2.36,-0.57,2.42
7.79683780670166,0.02,1.66,-1.19,2.04
7.806175947189331,-0.21,0.57,-1.68,1.78
7.8159260749816895,-0.45,-0.13,-2.42,2.46
7.826158046722412,-0.69,-0.38,-2.85,2.95
7.847012996673584,-0.78,-0.61,-2.3,2.5
7.847378969192505,-0.86,-0.75,-1.07,1.56
7.856217861175537,-0.89,-0.78,-0.27,1.21
7.865997791290283,-0.97,-0.83,-0.63,1.42
7.876142978668213,-1.15,-0.65,-1.43,1.94
7.896122932434082,-1.41,-0.4,-1.88,2.38
7.896509885787964,-1.63,-0.31,-2.0,2.59
7.906123876571655,-1.63,-0.24,-1.79,2.43
7.915996074676514,-1.39,-0.05,-1.38,1.95
7.926184892654419,-0.97,0.29,-0.93,1.37
7.946953773498535,-0.4,0.56,-0.5,0.85
7.947329998016357,0.16,0.62,-0.22,0.67
7.956207752227783,0.6,0.36,-0.31,0.76
7.965967893600464,0.77,-0.13,-0.54,0.94
7.976209878921509,0.72,-0.46,-0.49,0.98
7.996319770812988,0.44,-0.89,-0.18,1.0
7.996694087982178,0.07,-1.4,0.08,1.4
8.005915880203247,-0.35,-1.82,0.21,1.86
8.015696048736572,-0.65,-2.16,0.34,2.28
8.026127815246582,-0.83,-2.42,0.5,2.6
8.044920921325684,-0.91,-2.57,0.49,2.77
8.045752048492432,-0.83,-2.63,0.39,2.78
8.05598497390747,-0.66,-2.62,0.25,2.71
8.06567907333374,-0.5,-2.54,0.02,2.58
8.075978755950928,-0.38,-2.44,-0.25,2.48
8.095740795135498,-0.29,-2.42,-0.36,2.46
8.096109867095947,-0.28,-2.38,-0.27,2.41
8.106376886367798,-0.28,-2.36,-0.15,2.38
8.11585807800293,-0.35,-2.41,-0.02,2.43
8.126092910766602,-0.43,-2.36,0.09,2.4
8.146591901779175,-0.54,-2.09,0.14,2.16
8.146951913833618,-0.66,-1.74,0.25,1.87
8.155956983566284,-0.72,-1.32,0.36,1.54
8.165925979614258,-0.81,-0.69,0.24,1.09
8.176018953323364,-0.87,0.06,0.14,0.88
8.196776866912842,-0.96,0.96,0.44,1.42
8.197137832641602,-1.01,1.89,0.99,2.36
8.206090927124023,-0.96,2.51,1.47,3.06
8.215835094451904,-0.82,2.8,1.47,3.26
8.226057052612305,-0.67,2.95,1.13,3.22
8.24764108657837,-0.46,2.95,0.97,3.13
8.248003959655762,-0.24,2.81,1.05,3.0
8.255993843078613,-0.26,2.5,1.13,2.75
8.266124963760376,-0.45,2.21,1.18,2.54
8.276102066040039,-0.67,1.85,1.42,2.42
8.298030853271484,-0.82,1.7,1.7,2.54
8.2984778881073,-0.95,1.91,1.79,2.78
8.306065082550049,-0.86,2.48,1.82,3.19
8.316187858581543,-0.61,2.84,1.32,3.19
8.326287984848022,-0.17,2.7,-0.16,2.71
8.347736835479736,0.24,2.4,-1.32,2.74
8.348093032836914,0.57,1.82,-1.82,2.63
8.355937004089355,0.8,1.13,-2.25,2.64
8.36628007888794,0.98,1.02,-2.58,2.94
8.376065969467163,1.11,1.18,-2.27,2.78
8.397328853607178,1.31,1.0,-1.63,2.31
8.397701978683472,1.48,0.79,-1.32,2.13
8.406353950500488,1.58,0.76,-1.3,2.18
8.416492938995361,1.65,0.73,-1.32,2.23
8.426328897476196,1.46,0.66,-1.6,2.26
8.448760032653809,1.22,0.43,-1.75,2.17
8.449776887893677,1.22,0.21,-1.48,1.92
8.456254959106445,1.04,0.0,-0.82,1.32
8.46658182144165,0.69,-0.17,-0.21,0.74
8.476344108581543,0.19,-0.31,0.16,0.39
8.499063968658447,-0.34,-0.6,0.24,0.73
8.500187873840332,-0.7,-1.04,-0.03,1.25
8.506285905838013,-0.91,-1.57,-0.27,1.83
8.516573905944824,-0.94,-2.03,-0.45,2.28
8.526376962661743,-0.77,-2.42,-0.56,2.6
8.549145936965942,-0.49,-2.76,-0.48,2.84
8.550245761871338,-0.12,-3.03,-0.33,3.05
8.55642294883728,0.22,-3.22,-0.22,3.23
8.566776752471924,0.46,-3.28,-0.18,3.31
8.5764639377594,0.63,-3.21,-0.1,3.27
8.598767757415771,0.62,-3.04,-0.09,3.1
8.599131107330322,0.56,-2.8,-0.13,2.85
8.606355905532837,0.44,-2.57,-0.12,2.61
8.616805076599121,0.25,-2.37,-0.03,2.38
8.626439094543457,0.14,-2.18,0.2,2.19
8.649160861968994,0.11,-1.92,0.44,1.97
8.650230884552002,0.18,-1.5,0.43,1.57
8.656356811523438,0.29,-0.95,0.23,1.01
8.666929960250854,0.41,-0.51,0.22,0.69
8.676444053649902,0.54,-0.14,0.3,0.63
8.69940996170044,0.68,0.16,0.38,0.79
8.700543880462646,0.78,0.42,0.43,0.98
8.706242084503174,0.85,0.6,0.38,1.1
8.716877937316895,0.89,0.71,0.22,1.15
8.726390838623047,0.89,1.0,0.32,1.37
8.74928593635559,0.95,1.48,1.07,2.05
8.750282764434814,0.98,1.94,1.95,2.92
8.75634479522705,0.97,2.33,2.21,3.35
8.766211032867432,0.94,2.56,1.88,3.31
8.776355981826782,0.87,2.56,1.66,3.17
8.798966884613037,0.69,2.45,1.56,2.98
8.799338817596436,0.46,2.27,1.36,2.68
8.806283950805664,0.34,2.11,1.25,2.47
8.816354990005493,0.35,2.03,1.24,2.4
8.826376914978027,0.39,2.19,1.2,2.52
8.848649024963379,0.44,2.58,1.23,2.89
8.848984956741333,0.52,2.79,1.13,3.05
8.856412887573242,0.47,2.63,0.41,2.7
8.866360902786255,0.33,2.14,-0.72,2.28
8.876468896865845,0.14,1.77,-1.56,2.36
8.89871597290039,-0.21,1.17,-1.76,2.12
8.899037837982178,-0.62,0.54,-1.83,2.0
8.906393051147461,-1.03,0.32,-2.13,2.38
8.916374921798706,-1.25,0.31,-2.15,2.5
8.92640995979309,-1.37,0.4,-1.7,2.21
8.948330879211426,-1.35,0.59,-1.18,1.88
8.948648929595947,-1.36,0.52,-1.41,2.02
8.956387042999268,-1.4,0.38,-1.95,2.43
8.966408967971802,-1.5,0.36,-2.26,2.73
8.97642993927002,-1.51,0.29,-2.25,2.72
8.998426914215088,-1.59,0.27,-1.93,2.51
8.998748779296875,-1.34,0.35,-1.26,1.87
9.006375789642334,-1.03,0.61,-0.67,1.37
9.01637077331543,-0.61,0.79,-0.41,1.07
9.02638578414917,-0.09,0.74,-0.46,0.87
9.049052953720093,0.37,0.36,-0.54,0.74
9.04941701889038,0.63,-0.18,-0.4,0.76
9.056336879730225,0.65,-0.65,-0.12,0.92
9.066289901733398,0.48,-1.19,0.09,1.28
9.076436042785645,0.21,-1.75,0.24,1.77
9.098755836486816,-0.09,-2.29,0.23,2.3
9.099073886871338,-0.32,-2.81,0.15,2.83
9.106448888778687,-0.48,-3.19,-0.07,3.22
9.116443872451782,-0.53,-3.4,-0.24,3.44
9.126452922821045,-0.47,-3.43,-0.4,3.48
9.148905754089355,-0.39,-3.35,-0.59,3.42
9.149219036102295,-0.28,-3.26,-0.73,3.35
9.15642499923706,-0.17,-3.23,-0.64,3.29
9.166463851928711,-0.02,-3.12,-0.52,3.16
9.176517009735107,0.02,-2.99,-0.39,3.01
9.198993921279907,0.01,-2.87,-0.1,2.87
9.199322938919067,-0.06,-2.64,0.03,2.64
9.206521034240723,-0.2,-2.29,0.01,2.29
9.216455936431885,-0.35,-1.88,0.1,1.91
9.22658109664917,-0.53,-1.39,0.26,1.51
9.248251914978027,-0.69,-0.95,0.25,1.2
9.248573780059814,-0.81,-0.55,-0.16,0.99
9.256473064422607,-0.84,-0.04,-0.49,0.97
9.266464948654175,-0.77,0.63,-0.28,1.03
9.276559829711914,-0.6,1.28,0.44,1.48
9.298397064208984,-0.44,1.69,1.13,2.08
9.29875898361206,-0.36,1.94,1.58,2.52
9.306526899337769,-0.36,2.1,1.73,2.74
9.316435813903809,-0.38,2.23,1.77,2.87
9.326526880264282,-0.43,2.31,1.88,3.0
9.34869909286499,-0.63,2.43,1.76,3.06
9.3490629196167,-0.81,2.44,1.61,3.03
9.356497764587402,-0.94,2.38,1.29,2.86
9.366503953933716,-1.09,2.55,1.16,3.0
9.376575946807861,-1.25,2.88,1.63,3.53
9.398998975753784,-1.19,3.37,2.08,4.13
9.39936089515686,-0.91,3.81,1.99,4.39
9.406596899032593,-0.53,3.66,1.34,3.93
9.416428089141846,-0.03,3.07,0.27,3.08
9.42662000656128,0.37,2.55,-0.61,2.64
9.449504852294922,0.67,1.67,-0.97,2.04
9.449867963790894,0.71,0.57,-1.44,1.7
9.456597805023193,0.68,-0.05,-2.14,2.24
9.466628074645996,0.77,-0.09,-2.37,2.49
9.476568937301636,0.86,-0.01,-1.58,1.79
9.499617099761963,1.04,-0.09,-0.81,1.32
9.499990940093994,1.22,-0.2,-0.71,1.42
9.506436824798584,1.26,-0.2,-1.03,1.63
9.51649808883667,1.33,-0.14,-1.44,1.96
9.52653193473816,1.33,-0.04,-1.81,2.24
9.550493955612183,1.41,0.11,-1.89,2.36
9.550833940505981,1.41,0.28,-1.57,2.12
9.556606769561768,1.11,0.55,-1.06,1.63
9.566504955291748,0.97,0.66,-0.62,1.32
9.576645851135254,0.57,0.43,-0.42,0.82
9.601551055908203,0.02,0.06,-0.41,0.41
9.602637767791748,-0.48,-0.53,-0.38,0.8
9.60644793510437,-0.81,-1.22,-0.22,1.48
9.616607904434204,-0.94,-1.87,-0.03,2.09
9.626657962799072,-0.95,-2.47,0.05,2.64
9.650876998901367,-0.79,-3.0,0.11,3.1
9.651249885559082,-0.55,-3.43,0.23,3.48
9.656643867492676,-0.24,-3.61,0.25,3.62
9.66649580001831,0.07,-3.56,0.05,3.56
9.676780939102173,0.32,-3.39,-0.15,3.4
9.69996690750122,0.5,-3.23,-0.19,3.27
9.700330972671509,0.61,-2.91,-0.14,2.97
9.706655979156494,0.58,-2.44,-0.15,2.51
9.716601848602295,0.47,-2.17,0.07,2.22
9.726682901382446,0.39,-2.02,0.39,2.09
9.750251770019531,0.38,-1.88,0.49,1.97
9.750617980957031,0.32,-1.68,0.38,1.75
9.756579875946045,0.44,-1.29,0.33,1.4
9.766647815704346,0.61,-0.91,0.23,1.11
9.776756763458252,0.78,-0.53,0.16,0.95
9.800492763519287,0.93,-0.15,0.19,0.96
9.800880908966064,1.07,0.24,0.24,1.12
9.806586980819702,1.12,0.58,0.17,1.27
9.816446781158447,1.12,0.94,0.18,1.47
9.826632976531982,1.07,1.46,0.6,1.9
9.85069489479065,1.01,2.2,1.45,2.82
9.85104489326477,0.93,2.91,2.07,3.69
9.856637001037598,0.85,3.32,1.87,3.9
9.866617918014526,0.78,3.49,1.22,3.77
9.8766450881958,0.68,3.57,0.84,3.73
9.900121927261353,0.58,3.49,0.78,3.62
9.900481939315796,0.48,3.21,0.98,3.39
9.906624794006348,0.4,2.83,1.35,3.16
9.916584014892578,0.36,2.62,1.66,3.12
9.926805019378662,0.35,2.63,1.83,3.22
9.951303958892822,0.35,2.63,1.62,3.1
9.951633930206299,0.31,2.41,0.88,2.58
9.95657992362976,0.18,2.29,-0.27,2.31
9.966609001159668,-0.03,2.38,-1.08,2.61
9.976665019989014,-0.24,2.02,-1.15,2.33
10.000024795532227,-0.61,1.29,-1.43,2.02
10.000354766845703,-1.05,0.86,-2.16,2.55
10.006704807281494,-1.36,0.89,-2.38,2.88
10.016613006591797,-1.49,0.82,-1.59,2.32
10.026725769042969,-1.47,0.69,-1.03,1.92
10.050514936447144,-1.42,0.54,-1.3,1.99
10.050849914550781,-1.56,0.27,-1.65,2.28
10.056567907333374,-1.75,-0.09,-1.74,2.46
10.066571950912476,-1.87,-0.55,-1.58,2.5
10.07667875289917,-1.78,-0.91,-1.39,2.43
10.100914001464844,-1.48,-1.08,-1.07,2.12
10.101281881332397,-1.18,-1.0,-0.69,1.69
10.106605052947998,-0.73,-0.82,-0.34,1.14
10.116643905639648,-0.2,-0.73,-0.27,0.8
10.12673807144165,0.38,-0.88,-0.4,1.03
10.151238918304443,0.81,-1.25,-0.61,1.6
10.151618957519531,0.91,-1.75,-0.75,2.11
10.15666675567627,0.7,-2.29,-0.72,2.5
10.16664981842041,0.37,-2.71,-0.43,2.76
10.176756858825684,-0.07,-3.01,-0.07,3.01
10.200927972793579,-0.44,-3.31,0.19,3.34
10.201299905776978,-0.76,-3.47,0.17,3.55
10.206609964370728,-0.88,-3.41,0.13,3.52
10.216695785522461,-0.85,-3.25,0.1,3.36
10.226784944534302,-0.77,-2.97,0.03,3.06
10.251417875289917,-0.59,-2.59,-0.11,2.65
10.251790046691895,-0.44,-2.2,-0.27,2.25
10.256655931472778,-0.32,-1.92,-0.27,1.96
10.266681909561157,-0.27,-1.66,-0.19,1.69
10.276895999908447,-0.28,-1.43,-0.09,1.45
10.300990104675293,-0.35,-1.25,0.06,1.29
10.301357984542847,-0.48,-1.03,0.15,1.14
10.306716918945312,-0.61,-0.75,0.21,0.98
10.316708087921143,-0.71,-0.47,0.18,0.87
10.326881885528564,-0.83,-0.26,0.16,0.88
10.351247787475586,-0.91,-0.01,0.09,0.91
10.35160493850708,-0.99,0.33,-0.06,1.04
10.35666298866272,-1.0,0.75,-0.05,1.25
10.36670994758606,-0.89,1.27,0.19,1.56
10.376848936080933,-0.78,1.8,0.8,2.11
10.400616884231567,-0.7,2.24,1.41,2.73
10.400985956192017,-0.69,2.43,1.69,3.03
10.406699895858765,-0.68,2.57,1.56,3.08
10.416879892349243,-0.62,2.63,1.3,2.99
10.426855087280273,-0.64,2.61,1.13,2.91
10.451491832733154,-0.64,2.5,0.99,2.76
10.451855897903442,-0.72,2.26,1.22,2.66
10.456707954406738,-0.76,1.98,1.48,2.58
10.4667809009552,-0.74,1.69,1.36,2.29
10.476908922195435,-0.78,1.54,1.04,2.01
10.502634048461914,-0.86,1.86,1.18,2.36
10.503002882003784,-0.82,2.36,1.74,3.04
10.506618022918701,-0.5,2.14,1.49,2.65
10.516763925552368,-0.16,1.11,-0.49,1.22
10.526867866516113,0.05,0.54,-2.39,2.45
10.552580833435059,0.32,0.23,-2.58,2.6
10.552961826324463,0.66,-0.21,-2.31,2.41
10.556886911392212,0.94,-0.3,-2.55,2.73
10.56678295135498,1.23,0.16,-2.19,2.51
10.576862812042236,1.6,0.7,-1.21,2.12
10.602542877197266,1.93,0.99,-0.48,2.22
10.602917909622192,2.14,1.23,-0.49,2.51
10.606745958328247,2.17,1.42,-1.62,3.05
10.616750955581665,1.65,1.44,-3.03,3.73
10.626867771148682,1.04,1.17,-3.86,4.16
10.652306079864502,0.7,1.13,-2.86,3.15
10.652736902236938,0.37,1.11,-0.74,1.38
10.656872987747192,0.08,1.05,0.71,1.27
10.666757106781006,-0.4,0.86,0.97,1.35
10.676918983459473,-0.88,0.38,0.57,1.11
10.68675184249878,-1.15,-0.17,0.27,1.19
10.702923774719238,-1.12,-0.62,0.26,1.3
10.706811904907227,-0.97,-1.01,0.07,1.4
10.716865062713623,-0.68,-1.47,-0.14,1.62
10.726854801177979,-0.27,-1.91,-0.2,1.93
10.736849784851074,0.13,-2.24,-0.18,2.25
10.753008842468262,0.38,-2.56,-0.2,2.59
10.756927013397217,0.51,-2.83,-0.27,2.88
10.766815900802612,0.59,-3.08,-0.28,3.14
10.776957988739014,0.6,-3.33,-0.3,3.39
10.786813974380493,0.51,-3.43,-0.29,3.47
10.802885055541992,0.31,-3.41,-0.36,3.44
10.806845903396606,0.14,-3.34,-0.36,3.36
10.81687593460083,0.06,-3.15,-0.13,3.15
10.82695484161377,0.02,-2.85,0.15,2.85
10.83690094947815,0.08,-2.35,0.35,2.37
10.852792978286743,0.2,-1.75,0.48,1.82
10.85691499710083,0.41,-1.18,0.48,1.33
10.866867065429688,0.59,-0.71,0.41,1.01
10.877059936523438,0.72,-0.34,0.36,0.87
10.886810779571533,0.87,-0.08,0.51,1.01
10.90225887298584,0.91,0.03,0.41,0.99
10.906828880310059,0.82,0.14,0.02,0.83
10.916866779327393,0.79,0.41,0.16,0.9
10.926953792572021,0.75,0.82,0.93,1.44
10.936950922012329,0.76,1.33,1.6,2.21
10.952683925628662,0.76,1.96,1.81,2.77
10.956868886947632,0.77,2.59,1.8,3.24
10.966961860656738,0.81,3.05,1.67,3.57
10.976956844329834,0.78,3.19,1.42,3.57
10.986934900283813,0.77,3.04,1.13,3.33
11.001680850982666,0.77,2.73,0.98,3.0
11.006823062896729,0.78,2.55,1.01,2.85
11.017009973526001,0.81,2.45,1.2,2.84
11.026957035064697,0.81,2.63,1.55,3.15
11.03698205947876,0.68,2.92,1.87,3.53
11.05339002609253,0.37,2.87,1.49,3.25
11.056758880615234,0.08,2.4,-0.07,2.4
11.066885948181152,-0.15,1.97,-1.53,2.49
11.07706880569458,-0.23,1.61,-1.8,2.42
11.086958885192871,-0.37,0.85,-1.9,2.11
11.103321075439453,-0.56,0.11,-2.27,2.34
11.106940984725952,-0.72,-0.06,-2.22,2.33
11.116960048675537,-0.81,-0.19,-1.68,1.87
11.126935958862305,-0.86,-0.37,-1.31,1.61
11.137067794799805,-0.94,-0.19,-1.0,1.38
11.153057098388672,-1.0,-0.08,-1.0,1.41
11.156929969787598,-1.21,0.03,-1.53,1.95
11.166875839233398,-1.55,0.42,-1.94,2.51
11.176934957504272,-1.66,0.71,-1.96,2.66
11.1869478225708,-1.59,0.81,-1.52,2.34
11.203033924102783,-1.31,0.89,-1.21,1.99
11.206799983978271,-1.0,0.93,-0.99,1.68
11.216941833496094,-0.48,0.91,-0.67,1.22
11.227039813995361,0.06,0.8,-0.49,0.94
11.236969947814941,0.34,0.25,-0.38,0.56
11.251480102539062,0.51,-0.39,-0.17,0.66
11.256927967071533,0.57,-1.07,-0.01,1.21
11.266974925994873,0.49,-1.86,0.12,1.92
11.277105808258057,0.33,-2.63,0.0,2.65
11.286923885345459,0.19,-3.25,-0.27,3.26
11.301668882369995,0.12,-3.59,-0.36,3.61
11.306931972503662,0.13,-3.69,-0.37,3.71
11.316956043243408,0.15,-3.66,-0.44,3.68
11.32704496383667,0.16,-3.53,-0.52,3.57
11.337012767791748,0.12,-3.28,-0.56,3.32
11.352991104125977,0.11,-2.94,-0.49,2.98
11.356987953186035,0.08,-2.57,-0.29,2.58
11.366923809051514,0.02,-2.27,-0.16,2.27
11.377184867858887,-0.1,-2.08,-0.07,2.08
11.386983871459961,-0.17,-1.93,0.02,1.93
11.40300703048706,-0.26,-1.76,0.15,1.78
11.406925916671753,-0.38,-1.59,0.07,1.63
11.416940927505493,-0.52,-1.44,0.07,1.53
11.42713189125061,-0.63,-1.25,0.15,1.4
11.437083959579468,-0.68,-1.05,0.26,1.27
11.45331597328186,-0.71,-0.79,0.14,1.07
11.457058906555176,-0.74,-0.38,0.0,0.83
11.466980934143066,-0.63,0.22,0.25,0.71
11.477121829986572,-0.56,0.74,0.74,1.18
11.487046957015991,-0.51,1.04,1.25,1.7
11.503560066223145,-0.44,1.29,1.51,2.03
11.507012844085693,-0.43,1.52,1.59,2.24
11.517165899276733,-0.46,1.96,1.76,2.67
11.527200937271118,-0.49,2.49,1.93,3.18
11.537095069885254,-0.57,2.81,1.87,3.42
11.55398178100586,-0.62,2.94,1.85,3.52
11.556979894638062,-0.71,2.9,1.64,3.4
11.567069053649902,-0.83,2.8,1.58,3.32
11.577323913574219,-0.95,2.82,2.05,3.61
11.587049007415771,-0.96,3.08,2.63,4.16
11.604593753814697,-0.82,3.36,2.5,4.26
11.607099056243896,-0.61,3.22,1.45,3.58
11.617116928100586,-0.21,2.86,-0.07,2.86
11.627155780792236,0.15,2.75,-1.04,2.94
11.637119770050049,0.71,2.14,-0.97,2.45
11.654284954071045,0.95,1.25,-0.79,1.75
11.656912803649902,1.32,0.57,-1.95,2.42
11.667012929916382,1.29,0.84,-2.9,3.28
11.677287101745605,1.53,0.74,-2.34,2.89
11.687099933624268,1.62,0.44,-1.53,2.27
11.70414686203003,1.59,0.19,-1.44,2.15
11.706904888153076,1.43,0.16,-1.46,2.04
11.717098951339722,1.23,0.28,-1.52,1.97
11.727317810058594,1.01,0.38,-1.66,1.97
11.737114906311035,0.83,0.39,-1.87,2.08
11.754069805145264,0.77,0.39,-1.64,1.85
11.757057905197144,0.76,0.38,-0.85,1.2
11.767065048217773,0.51,0.26,-0.24,0.62
11.777180910110474,0.12,-0.08,-0.14,0.2
11.78715181350708,-0.21,-0.58,-0.2,0.64
11.804053783416748,-0.54,-1.09,-0.18,1.22
11.807007789611816,-0.8,-1.66,-0.26,1.86
11.817168951034546,-0.96,-2.26,-0.44,2.49
11.827311992645264,-0.95,-2.82,-0.54,3.02
11.837169885635376,-0.7,-3.23,-0.52,3.34
11.854050874710083,-0.39,-3.45,-0.44,3.49
11.85703182220459,-0.08,-3.5,-0.35,3.51
11.867150783538818,0.25,-3.42,-0.28,3.44
11.87722110748291,0.46,-3.21,-0.28,3.25
11.8871488571167,0.46,-2.83,-0.28,2.88
11.9041428565979,0.45,-2.41,-0.13,2.45
11.907076835632324,0.46,-2.0,0.21,2.06
11.917130947113037,0.4,-1.71,0.27,1.77
11.927230834960938,0.26,-1.5,0.31,1.55
11.937177896499634,0.18,-1.33,0.42,1.4
11.954627990722656,0.17,-1.16,0.33,1.21
11.957108974456787,0.25,-1.04,0.19,1.08
11.967092990875244,0.43,-0.86,0.12,0.96
11.977190017700195,0.59,-0.73,0.27,0.97
11.987209796905518,0.71,-0.7,0.43,1.08
12.003649950027466,0.77,-0.7,0.32,1.08
12.007422924041748,0.81,-0.65,0.03,1.03
12.016965866088867,0.86,-0.37,-0.2,0.95
12.02704906463623,0.97,0.27,0.13,1.01
12.037158012390137,1.05,1.27,0.87,1.86
12.05286192893982,1.02,2.43,1.57,3.06
12.056792974472046,1.05,3.32,2.03,4.03
12.066909790039062,1.1,3.68,1.97,4.31
12.07699203491211,1.01,3.83,1.56,4.25
12.087029933929443,0.83,3.64,1.15,3.9
12.103394985198975,0.62,3.27,0.92,3.45
12.106996059417725,0.45,3.1,1.15,3.33
12.11707091331482,0.35,3.13,1.84,3.64
12.127145767211914,0.34,3.28,2.31,4.02
12.137089967727661,0.29,3.44,1.81,3.89
12.153424978256226,0.16,3.62,0.77,3.7
12.156907081604004,-0.01,3.66,0.04,3.66
12.167146921157837,-0.33,3.03,-0.4,3.07
12.177210807800293,-0.65,1.74,-1.47,2.36
12.187149047851562,-0.95,0.83,-2.96,3.21
12.203697919845581,-1.18,0.46,-3.36,3.59
12.206967830657959,-1.29,0.0,-2.48,2.79
12.217153072357178,-1.22,-0.77,-1.26,1.91
12.227253913879395,-1.04,-1.34,-0.7,1.83
12.237176895141602,-0.98,-1.52,-0.85,1.99
12.255197048187256,-1.1,-1.44,-1.09,2.11
12.25712776184082,-1.29,-1.22,-1.3,2.2
12.267220973968506,-1.55,-0.88,-1.37,2.24
12.277183055877686,-1.71,-0.35,-1.22,2.12
12.28717589378357,-1.64,0.25,-1.06,1.96
12.304162979125977,-1.35,0.52,-1.06,1.79
12.307138919830322,-0.91,0.55,-0.94,1.41
12.317307949066162,-0.43,0.36,-0.93,1.08
12.32727575302124,0.1,0.03,-0.99,0.99
12.337302923202515,0.44,-0.46,-0.85,1.06
12.355003833770752,0.58,-1.06,-0.54,1.32
12.357234954833984,0.56,-1.68,-0.13,1.77
12.367181777954102,0.38,-2.26,0.19,2.29
12.37720775604248,0.11,-2.8,0.38,2.82
12.387069940567017,-0.2,-3.25,0.47,3.28
12.405460834503174,-0.49,-3.48,0.48,3.54
12.409617900848389,-0.67,-3.5,0.46,3.59
12.41956377029419,-0.71,-3.41,0.31,3.49
12.429707050323486,-0.59,-3.18,0.1,3.23
12.439451932907104,-0.44,-2.88,-0.01,2.91
12.456474781036377,-0.23,-2.49,0.0,2.5
12.459439754486084,-0.14,-2.1,-0.09,2.1
12.469565868377686,-0.15,-1.79,-0.06,1.79
12.479551792144775,-0.28,-1.61,0.1,1.63
12.48953890800476,-0.46,-1.47,0.25,1.56
12.505856037139893,-0.62,-1.38,0.34,1.55
12.509485960006714,-0.77,-1.29,0.41,1.55
12.519561767578125,-0.85,-1.09,0.44,1.45
12.529745101928711,-0.97,-0.82,0.3,1.3
12.539463996887207,-0.97,-0.5,0.07,1.09
12.555600881576538,-0.94,-0.1,-0.12,0.95
12.559417963027954,-0.95,0.47,-0.17,1.07
12.56953477859497,-0.94,1.14,0.2,1.49
12.579462051391602,-0.99,1.78,0.92,2.23
12.58959698677063,-0.96,2.42,1.47,2.98
12.605085849761963,-0.95,2.71,1.47,3.22
12.609596967697144,-0.96,2.8,1.4,3.27
12.619527816772461,-0.94,2.84,1.5,3.34
12.62961483001709,-0.84,2.87,1.55,3.36
12.639602899551392,-0.76,2.7,1.4,3.13
12.655281066894531,-0.77,2.52,1.3,2.93
12.65950894355774,-0.83,2.46,1.47,2.98
12.669684886932373,-0.97,2.71,1.71,3.34
12.679657936096191,-1.04,3.31,1.89,3.95
12.689682960510254,-0.9,3.58,1.82,4.11
12.706801891326904,-0.5,3.11,0.77,3.24
12.709723949432373,-0.15,2.38,-0.88,2.54
12.719576835632324,0.21,1.98,-1.68,2.6
12.729695796966553,0.46,1.26,-1.59,2.08
12.739572048187256,0.65,0.26,-1.85,1.97
12.756728887557983,0.75,-0.16,-2.51,2.62
12.759527921676636,0.99,-0.05,-2.38,2.57
12.769613981246948,1.24,0.18,-1.59,2.02
12.779669761657715,1.48,0.16,-0.92,1.74
12.789654970169067,1.61,0.04,-0.65,1.73
12.806747913360596,1.78,0.24,-0.78,1.95
12.809682846069336,1.76,0.51,-1.64,2.45
12.819541931152344,1.36,0.51,-2.51,2.89
12.829681873321533,1.05,0.42,-2.41,2.66
12.839616775512695,0.92,0.24,-1.33,1.63
12.85635495185852,0.6,0.08,-0.19,0.63
12.859532833099365,0.17,-0.04,0.4,0.43
12.869653940200806,-0.28,-0.35,0.47,0.64
12.87966775894165,-0.66,-0.86,0.33,1.13
12.88972806930542,-0.96,-1.55,0.0,1.82
12.906859874725342,-0.97,-2.29,-0.31,2.5
12.909600973129272,-0.77,-2.86,-0.49,3.0
12.919629096984863,-0.5,-3.14,-0.63,3.24
12.929779052734375,-0.07,-3.24,-0.52,3.28
12.939616918563843,0.33,-3.18,-0.2,3.2
12.956662893295288,0.58,-2.96,-0.02,3.01
12.959437847137451,0.74,-2.66,-0.05,2.76
12.96958303451538,0.74,-2.39,0.03,2.5
12.979719877243042,0.64,-2.14,0.12,2.23
12.989680767059326,0.48,-1.87,0.1,1.93
13.006203889846802,0.39,-1.67,0.08,1.71
13.009680986404419,0.3,-1.49,0.18,1.53
13.01963496208191,0.29,-1.34,0.3,1.4
13.029895782470703,0.35,-1.24,0.25,1.31
13.039719104766846,0.46,-1.07,0.05,1.16
13.056681871414185,0.59,-0.81,-0.05,1.0
13.059705972671509,0.65,-0.56,0.03,0.85
13.069563865661621,0.72,-0.4,0.27,0.86
13.07982087135315,0.79,-0.21,0.47,0.94
13.08970594406128,0.84,0.06,0.56,1.01
13.105485916137695,0.9,0.46,0.72,1.24
13.109531879425049,0.88,1.02,1.29,1.86
13.1196608543396,0.91,1.73,1.91,2.73
13.129862785339355,0.9,2.29,2.0,3.17
13.139702796936035,0.84,2.62,1.56,3.16
13.156936883926392,0.78,2.86,1.08,3.15
13.159528970718384,0.6,3.02,0.77,3.17
13.169661045074463,0.41,2.94,0.75,3.06
13.179835796356201,0.32,2.59,1.05,2.81
13.18972110748291,0.27,2.19,1.3,2.56
13.206449031829834,0.22,1.96,1.4,2.41
13.209573984146118,0.21,2.12,1.53,2.62
13.219634056091309,0.28,2.5,1.78,3.08
13.229763984680176,0.31,2.56,1.34,2.9
13.239748001098633,0.22,2.34,-0.3,2.36
13.256459951400757,0.12,2.27,-1.54,2.74
13.259573936462402,-0.03,1.98,-1.73,2.62
13.269737958908081,-0.42,1.17,-1.78,2.17
13.279810905456543,-0.9,0.44,-2.17,2.39
13.289796829223633,-1.25,0.09,-2.32,2.63
13.306729793548584,-1.43,-0.14,-2.04,2.49
13.30962085723877,-1.46,-0.14,-1.28,1.94
13.319644927978516,-1.47,-0.14,-0.73,1.64
13.329970836639404,-1.4,-0.26,-0.94,1.7
13.339765071868896,-1.32,-0.22,-1.44,1.96
13.357432842254639,-1.28,-0.09,-1.94,2.32
13.359648942947388,-1.32,0.1,-1.96,2.36
13.36980390548706,-1.22,0.27,-1.48,1.93
13.379700899124146,-1.08,0.4,-0.96,1.49
13.389839887619019,-0.92,0.48,-0.73,1.26
13.407259941101074,-0.6,0.49,-0.62,0.99
13.409631967544556,-0.13,0.26,-0.52,0.59
13.419692993164062,0.22,-0.23,-0.54,0.62
13.429785966873169,0.47,-0.8,-0.52,1.06
13.43971300125122,0.53,-1.3,-0.4,1.45
13.457101821899414,0.44,-1.84,-0.31,1.91
13.459619998931885,0.31,-2.35,-0.17,2.37
13.469856977462769,0.14,-2.72,0.03,2.72
13.47964596748352,-0.03,-3.0,0.17,3.0
13.489800930023193,-0.12,-3.2,0.28,3.21
13.506447792053223,-0.1,-3.22,0.19,3.22
13.509647846221924,-0.1,-3.2,0.07,3.2
13.519851922988892,-0.06,-3.11,-0.01,3.11
13.529708862304688,-0.03,-2.89,-0.14,2.89
13.539785861968994,-0.05,-2.64,-0.14,2.64
13.557094097137451,-0.07,-2.36,-0.21,2.37
13.559578895568848,-0.13,-2.08,-0.19,2.09
13.569772958755493,-0.13,-1.79,0.02,1.79
13.57974100112915,-0.15,-1.46,0.16,1.47
13.589873790740967,-0.19,-1.21,0.22,1.24
13.606921911239624,-0.29,-1.08,0.3,1.15
13.609776020050049,-0.4,-0.89,0.24,1.0
13.619878768920898,-0.52,-0.66,0.03,0.84
13.629648923873901,-0.65,-0.44,-0.26,0.82
13.639862060546875,-0.75,-0.14,-0.48,0.9
13.657124996185303,-0.86,0.37,-0.3,0.98
13.659734964370728,-0.91,0.94,0.51,1.4
13.669901847839355,-0.86,1.46,1.33,2.15
13.679658889770508,-0.8,1.78,1.82,2.66
13.68989086151123,-0.74,1.93,1.95,2.84
13.707472801208496,-0.78,2.15,1.73,2.86
13.709805965423584,-0.79,2.26,1.65,2.9
13.719841957092285,-0.79,2.32,1.6,2.92
13.729872941970825,-0.8,2.29,1.36,2.78
13.73986005783081,-0.79,2.41,1.29,2.84
13.758241891860962,-0.77,2.74,1.48,3.2
13.759860038757324,-0.74,3.33,1.64,3.78
13.76987075805664,-0.7,4.17,1.92,4.64
13.779668807983398,-0.54,4.27,1.89,4.7
13.78988790512085,-0.29,3.57,0.61,3.63
13.807318925857544,-0.01,2.77,-1.1,2.98
13.809995889663696,0.25,1.81,-1.68,2.48
13.819879055023193,0.66,0.67,-1.72,1.96
13.829888820648193,0.83,0.01,-1.96,2.12
13.83991289138794,1.01,-0.1,-2.02,2.26
13.857692956924438,1.09,0.16,-1.53,1.88
13.860030889511108,1.3,0.2,-0.82,1.54
13.869930982589722,1.37,0.15,-0.74,1.56
13.879714965820312,1.34,0.21,-0.82,1.58
13.889923095703125,1.28,0.36,-1.13,1.74
13.907633781433105,1.22,0.58,-1.89,2.32
13.910102844238281,1.11,0.62,-2.2,2.54
13.919846057891846,0.99,0.51,-1.66,1.99
13.929848909378052,0.86,0.47,-1.01,1.4
13.939899921417236,0.65,0.28,-0.64,0.95
13.957446098327637,0.27,-0.11,-0.49,0.57
13.960206985473633,-0.11,-0.59,-0.4,0.72
13.969919919967651,-0.4,-1.2,-0.17,1.27
13.979759931564331,-0.57,-1.87,-0.03,1.95
13.98989486694336,-0.63,-2.52,-0.12,2.6
14.007494926452637,-0.58,-3.06,-0.29,3.12
14.010244846343994,-0.42,-3.49,-0.43,3.54
14.01987886428833,-0.23,-3.75,-0.46,3.78
14.029934883117676,-0.01,-3.77,-0.3,3.78
14.039941787719727,0.22,-3.55,-0.09,3.55
14.056996822357178,0.32,-3.19,-0.07,3.2
14.06029987335205,0.37,-2.82,0.01,2.84
14.069999933242798,0.39,-2.59,0.16,2.62
14.079983949661255,0.38,-2.32,0.25,2.36
14.08996295928955,0.3,-1.99,0.37,2.04
14.107658863067627,0.32,-1.6,0.49,1.7
14.110450983047485,0.37,-1.2,0.48,1.34
14.119955062866211,0.41,-0.96,0.28,1.08
14.129854917526245,0.53,-0.76,0.08,0.93
14.139884948730469,0.73,-0.52,-0.01,0.89
14.158339023590088,0.91,-0.29,0.04,0.95
14.159835815429688,1.01,0.03,0.0,1.01
14.169967889785767,1.08,0.31,-0.05,1.12
14.179865837097168,1.18,0.56,0.0,1.3
14.190005779266357,1.27,0.97,0.17,1.6
14.20894479751587,1.34,1.56,0.81,2.21
14.209805011749268,1.35,2.14,1.75,3.07
14.219995021820068,1.31,2.63,2.3,3.73
14.230108976364136,1.25,2.95,2.4,4.0
14.239956855773926,1.1,3.23,2.13,4.02
14.258961915969849,0.84,3.29,1.6,3.75
14.25987195968628,0.54,3.09,1.15,3.34
14.270092010498047,0.32,2.79,1.14,3.03
14.279740810394287,0.26,2.56,1.43,2.94
14.29000186920166,0.26,2.7,1.6,3.14
14.308634757995605,0.3,3.06,1.71,3.51
14.309930801391602,0.35,3.15,1.53,3.51
14.319976806640625,0.4,2.78,0.67,2.88
14.329898834228516,0.31,2.25,-0.49,2.32
14.339975833892822,0.09,1.79,-1.21,2.16
14.358645915985107,-0.16,1.23,-1.34,1.82
14.359800815582275,-0.61,0.62,-1.59,1.81
14.370053768157959,-1.06,0.24,-2.28,2.52
14.379785060882568,-1.34,-0.08,-2.43,2.77
14.390084981918335,-1.44,-0.32,-1.89,2.39
14.408534049987793,-1.43,-0.37,-1.18,1.89
14.409970760345459,-1.44,-0.48,-0.92,1.77
14.419898986816406,-1.53,-0.67,-1.08,1.98
14.429969787597656,-1.56,-0.76,-1.26,2.14
14.440094947814941,-1.48,-0.66,-1.41,2.14
14.458854913711548,-1.36,-0.45,-1.41,2.01
14.459918975830078,-1.03,-0.25,-1.21,1.6
14.470081806182861,-0.74,-0.04,-0.9,1.16
14.479918956756592,-0.41,0.12,-0.62,0.75
14.490057945251465,-0.04,0.07,-0.38,0.38
14.508946895599365,0.26,-0.17,-0.35,0.46
14.509968757629395,0.49,-0.49,-0.39,0.79
14.520035982131958,0.46,-0.9,-0.39,1.08
14.529994010925293,0.3,-1.38,-0.35,1.45
14.54009199142456,0.06,-1.75,-0.15,1.75
14.559446811676025,-0.13,-2.01,0.05,2.01
14.559957027435303,-0.3,-2.25,0.13,2.27
14.570165872573853,-0.44,-2.45,0.09,2.49
14.579829931259155,-0.5,-2.63,0.13,2.68
14.590102910995483,-0.47,-2.72,0.15,2.76
14.609045028686523,-0.43,-2.83,0.07,2.86
14.609885931015015,-0.34,-2.84,-0.13,2.86
14.620007991790771,-0.23,-2.68,-0.37,2.71
14.630157947540283,-0.18,-2.55,-0.43,2.59
14.640047073364258,-0.18,-2.45,-0.35,2.48
14.659451007843018,-0.22,-2.35,-0.24,2.37
14.65984296798706,-0.29,-2.17,-0.03,2.18
14.670051097869873,-0.36,-1.93,0.21,1.97
14.679938793182373,-0.41,-1.61,0.39,1.7
14.69015884399414,-0.54,-1.37,0.59,1.58
14.70946192741394,-0.62,-1.12,0.79,1.5
14.709858894348145,-0.65,-0.72,0.63,1.15
14.720110893249512,-0.81,-0.2,0.2,0.85
14.729907989501953,-0.94,0.53,0.03,1.07
14.740124940872192,-1.0,1.41,0.4,1.77
14.759193897247314,-0.97,2.06,1.04,2.5
14.75986385345459,-0.9,2.39,1.42,2.92
14.770081043243408,-0.74,2.66,1.5,3.14
14.779853820800781,-0.59,2.72,1.4,3.11
14.790191888809204,-0.46,2.59,1.21,2.89
14.808813095092773,-0.36,2.41,1.23,2.72
14.809927940368652,-0.35,2.31,1.35,2.69
14.820120811462402,-0.39,2.26,1.43,2.7
14.830029010772705,-0.47,2.16,1.6,2.72
14.840122938156128,-0.61,2.23,1.61,2.81
14.859655857086182,-0.67,2.58,1.34,2.98
14.860005855560303,-0.47,2.75,1.05,2.98
14.870184898376465,-0.21,2.46,0.38,2.49
14.879925966262817,0.0,2.14,-0.81,2.28
14.89014482498169,0.23,1.74,-1.55,2.34
14.909290790557861,0.52,1.09,-1.8,2.16
14.909907817840576,0.78,0.63,-2.28,2.49
14.920007944107056,1.02,0.71,-2.28,2.59
14.930081844329834,1.31,0.79,-1.63,2.23
14.940072059631348,1.67,0.65,-1.2,2.15
14.95918893814087,1.78,0.67,-1.27,2.28
14.95991587638855,1.65,0.8,-1.78,2.55
14.970102787017822,1.44,0.79,-2.39,2.89
14.979904890060425,1.22,0.67,-2.66,3.0
14.990155935287476,0.98,0.59,-2.26,2.53
15.008817911148071,0.81,0.61,-1.28,1.63
15.010018825531006,0.62,0.64,-0.36,0.96
15.020227909088135,0.27,0.61,-0.04,0.66
15.029953956604004,-0.22,0.34,-0.04,0.4
15.040277004241943,-0.6,-0.18,-0.06,0.62
15.060326099395752,-0.77,-0.87,-0.22,1.18
15.060691833496094,-0.76,-1.5,-0.28,1.7
15.07027792930603,-0.67,-2.03,-0.11,2.14
15.080084800720215,-0.42,-2.47,-0.05,2.5
15.090314865112305,-0.17,-2.77,-0.14,2.77
15.109860897064209,0.14,-2.95,-0.12,2.95
15.110227108001709,0.39,-3.0,-0.13,3.02
15.120216846466064,0.53,-2.89,-0.3,2.95
15.129936933517456,0.51,-2.89,-0.38,2.95
15.140168905258179,0.44,-2.85,-0.26,2.89
15.159956932067871,0.3,-2.68,-0.09,2.69
15.160336017608643,0.21,-2.47,0.08,2.48
15.170145034790039,0.19,-2.23,0.24,2.25
15.179959774017334,0.17,-1.91,0.37,1.95
15.190224885940552,0.3,-1.53,0.38,1.6
15.209551811218262,0.51,-1.1,0.21,1.23
15.210022926330566,0.66,-0.66,0.09,0.93
15.22019100189209,0.84,-0.29,0.21,0.91
15.230051040649414,0.98,0.01,0.29,1.02
15.240197896957397,1.1,0.32,0.36,1.2
15.260068893432617,1.18,0.71,0.33,1.41
15.260438919067383,1.14,1.16,0.35,1.66
15.270302772521973,1.07,1.59,0.78,2.06
15.279993057250977,1.02,1.98,1.23,2.54
15.290271759033203,0.85,2.27,1.28,2.74
15.309513092041016,0.69,2.43,1.26,2.82
15.31013798713684,0.55,2.62,1.24,2.95
15.32019591331482,0.42,2.62,1.2,2.91
15.330066919326782,0.34,2.4,1.11,2.66
15.340274810791016,0.27,2.11,0.87,2.29
15.359112977981567,0.27,1.82,0.72,1.97
15.35999584197998,0.33,1.54,0.88,1.8
15.370232105255127,0.4,1.64,1.09,2.0
15.380079984664917,0.47,2.07,1.28,2.47
15.39031195640564,0.45,2.29,1.16,2.6
15.409920930862427,0.31,2.07,0.07,2.09
15.41028881072998,0.17,1.77,-1.46,2.3
15.420135021209717,0.02,1.36,-2.03,2.44
15.43026876449585,-0.31,0.57,-1.88,1.98
15.440313816070557,-0.64,-0.22,-2.02,2.13
15.46049189567566,-0.86,-0.48,-1.87,2.11
15.460848808288574,-0.99,-0.49,-1.26,1.67
15.47028398513794,-1.0,-0.47,-0.89,1.41
15.48011302947998,-0.95,-0.33,-0.96,1.39
15.490385055541992,-0.98,-0.18,-1.22,1.57
15.510600090026855,-1.12,-0.22,-1.5,1.88
15.510969877243042,-1.36,-0.18,-1.72,2.2
15.520339965820312,-1.45,0.05,-1.54,2.11
15.530144929885864,-1.43,0.19,-1.26,1.91
15.540316104888916,-1.28,0.4,-1.04,1.69
15.560975074768066,-1.09,0.77,-0.89,1.6
15.561357975006104,-0.75,1.13,-0.64,1.49
15.570355892181396,-0.32,1.36,-0.41,1.45
15.580121040344238,0.18,1.21,-0.4,1.28
15.590406894683838,0.52,0.57,-0.36,0.85
15.611005783081055,0.7,-0.07,-0.21,0.73
15.611342906951904,0.7,-0.74,0.06,1.02
15.620219945907593,0.51,-1.44,0.31,1.55
15.630146026611328,0.22,-2.15,0.32,2.18
15.640420913696289,0.0,-2.77,0.12,2.77
15.661069869995117,-0.12,-3.21,0.02,3.21
15.661443948745728,-0.18,-3.36,-0.08,3.36
15.670310020446777,-0.25,-3.31,-0.2,3.32
15.68013596534729,-0.23,-3.17,-0.29,3.19
15.69040298461914,-0.12,-3.03,-0.38,3.05
15.710978031158447,0.0,-2.84,-0.45,2.87
15.711354970932007,0.07,-2.64,-0.4,2.67
15.72033977508545,0.06,-2.48,-0.24,2.49
15.730159759521484,0.02,-2.37,-0.08,2.37
15.740381956100464,-0.12,-2.21,0.04,2.21
15.761414051055908,-0.27,-2.09,0.02,2.1
15.761795997619629,-0.42,-1.92,0.13,1.96
15.770424842834473,-0.56,-1.67,0.21,1.77
15.780123949050903,-0.68,-1.3,0.09,1.46
15.790437936782837,-0.76,-0.87,0.01,1.15
15.8108229637146,-0.82,-0.39,0.16,0.92
15.81118893623352,-0.87,0.18,0.46,1.0
15.82040786743164,-0.85,0.75,0.87,1.42
15.830130100250244,-0.82,1.25,1.17,1.89
15.840297937393188,-0.69,1.52,1.3,2.11
15.861089944839478,-0.64,1.68,1.25,2.18
15.861408948898315,-0.6,1.89,1.0,2.22
15.870378017425537,-0.65,2.15,0.87,2.4
15.880125045776367,-0.82,2.53,1.0,2.84
15.8905189037323,-0.97,2.86,1.18,3.24
15.911696910858154,-1.1,3.03,1.25,3.45
15.912025928497314,-1.16,3.18,1.27,3.61
15.920265913009644,-1.18,3.48,1.64,4.02
15.930139064788818,-1.01,3.67,2.11,4.35
15.940366983413696,-0.64,3.69,2.2,4.34
15.960741996765137,-0.29,3.55,1.5,3.86
15.961106777191162,-0.04,3.09,-0.02,3.09
15.970380783081055,-0.04,2.47,-1.04,2.68
15.980321884155273,0.05,1.48,-1.41,2.04
15.990374088287354,0.18,0.36,-1.78,1.82
16.010036945343018,0.24,-0.27,-2.27,2.29
16.01035499572754,0.43,-0.48,-2.12,2.21
16.017755031585693,0.54,-0.56,-1.14,1.38
16.027759075164795,0.92,-0.53,-0.38,1.12
16.04188108444214,1.24,-0.48,-0.38,1.38
16.047650814056396,1.49,-0.28,-0.58,1.62
16.057788848876953,1.58,0.07,-0.79,1.76
16.067713975906372,1.48,0.46,-1.26,1.99
16.077826023101807,1.43,0.57,-1.69,2.28
16.092040061950684,1.39,0.47,-1.53,2.11
16.097774982452393,1.26,0.41,-0.93,1.61
16.1079421043396,0.94,0.33,-0.42,1.08
16.117825031280518,0.38,0.08,-0.3,0.49
16.127914905548096,-0.14,-0.36,-0.46,0.6
16.142735958099365,-0.39,-0.92,-0.49,1.11
16.147698879241943,-0.39,-1.45,-0.38,1.54
16.15784788131714,-0.35,-1.97,-0.41,2.04
16.167841911315918,-0.2,-2.4,-0.21,2.41
16.177824020385742,0.0,-2.79,0.07,2.79
16.193460941314697,0.2,-3.07,0.03,3.07
16.19772696495056,0.38,-3.18,-0.08,3.2
16.207942008972168,0.5,-3.0,-0.09,3.04
16.218034982681274,0.55,-2.73,-0.05,2.78
16.227848052978516,0.54,-2.43,-0.07,2.49
16.243992805480957,0.49,-2.12,-0.14,2.18
16.24759578704834,0.41,-1.82,-0.01,1.86
16.25785994529724,0.36,-1.52,0.01,1.56
16.267760753631592,0.35,-1.31,0.04,1.35
16.2778639793396,0.39,-1.24,0.18,1.31
16.29426908493042,0.47,-1.21,0.15,1.3
16.297724962234497,0.6,-1.12,0.13,1.27
16.30797791481018,0.72,-1.0,0.21,1.25
16.31800889968872,0.81,-0.86,0.23,1.2
16.32793092727661,0.87,-0.64,0.33,1.12
16.345377922058105,0.94,-0.33,0.21,1.01
16.347798824310303,0.99,0.07,0.04,0.99
16.357874870300293,1.01,0.68,0.38,1.27
16.36793279647827,0.98,1.4,1.05,2.0
16.377925872802734,0.88,2.06,1.67,2.79
16.395039081573486,0.78,2.55,1.89,3.26
16.397822856903076,0.67,2.87,1.86,3.48
16.411839962005615,0.6,3.14,1.95,3.74
16.421865940093994,0.55,3.31,1.85,3.83
16.431626796722412,0.45,3.16,1.47,3.51
16.441849946975708,0.44,2.92,1.19,3.18
16.464700937271118,0.47,3.02,1.19,3.27
16.465744972229004,0.5,3.48,1.56,3.84
16.471768856048584,0.48,3.82,1.86,4.27
16.483819007873535,0.34,3.64,1.31,3.88
16.491923809051514,0.03,3.13,0.0,3.13
16.51452088356018,-0.24,2.62,-0.94,2.79
16.515565872192383,-0.42,1.8,-1.53,2.39
16.521723985671997,-0.59,0.75,-2.4,2.58
16.533829927444458,-0.8,0.03,-3.09,3.19
16.541883945465088,-0.95,-0.36,-2.84,3.01
16.563328981399536,-0.96,-0.59,-1.81,2.13
16.563706874847412,-0.91,-0.78,-0.71,1.39
16.57180094718933,-0.83,-0.9,-0.59,1.35
16.581719875335693,-0.86,-0.78,-1.12,1.61
16.591980934143066,-1.11,-0.62,-1.45,1.92
16.613011837005615,-1.29,-0.53,-1.56,2.09
16.61337900161743,-1.32,-0.31,-1.47,1.99
16.62184190750122,-1.22,-0.1,-1.3,1.78
16.63173794746399,-0.91,0.05,-1.08,1.41
16.642006874084473,-0.6,0.04,-0.91,1.09
16.66319704055786,-0.25,-0.16,-0.8,0.85
16.663532972335815,0.06,-0.38,-0.8,0.88
16.671772956848145,0.26,-0.67,-0.73,1.02
16.68171977996826,0.44,-1.1,-0.45,1.26
16.69187879562378,0.46,-1.6,-0.05,1.66
16.712897777557373,0.4,-2.03,0.21,2.07
16.713284015655518,0.21,-2.37,0.19,2.38
16.721831798553467,-0.01,-2.63,0.15,2.63
16.731820106506348,-0.21,-2.86,0.2,2.87
16.74192190170288,-0.37,-2.92,0.13,2.94
16.76369595527649,-0.5,-2.8,-0.03,2.84
16.76406192779541,-0.53,-2.54,-0.19,2.6
16.77184295654297,-0.48,-2.29,-0.19,2.34
16.781840801239014,-0.4,-2.08,-0.22,2.12
16.791912078857422,-0.42,-1.98,-0.21,2.03
16.81291389465332,-0.41,-1.94,-0.05,1.98
16.813283920288086,-0.37,-1.95,0.16,1.99
16.821917057037354,-0.34,-1.82,0.21,1.86
16.832010984420776,-0.35,-1.71,0.39,1.78
16.841875076293945,-0.35,-1.51,0.66,1.68
16.863845825195312,-0.36,-1.19,0.66,1.4
16.86421775817871,-0.52,-0.9,0.32,1.08
16.871875762939453,-0.69,-0.54,0.16,0.89
16.88210892677307,-0.83,-0.25,0.2,0.88
16.89192795753479,-0.94,0.04,0.28,0.98
16.9135799407959,-0.96,0.44,0.58,1.2
16.913963794708252,-0.92,0.99,1.08,1.73
16.921853065490723,-0.81,1.59,1.47,2.31
16.932170867919922,-0.73,2.01,1.72,2.74
16.941990852355957,-0.66,2.17,1.83,2.91
16.963787078857422,-0.64,2.3,1.5,2.81
16.964159965515137,-0.66,2.35,1.05,2.65
16.97201108932495,-0.73,2.19,0.94,2.49
16.982347011566162,-0.78,2.02,0.95,2.36
16.991904973983765,-0.85,1.72,1.11,2.21
17.0136559009552,-0.85,1.52,1.42,2.24
17.014039039611816,-0.78,1.62,1.62,2.42
17.021881103515625,-0.58,2.07,1.75,2.77
17.03182601928711,-0.2,2.55,1.48,2.95
17.047135829925537,0.23,2.75,0.13,2.76
17.051804065704346,0.59,2.77,-1.38,3.15
17.061829090118408,0.83,2.58,-2.12,3.44
17.071845054626465,0.9,1.78,-2.34,3.07
17.08186101913452,0.88,1.23,-2.45,2.87
17.09529209136963,0.91,1.25,-2.15,2.64
17.10181999206543,1.0,1.44,-1.26,2.15
17.11184310913086,1.05,1.36,-0.47,1.78
17.122010946273804,1.08,1.17,-0.38,1.63
17.131913900375366,1.08,0.99,-0.98,1.76
17.147103786468506,1.05,0.88,-1.65,2.14
17.151793003082275,0.96,0.6,-1.99,2.28
17.161913871765137,0.91,0.35,-1.58,1.85
17.171804904937744,0.86,0.36,-0.8,1.22
17.181869983673096,0.49,0.36,-0.43,0.74
17.196794033050537,0.02,0.14,-0.4,0.42
17.201738834381104,-0.34,-0.27,-0.32,0.53
17.211858987808228,-0.65,-0.75,-0.29,1.03
17.22199010848999,-0.78,-1.22,-0.32,1.48
17.23193883895874,-0.73,-1.67,-0.29,1.84
17.247406005859375,-0.57,-2.07,-0.3,2.16
17.251929759979248,-0.35,-2.44,-0.33,2.48
17.26192593574524,-0.1,-2.8,-0.25,2.81
17.271944046020508,0.16,-3.1,-0.06,3.1
17.281970024108887,0.36,-3.18,0.04,3.2
17.29728078842163,0.46,-3.06,0.09,3.09
17.301790952682495,0.46,-2.84,0.18,2.88
17.311906814575195,0.41,-2.59,0.27,2.63
17.322054862976074,0.34,-2.28,0.33,2.32
17.33193588256836,0.24,-1.96,0.22,1.98
17.347543954849243,0.19,-1.78,0.18,1.79
17.35191798210144,0.2,-1.67,0.23,1.69
17.361954927444458,0.25,-1.5,0.02,1.52
17.371994972229004,0.38,-1.28,-0.15,1.34
17.381990909576416,0.55,-1.07,0.01,1.2
17.397502899169922,0.72,-0.89,0.12,1.15
17.401833057403564,0.83,-0.82,0.22,1.18
17.411879062652588,0.9,-0.6,0.16,1.09
17.422072887420654,0.85,-0.21,-0.09,0.88
17.432000875473022,0.78,0.4,-0.04,0.87
17.44830298423767,0.71,1.2,0.62,1.52
17.45181179046631,0.69,2.15,1.62,2.77
17.461781978607178,0.67,3.01,2.24,3.81
17.471991062164307,0.77,3.44,2.18,4.14
17.481975078582764,0.76,3.56,1.37,3.88
17.496742963790894,0.64,3.42,0.5,3.51
17.50193190574646,0.55,3.03,0.38,3.1
17.51192808151245,0.5,2.55,0.8,2.71
17.521970987319946,0.47,2.18,1.15,2.5
17.53203010559082,0.55,1.88,1.51,2.47
17.547132968902588,0.63,1.89,1.57,2.53
17.552084922790527,0.64,2.25,1.51,2.78
17.561940908432007,0.53,2.49,1.47,2.93
17.57190179824829,0.2,2.4,0.61,2.48
17.582010984420776,-0.14,2.21,-0.89,2.38
17.59763193130493,-0.48,1.75,-1.7,2.48
17.6019868850708,-0.85,0.91,-2.17,2.5
17.61203694343567,-1.14,0.34,-2.71,2.95
17.622179985046387,-1.37,0.2,-2.55,2.9
17.632041931152344,-1.48,0.01,-1.8,2.33
17.647722959518433,-1.46,-0.15,-1.35,1.99
17.65199589729309,-1.41,-0.1,-1.12,1.8
17.662033081054688,-1.4,-0.06,-0.95,1.69
17.67234992980957,-1.55,0.0,-1.46,2.12
17.682096004486084,-1.62,0.07,-1.85,2.46
17.698381900787354,-1.55,0.0,-1.77,2.35
17.70194697380066,-1.33,-0.11,-1.48,1.99
17.71207284927368,-0.88,-0.18,-1.01,1.35
17.72210192680359,-0.46,-0.34,-0.65,0.86
17.731973886489868,-0.07,-0.46,-0.51,0.69
17.748281955718994,0.35,-0.53,-0.36,0.73
17.751893997192383,0.69,-0.75,-0.25,1.04
17.761920928955078,0.91,-1.16,-0.3,1.5
17.77213478088379,0.91,-1.64,-0.28,1.89
17.78203582763672,0.77,-2.03,-0.06,2.17
17.798853874206543,0.47,-2.44,0.11,2.48
17.802085876464844,0.11,-2.79,0.16,2.79
17.811980962753296,-0.21,-3.0,0.09,3.0
17.822257041931152,-0.39,-3.12,-0.05,3.14
17.832018852233887,-0.45,-3.14,-0.14,3.17
17.849425792694092,-0.4,-3.02,-0.18,3.05
17.851871967315674,-0.3,-2.85,-0.24,2.87
17.86207389831543,-0.16,-2.66,-0.19,2.67
17.87225890159607,-0.12,-2.43,-0.13,2.43
17.882081031799316,-0.16,-2.26,-0.12,2.26
17.898748874664307,-0.22,-2.08,-0.15,2.09
17.90210199356079,-0.28,-1.88,-0.07,1.9
17.91208505630493,-0.35,-1.66,0.14,1.7
17.922653913497925,-0.41,-1.44,0.29,1.52
17.932074069976807,-0.48,-1.23,0.35,1.36
17.947762966156006,-0.63,-0.97,0.27,1.18
17.95198392868042,-0.73,-0.65,0.02,0.97
17.962044954299927,-0.85,-0.31,-0.23,0.93
17.972174882888794,-0.9,0.15,-0.21,0.93
17.982068061828613,-0.95,0.62,0.21,1.15
17.99825096130371,-0.92,0.99,0.82,1.58
18.001975059509277,-0.82,1.32,1.36,2.06
18.012035846710205,-0.64,1.66,1.54,2.35
18.0223069190979,-0.6,1.96,1.5,2.54
18.03211498260498,-0.62,2.34,1.58,2.89
18.048686027526855,-0.67,2.69,1.79,3.29
18.051980018615723,-0.76,2.94,1.63,3.44
18.062045097351074,-0.94,2.98,1.24,3.36
18.07228183746338,-1.09,2.83,0.94,3.17
18.082162857055664,-1.25,2.47,0.84,2.89
18.098565101623535,-1.34,2.28,1.08,2.85
18.101950883865356,-1.47,2.63,1.62,3.42
18.11213493347168,-1.29,3.23,1.96,3.99
18.12216281890869,-0.79,3.32,1.54,3.74
18.132125854492188,-0.16,2.87,0.04,2.87
18.147768020629883,0.42,2.34,-1.12,2.62
18.151980876922607,0.87,1.85,-1.17,2.35
18.162091970443726,1.15,1.12,-1.49,2.19
18.173017024993896,1.23,0.37,-2.12,2.47
18.18219804763794,1.19,0.26,-2.18,2.49
18.199193954467773,1.25,0.43,-1.44,1.95
18.202037811279297,1.37,0.34,-0.77,1.6
18.212120056152344,1.55,0.17,-0.65,1.68
18.222306966781616,1.47,0.08,-0.67,1.61
18.232154846191406,1.28,-0.07,-0.96,1.6
18.248878002166748,1.13,-0.12,-1.39,1.79
18.2520489692688,0.96,-0.14,-1.74,1.99
18.262156009674072,0.79,-0.15,-1.57,1.76
18.272095918655396,0.63,-0.05,-0.87,1.07
18.282164096832275,0.41,0.0,-0.32,0.52
18.29865288734436,0.07,-0.18,-0.26,0.32
18.3020498752594,-0.32,-0.46,-0.43,0.7
18.312169075012207,-0.6,-0.88,-0.44,1.15
18.32231593132019,-0.73,-1.36,-0.32,1.57
18.332153797149658,-0.7,-1.85,-0.36,2.01
18.3490469455719,-0.54,-2.33,-0.56,2.45
18.352067947387695,-0.25,-2.72,-0.63,2.8
18.362199783325195,0.03,-2.97,-0.51,3.01
18.37220287322998,0.29,-2.99,-0.43,3.03
18.38225293159485,0.42,-2.91,-0.39,2.96
18.39882183074951,0.5,-2.79,-0.29,2.84
18.402100086212158,0.54,-2.54,-0.24,2.6
18.41219186782837,0.5,-2.21,-0.21,2.27
18.422235012054443,0.46,-1.85,-0.06,1.9
18.432215929031372,0.34,-1.59,0.16,1.63
18.448319911956787,0.27,-1.41,0.26,1.45
18.452056884765625,0.22,-1.29,0.17,1.31
18.462213039398193,0.2,-1.13,-0.02,1.14
18.472233772277832,0.2,-0.95,-0.11,0.97
18.482213020324707,0.26,-0.7,-0.14,0.75
18.499197006225586,0.37,-0.49,-0.14,0.62
18.502005100250244,0.5,-0.38,-0.03,0.62
18.512191772460938,0.63,-0.2,-0.05,0.66
18.52226996421814,0.68,0.24,-0.01,0.72
18.532262802124023,0.75,0.77,0.46,1.16
18.54963207244873,0.71,1.19,1.09,1.76
18.552073001861572,0.66,1.48,1.64,2.3
18.562259912490845,0.56,1.75,2.01,2.72
18.572280883789062,0.37,2.13,2.23,3.1
18.582191944122314,0.28,2.56,2.17,3.36
18.599166870117188,0.21,2.87,1.73,3.35
18.602133989334106,0.24,3.01,1.35,3.3
18.612260818481445,0.28,3.01,1.18,3.24
18.622413873672485,0.3,3.09,1.04,3.27
18.63231587409973,0.32,3.29,1.26,3.53
18.649692058563232,0.33,3.52,1.98,4.05
18.652094841003418,0.34,3.5,1.93,4.01
18.662293910980225,0.32,3.07,0.88,3.2
18.672132968902588,0.08,2.39,-0.26,2.4
18.682310104370117,-0.14,1.97,-1.18,2.3
18.69990301132202,-0.28,1.45,-1.78,2.31
18.702326774597168,-0.46,0.74,-2.21,2.37
18.71235704421997,-0.58,0.27,-2.24,2.32
18.72231888771057,-0.64,-0.02,-1.8,1.91
18.73232889175415,-0.81,-0.29,-1.15,1.43
18.750062942504883,-0.94,-0.61,-0.36,1.17
18.752273082733154,-1.01,-0.96,-0.16,1.4
18.762260913848877,-1.21,-1.12,-0.72,1.79
18.77230405807495,-1.42,-1.03,-1.36,2.21
18.782352924346924,-1.51,-0.74,-1.82,2.47
18.80028796195984,-1.47,-0.45,-2.01,2.53
18.802254915237427,-1.35,-0.24,-1.76,2.23
18.812310934066772,-0.94,-0.06,-1.25,1.56
18.82221794128418,-0.47,-0.02,-0.87,0.98
18.832282066345215,-0.06,-0.23,-0.71,0.74
18.84950089454651,0.31,-0.59,-0.74,0.99
18.852402925491333,0.67,-1.0,-0.71,1.39
18.862443923950195,0.86,-1.5,-0.54,1.81
18.872200965881348,0.86,-2.0,-0.47,2.22
18.882312774658203,0.72,-2.42,-0.49,2.57
18.90079092979431,0.51,-2.78,-0.5,2.87
18.902477979660034,0.12,-2.99,-0.44,3.02
18.912364959716797,-0.21,-3.01,-0.1,3.01
18.922264099121094,-0.45,-2.85,0.21,2.89
18.9323410987854,-0.47,-2.6,0.29,2.65
18.950636863708496,-0.39,-2.25,0.24,2.29
18.952640056610107,-0.27,-1.81,0.1,1.83
18.962358951568604,-0.2,-1.53,0.02,1.54
18.972084999084473,-0.14,-1.3,-0.03,1.3
18.98233699798584,-0.02,-1.04,-0.11,1.04
19.000343799591064,0.06,-0.91,0.01,0.91
19.002697944641113,0.08,-0.87,0.12,0.88
19.01236391067505,0.04,-0.9,0.1,0.9
19.022408962249756,-0.09,-0.97,0.01,0.97
19.032404899597168,-0.31,-1.05,-0.17,1.1
19.050771951675415,-0.52,-1.1,-0.34,1.26
19.052781105041504,-0.67,-1.07,-0.5,1.35
19.062335968017578,-0.76,-0.91,-0.54,1.3
19.07235598564148,-0.79,-0.52,-0.14,0.95
19.082396984100342,-0.8,0.01,0.62,1.01
19.100554943084717,-0.73,0.62,1.23,1.55
19.10295295715332,-0.63,1.27,1.5,2.06
19.112384796142578,-0.5,1.8,1.6,2.45
19.12224006652832,-0.44,2.19,1.59,2.74
19.132314920425415,-0.44,2.61,1.44,3.01
19.150612831115723,-0.47,2.9,1.34,3.22
19.153010845184326,-0.56,3.03,1.39,3.38
19.162380933761597,-0.64,3.07,1.54,3.49
19.172282934188843,-0.72,3.08,1.96,3.72
19.18243408203125,-0.79,3.12,2.59,4.13
19.200877904891968,-0.77,3.15,2.89,4.34
19.20215892791748,-0.68,3.0,2.32,3.85
19.212384939193726,-0.49,2.79,1.24,3.09
19.22229290008545,-0.22,2.58,0.13,2.59
19.232374906539917,0.2,2.08,-0.48,2.14
19.251722812652588,0.68,1.23,-0.85,1.64
19.252155780792236,0.93,0.67,-1.75,2.09
19.262428760528564,1.12,0.5,-2.33,2.63
19.272299766540527,1.35,0.26,-2.11,2.51
19.282465934753418,1.64,0.02,-1.72,2.37
19.301284790039062,1.86,-0.06,-1.35,2.29
19.302258014678955,1.94,-0.08,-1.06,2.21
19.312439918518066,1.92,-0.04,-1.1,2.21
19.322460889816284,1.75,0.02,-1.43,2.26
19.332479000091553,1.54,0.05,-1.84,2.39
19.35196089744568,1.34,0.09,-1.91,2.33
19.352340936660767,1.11,0.12,-1.33,1.73
19.362514972686768,0.8,0.14,-0.5,0.95
19.372503757476807,0.49,0.02,0.04,0.49
19.382493019104004,0.07,-0.37,0.15,0.4
19.401700019836426,-0.23,-0.87,-0.01,0.89
19.4023699760437,-0.46,-1.41,-0.11,1.48
19.41253089904785,-0.54,-1.94,-0.13,2.01
19.422478914260864,-0.55,-2.37,-0.21,2.44
19.432524919509888,-0.42,-2.71,-0.27,2.75
19.45154595375061,-0.28,-3.01,-0.23,3.03
19.452404975891113,-0.11,-3.24,-0.04,3.24
19.46249008178711,0.16,-3.36,0.05,3.36
19.47229290008545,0.37,-3.3,0.08,3.32
19.482513904571533,0.45,-3.04,0.11,3.07
19.50128197669983,0.48,-2.7,-0.03,2.74
19.502357959747314,0.44,-2.35,0.01,2.39
19.512465953826904,0.34,-1.97,0.09,2.0
19.522294998168945,0.27,-1.55,0.17,1.58
19.53243589401245,0.18,-1.17,0.31,1.22
19.5515558719635,0.21,-0.8,0.27,0.87
19.552313804626465,0.29,-0.44,0.05,0.52
19.562505960464478,0.3,-0.22,-0.09,0.38
19.572300910949707,0.39,-0.01,-0.1,0.4
19.582470893859863,0.54,0.19,-0.02,0.57
19.601006984710693,0.64,0.45,0.0,0.78
19.602312088012695,0.77,0.84,0.11,1.14
19.6124210357666,0.88,1.48,0.36,1.75
19.62227487564087,0.96,2.22,0.96,2.6
19.632515907287598,0.9,2.71,1.77,3.35
19.651726961135864,0.86,3.01,1.95,3.68
19.652431964874268,0.68,3.0,1.51,3.42
19.662515878677368,0.48,2.82,1.06,3.05
19.67229175567627,0.33,2.53,1.05,2.75
19.6825008392334,0.23,2.22,1.2,2.53
19.701231002807617,0.23,2.01,1.35,2.43
19.702302932739258,0.29,1.89,1.48,2.41
19.71258306503296,0.37,2.03,1.57,2.59
19.722336769104004,0.46,2.37,1.56,2.87
19.732536792755127,0.52,2.55,1.53,3.01
19.752070903778076,0.47,2.34,0.94,2.56
19.752450942993164,0.22,1.95,-0.46,2.01
19.762550830841064,-0.08,1.57,-1.54,2.2
19.77231502532959,-0.42,0.9,-1.88,2.12
19.78259801864624,-0.69,0.14,-1.93,2.05
19.801012992858887,-0.95,-0.27,-2.22,2.42
19.802359104156494,-1.15,-0.38,-2.25,2.55
19.81255793571472,-1.27,-0.26,-1.7,2.13
19.82260298728943,-1.3,-0.17,-0.99,1.64
19.832534790039062,-1.38,-0.2,-0.89,1.65
19.851245880126953,-1.57,-0.21,-1.36,2.08
19.852345943450928,-1.78,-0.18,-1.95,2.64
19.862574100494385,-1.84,-0.26,-2.13,2.82
19.872411966323853,-1.73,-0.38,-1.97,2.64
19.88259792327881,-1.46,-0.4,-1.56,2.17
19.90223789215088,-1.1,-0.22,-1.04,1.52
19.90263605117798,-0.74,0.1,-0.61,0.96
19.912622928619385,-0.36,0.27,-0.36,0.57
19.92242193222046,0.11,0.2,-0.3,0.37
19.93258285522461,0.42,-0.16,-0.4,0.6
19.952675819396973,0.49,-0.64,-0.46,0.92
19.95305585861206,0.28,-0.98,-0.54,1.15
19.96260094642639,-0.02,-1.23,-0.41,1.29
19.972386837005615,-0.33,-1.46,0.01,1.49
19.982611894607544,-0.62,-1.71,0.34,1.85
20.001558780670166,-0.77,-1.97,0.47,2.16
20.003185987472534,-0.74,-2.27,0.34,2.41
20.00866985321045,-0.66,-2.51,0.08,2.59
20.01874589920044,-0.43,-2.57,-0.05,2.6
20.02879285812378,-0.27,-2.62,-0.01,2.63
20.051138877868652,-0.17,-2.67,-0.1,2.67
20.051505088806152,-0.1,-2.66,-0.2,2.66
20.058650016784668,-0.12,-2.6,-0.2,2.61
20.068695068359375,-0.18,-2.51,-0.17,2.52
20.078887939453125,-0.33,-2.45,-0.08,2.47
20.10217809677124,-0.49,-2.31,0.09,2.36
20.102540016174316,-0.57,-2.09,0.24,2.17
20.10870885848999,-0.71,-1.81,0.28,1.96
20.118871927261353,-0.85,-1.49,0.3,1.74
20.129010915756226,-0.95,-1.14,0.34,1.52
20.151859760284424,-1.07,-0.72,0.25,1.31
20.15222692489624,-1.15,-0.16,0.12,1.16
20.158679008483887,-1.19,0.54,0.34,1.35
20.168771982192993,-1.19,1.24,0.82,1.9
20.17878007888794,-1.0,1.82,1.48,2.55
20.20196795463562,-0.73,2.5,2.06,3.32
20.202335834503174,-0.41,2.96,2.18,3.69
20.20881986618042,-0.12,3.13,1.72,3.57
20.219031810760498,-0.02,3.37,1.1,3.54
20.228782892227173,-0.06,3.49,0.72,3.56
20.254066944122314,-0.25,3.19,0.47,3.23
20.255012035369873,-0.48,2.87,0.67,2.98
20.258788108825684,-0.83,2.88,1.49,3.34
20.268917083740234,-1.06,3.15,2.37,4.08
20.278875827789307,-1.08,3.33,2.33,4.2
20.302316904067993,-0.9,3.03,1.03,3.32
20.302684783935547,-0.64,2.57,-0.78,2.76
20.30887794494629,-0.13,2.19,-1.43,2.61
20.319015979766846,0.47,1.4,-1.39,2.02
20.32899498939514,0.83,0.46,-1.63,1.88
20.352418899536133,0.94,0.01,-2.16,2.35
20.352791786193848,1.06,-0.03,-2.55,2.76
20.3586688041687,1.16,0.08,-2.17,2.46
20.36867904663086,1.32,0.18,-1.03,1.68
20.37881898880005,1.52,0.11,-0.04,1.52
20.388827800750732,1.59,0.17,0.01,1.59
20.40491008758545,1.51,0.28,-0.73,1.7
20.411362886428833,1.39,0.32,-1.71,2.22
20.42522382736206,1.14,0.37,-2.49,2.76
20.431371927261353,1.05,0.4,-2.1,2.38
20.453936100006104,0.97,0.36,-1.0,1.43
20.454317092895508,0.85,0.29,-0.21,0.92
20.461342811584473,0.6,0.13,-0.12,0.62
20.471394062042236,0.18,-0.21,-0.24,0.36
20.481515884399414,-0.19,-0.67,-0.22,0.73
20.502645015716553,-0.41,-1.19,-0.14,1.26
20.50300693511963,-0.46,-1.68,-0.18,1.75
20.511470794677734,-0.37,-2.11,-0.28,2.16
20.52144694328308,-0.16,-2.56,-0.22,2.57
20.53160810470581,-0.11,-3.02,-0.03,3.02
20.552549839019775,-0.05,-3.34,0.14,3.34
20.552913904190063,-0.06,-3.44,0.13,3.44
20.561522006988525,-0.15,-3.4,0.08,3.4
20.571492910385132,-0.23,-3.22,0.0,3.22
20.581552982330322,-0.23,-3.04,-0.06,3.04
20.603112936019897,-0.19,-2.75,-0.13,2.75
20.603477001190186,-0.17,-2.44,-0.19,2.45
20.611496925354004,-0.1,-2.1,-0.1,2.1
20.621463775634766,0.17,-1.73,0.17,1.74
20.631597995758057,0.41,-1.4,0.31,1.49
20.653486967086792,0.68,-1.07,0.08,1.27
20.653851985931396,0.96,-0.75,-0.09,1.22
20.661502838134766,1.22,-0.4,-0.02,1.28
20.67138910293579,1.35,0.01,-0.01,1.35
20.68152904510498,1.41,0.38,0.05,1.46
20.703723907470703,1.41,0.63,0.02,1.54
20.704102993011475,1.36,0.91,0.05,1.63
20.71146583557129,1.37,1.32,0.46,1.95
20.721417903900146,1.38,1.81,1.13,2.54
20.731626987457275,1.32,2.12,1.8,3.07
20.75300097465515,1.24,2.34,2.01,3.32
20.753350973129272,1.16,2.61,1.91,3.43
20.761514902114868,1.01,2.81,2.0,3.59
20.771451950073242,0.84,2.89,2.06,3.64
20.781548976898193,0.65,2.82,1.88,3.45
20.80283784866333,0.51,2.63,1.73,3.18
20.803218841552734,0.41,2.38,1.83,3.03
20.811520099639893,0.38,2.3,1.86,2.98
20.82131791114807,0.4,2.58,1.79,3.16
20.831541061401367,0.39,3.0,1.93,3.58
20.85354709625244,0.38,2.98,1.71,3.45
20.85391092300415,0.23,2.33,0.58,2.41
20.861572980880737,0.14,2.05,-0.54,2.12
20.871482849121094,0.06,2.12,-1.09,2.38
20.88164186477661,0.0,1.4,-2.06,2.49
20.903546810150146,-0.34,0.18,-3.04,3.06
20.90391993522644,-0.6,-0.21,-3.37,3.42
20.91142702102661,-0.79,-0.52,-3.07,3.21
20.921425819396973,-0.95,-0.91,-2.62,2.93
20.931653022766113,-1.02,-0.96,-1.84,2.31
20.951687812805176,-1.27,-1.03,-1.02,1.92
20.95201301574707,-1.37,-1.18,-0.85,1.99
20.96178889274597,-1.5,-1.2,-1.23,2.28
20.971566915512085,-1.63,-1.01,-1.56,2.47
20.98157787322998,-1.44,-0.8,-1.39,2.15
21.000319004058838,-1.63,-0.07,-0.85,1.83
21.001351833343506,-1.16,0.26,-1.2,1.68
21.01139998435974,-0.6,0.25,-0.88,1.09
21.021440029144287,-0.07,-0.14,-0.78,0.79
21.03140878677368,0.31,-0.48,-0.79,0.97
21.055619955062866,0.45,-0.77,-0.87,1.24
21.05589485168457,0.59,-1.05,-0.69,1.38
21.06126880645752,0.62,-1.34,-0.39,1.52
21.071299076080322,0.54,-1.71,-0.14,1.79
21.08138394355774,0.46,-2.01,-0.02,2.06
21.103635787963867,0.34,-2.24,0.01,2.26
21.104010105133057,0.19,-2.32,0.03,2.32
21.11156988143921,0.08,-2.23,-0.11,2.23
21.12146806716919,-0.01,-2.09,-0.15,2.09
21.131736755371094,-0.07,-1.98,-0.1,1.98
21.15703797340393,-0.09,-1.86,-0.17,1.86
21.157999992370605,-0.1,-1.73,-0.27,1.75
21.161675930023193,-0.03,-1.67,-0.26,1.69
21.171546936035156,0.03,-1.67,-0.3,1.69
21.181649923324585,0.04,-1.66,-0.31,1.68
21.20608901977539,0.0,-1.73,-0.08,1.73
21.20704197883606,-0.11,-1.8,0.08,1.8
21.211464881896973,-0.22,-1.89,0.19,1.91
21.221595764160156,-0.34,-1.93,0.37,1.99
21.231564044952393,-0.49,-1.87,0.63,2.03
21.256748914718628,-0.59,-1.7,0.73,1.94
21.257887840270996,-0.63,-1.3,0.73,1.61
21.26151990890503,-0.6,-0.7,0.82,1.23
21.27163290977478,-0.56,0.03,0.96,1.11
21.28165578842163,-0.43,0.8,1.19,1.49
21.305965900421143,-0.31,1.52,1.08,1.89
21.30634093284607,-0.24,2.25,0.76,2.38
21.311652898788452,-0.37,2.85,0.63,2.94
21.32162380218506,-0.52,3.32,0.82,3.45
21.33167600631714,-0.75,3.41,1.35,3.74
21.35587978363037,-1.05,3.18,1.86,3.83
21.356238842010498,-1.31,2.72,2.1,3.67
21.361498832702637,-1.36,2.26,2.07,3.35
21.371620893478394,-1.29,2.02,2.05,3.15
21.381752967834473,-1.2,2.16,2.12,3.25
21.404286861419678,-0.97,2.5,2.23,3.48
21.404651880264282,-0.6,2.75,1.75,3.31
21.411711931228638,-0.21,2.43,0.58,2.5
21.421567916870117,0.12,2.06,-0.64,2.16
21.43170976638794,0.33,1.87,-1.36,2.33
21.45464277267456,0.48,1.36,-1.66,2.19
21.45501399040222,0.61,0.76,-2.14,2.35
21.461609840393066,0.88,0.49,-2.4,2.6
21.471582889556885,1.18,0.55,-1.85,2.26
21.481772899627686,1.36,0.32,-1.2,1.84
21.504628896713257,1.63,0.06,-0.95,1.88
21.504995822906494,1.71,-0.01,-1.11,2.03
21.5115327835083,1.48,0.07,-1.49,2.1
21.521570920944214,1.29,0.32,-1.67,2.13
21.53182291984558,1.2,0.68,-1.53,2.05
21.554999828338623,1.04,0.83,-1.13,1.74
21.55536699295044,0.86,0.94,-0.83,1.52
21.561590909957886,0.54,0.94,-0.52,1.2
21.571631908416748,0.14,0.46,-0.35,0.59
21.581717014312744,-0.28,-0.13,-0.4,0.5
21.60471796989441,-0.6,-0.67,-0.39,0.98
21.60508680343628,-0.77,-1.2,-0.29,1.45
21.611677885055542,-0.83,-1.7,-0.2,1.9
21.62174391746521,-0.74,-2.24,0.02,2.35
21.63175392150879,-0.49,-2.72,0.3,2.78
21.655563831329346,-0.18,-3.04,0.38,3.06
21.65593910217285,0.14,-3.21,0.11,3.21
21.661638975143433,0.33,-3.2,-0.08,3.21
21.67166805267334,0.49,-2.98,-0.1,3.02
21.681728839874268,0.57,-2.73,-0.1,2.79
21.70501399040222,0.57,-2.55,-0.23,2.62
21.70539093017578,0.52,-2.4,-0.29,2.47
21.711697101593018,0.41,-2.32,-0.07,2.35
21.721664905548096,0.33,-2.2,0.06,2.22
21.731759071350098,0.3,-2.04,0.12,2.06
21.75531792640686,0.4,-1.84,0.12,1.88
21.75569486618042,0.65,-1.52,0.16,1.66
21.761669874191284,0.87,-1.04,0.1,1.35
21.77167296409607,1.05,-0.62,-0.02,1.21
21.78182291984558,1.15,-0.25,0.05,1.17
21.805256843566895,1.1,0.16,0.08,1.11
21.805635929107666,1.03,0.66,0.17,1.23
21.81164789199829,0.93,1.26,0.55,1.65
21.821857929229736,0.82,2.07,1.25,2.55
21.83175802230835,0.67,2.78,1.76,3.35
21.855642795562744,0.62,3.12,1.81,3.65
21.85600996017456,0.63,3.25,1.48,3.62
21.861727952957153,0.71,3.27,1.25,3.57
21.87170696258545,0.7,3.05,1.13,3.32
21.88176679611206,0.65,2.71,1.03,2.97
21.906852960586548,0.62,2.3,1.13,2.63
21.907209873199463,0.57,2.06,1.57,2.65
21.911704063415527,0.49,2.15,1.78,2.83
21.922107934951782,0.43,2.42,1.59,2.92
21.93191695213318,0.34,2.67,0.95,2.85
21.957329988479614,0.24,2.73,0.21,2.74
21.95770788192749,0.1,2.47,-0.38,2.5
21.961670875549316,-0.12,1.74,-1.23,2.13
21.97176694869995,-0.38,0.86,-2.14,2.33
21.981993913650513,-0.64,0.22,-2.71,2.79
22.007540941238403,-0.91,-0.03,-2.28,2.45
22.00847887992859,-1.08,-0.29,-1.09,1.56
22.011763095855713,-1.16,-0.65,-0.42,1.39
22.021745920181274,-1.23,-0.75,-0.77,1.63
22.03189182281494,-1.43,-0.69,-1.36,2.09
22.0572190284729,-1.63,-0.72,-1.73,2.48
22.05759596824646,-1.66,-0.66,-1.81,2.54
22.061553955078125,-1.61,-0.66,-1.52,2.31
22.071775913238525,-1.45,-0.53,-1.17,1.93
22.081881999969482,-1.21,-0.36,-0.93,1.56
22.10607385635376,-0.83,-0.2,-0.71,1.11
22.10644793510437,-0.38,-0.16,-0.52,0.66
22.111783981323242,0.13,-0.18,-0.51,0.55
22.121784925460815,0.47,-0.31,-0.78,0.96
22.131816864013672,0.69,-0.6,-0.92,1.29
22.156656980514526,0.61,-1.0,-0.68,1.35
22.157028913497925,0.39,-1.33,-0.33,1.42
22.16170597076416,0.14,-1.63,0.03,1.63
22.171758890151978,-0.11,-2.04,0.33,2.06
22.181882858276367,-0.38,-2.34,0.44,2.41
22.206580877304077,-0.53,-2.42,0.43,2.51
22.206949949264526,-0.65,-2.36,0.32,2.46
22.211870908737183,-0.64,-2.25,0.22,2.34
22.22184705734253,-0.54,-2.1,0.16,2.17
22.231847763061523,-0.46,-1.87,-0.04,1.92
22.257318019866943,-0.37,-1.75,-0.26,1.8
22.257688999176025,-0.3,-1.8,-0.27,1.84
22.261784076690674,-0.2,-1.92,-0.2,1.94
22.271764755249023,-0.21,-2.01,-0.17,2.02
22.28195285797119,-0.25,-2.11,-0.08,2.12
22.307843923568726,-0.28,-2.09,0.02,2.1
22.30822992324829,-0.34,-1.96,0.05,1.98
22.311744928359985,-0.49,-1.78,0.0,1.84
22.321828842163086,-0.61,-1.5,-0.11,1.62
22.33191204071045,-0.79,-1.11,-0.12,1.36
22.34181308746338,-0.94,-0.61,-0.07,1.12
22.358750820159912,-1.07,-0.02,0.16,1.08
22.36183190345764,-1.13,0.7,0.59,1.45
22.371871948242188,-1.03,1.42,1.14,2.09
22.381930828094482,-0.9,2.04,1.55,2.71
22.391817092895508,-0.71,2.65,1.73,3.24
22.40843105316162,-0.48,3.11,1.62,3.53
22.411820888519287,-0.3,3.3,1.19,3.52
22.42185688018799,-0.32,3.2,0.82,3.31
22.431888103485107,-0.42,2.95,0.73,3.06
22.441881895065308,-0.51,2.59,1.07,2.84
22.458098888397217,-0.6,2.34,1.68,2.94
22.46177577972412,-0.7,2.27,2.12,3.18
22.471824884414673,-0.69,2.54,2.36,3.53
22.48192596435547,-0.51,2.89,2.51,3.86
22.491954803466797,-0.25,2.9,1.24,3.16
22.508035898208618,0.04,2.89,-0.8,2.99
22.511883974075317,0.35,2.87,-1.66,3.33
22.521883964538574,0.72,2.12,-1.45,2.66
22.53193187713623,0.92,1.08,-1.72,2.22
22.54188585281372,0.95,0.68,-2.42,2.68
22.55712389945984,0.94,0.53,-2.36,2.59
22.561901092529297,0.99,0.3,-1.55,1.86
22.571931838989258,1.09,0.05,-0.83,1.37
22.58190679550171,1.15,-0.13,-0.58,1.29
22.591848850250244,1.12,-0.24,-0.65,1.31
22.607850074768066,1.0,-0.28,-1.13,1.53
22.611965894699097,0.79,-0.36,-1.5,1.73
22.621936798095703,0.63,-0.48,-1.42,1.62
22.631953954696655,0.49,-0.37,-1.05,1.21
22.64188003540039,0.37,-0.26,-0.43,0.62
22.658751964569092,0.23,-0.18,0.11,0.31
22.66197109222412,0.04,-0.26,0.33,0.42
22.671835899353027,-0.16,-0.62,0.27,0.69
22.681884765625,-0.29,-1.17,0.11,1.21
22.69191884994507,-0.32,-1.6,0.01,1.63
22.707605838775635,-0.22,-2.02,-0.1,2.03
22.71189594268799,-0.14,-2.47,-0.22,2.48
22.721898078918457,0.02,-2.86,-0.21,2.86
22.7319917678833,0.3,-3.08,0.05,3.09
22.741858959197998,0.51,-3.05,0.2,3.09
22.757802963256836,0.64,-2.93,0.14,3.0
22.762003898620605,0.66,-2.73,0.03,2.8
22.77188777923584,0.57,-2.5,0.03,2.56
22.781985759735107,0.44,-2.18,0.22,2.23
22.791886806488037,0.34,-1.81,0.41,1.88
22.80714988708496,0.29,-1.54,0.57,1.66
22.811891078948975,0.27,-1.35,0.64,1.51
22.821969985961914,0.31,-1.18,0.52,1.32
22.831960916519165,0.39,-1.04,0.21,1.13
22.84191393852234,0.48,-0.88,-0.02,1.0
22.85814094543457,0.61,-0.68,-0.18,0.93
22.861994981765747,0.76,-0.5,-0.26,0.94
22.871895790100098,0.81,-0.21,-0.2,0.86
22.881980895996094,0.83,0.18,0.02,0.84
22.89200782775879,0.97,0.72,0.34,1.25
22.907363891601562,1.01,1.45,0.79,1.93
22.911931037902832,1.05,2.14,1.4,2.76
22.922021865844727,0.99,2.64,1.68,3.28
22.931952953338623,0.87,3.1,1.63,3.6
22.941967010498047,0.6,3.47,1.43,3.8
22.957624912261963,0.27,3.4,1.17,3.6
22.9618079662323,0.15,3.08,0.92,3.21
22.972025871276855,0.1,2.8,0.76,2.9
22.98204493522644,0.04,2.56,0.87,2.7
22.99205207824707,0.12,2.4,1.15,2.66
23.008974075317383,0.29,2.66,1.47,3.05
23.011940956115723,0.44,3.1,1.85,3.63
23.022021770477295,0.61,3.15,1.74,3.64
23.032020092010498,0.56,2.79,0.29,2.86
23.042064905166626,0.4,2.45,-1.06,2.69
23.059401035308838,0.06,1.84,-1.46,2.34
23.061973094940186,-0.33,0.82,-1.62,1.84
23.07195496559143,-0.74,-0.05,-2.12,2.24
23.08208179473877,-1.07,-0.53,-2.41,2.68
23.092031002044678,-1.26,-0.97,-2.16,2.68
23.109519958496094,-1.3,-1.44,-1.76,2.61
23.111954927444458,-1.27,-1.55,-1.05,2.26
23.121967792510986,-1.22,-1.37,-0.66,1.94
23.13218593597412,-1.13,-1.08,-1.1,1.91
23.141969919204712,-1.13,-0.52,-1.33,1.82
23.15887975692749,-1.11,0.1,-1.53,1.89
23.162086963653564,-1.1,0.51,-1.64,2.03
23.1720290184021,-0.95,0.74,-1.3,1.77
23.18205690383911,-0.79,0.78,-0.98,1.48
23.192089080810547,-0.47,0.52,-0.91,1.14
23.208839893341064,-0.08,0.03,-0.89,0.89
23.211962938308716,0.23,-0.44,-0.81,0.95
23.222017765045166,0.35,-0.99,-0.63,1.22
23.232120990753174,0.35,-1.56,-0.31,1.62
23.24201989173889,0.24,-2.08,-0.04,2.09
23.25881791114807,0.08,-2.42,0.06,2.42
23.26199197769165,-0.14,-2.57,0.01,2.57
23.271995067596436,-0.3,-2.62,-0.03,2.63
23.28210687637329,-0.38,-2.56,-0.12,2.59
23.292046070098877,-0.36,-2.41,-0.21,2.44
23.308934926986694,-0.32,-2.24,-0.22,2.27
23.31212091445923,-0.23,-2.0,-0.21,2.02
23.322016954421997,-0.17,-1.78,-0.32,1.81
23.33223295211792,-0.11,-1.74,-0.45,1.8
23.342033863067627,-0.08,-1.72,-0.5,1.79
23.358211994171143,-0.08,-1.67,-0.42,1.72
23.362063884735107,-0.13,-1.64,-0.32,1.67
23.372018814086914,-0.22,-1.54,-0.15,1.56
23.382150888442993,-0.4,-1.31,0.1,1.37
23.39209508895874,-0.58,-1.07,0.32,1.25
23.408495903015137,-0.76,-0.85,0.45,1.22
23.41190481185913,-0.9,-0.66,0.51,1.22
23.42203998565674,-1.04,-0.46,0.33,1.18
23.4321129322052,-1.1,-0.21,0.06,1.12
23.442101001739502,-1.07,0.15,-0.02,1.08
23.458329916000366,-1.02,0.56,0.28,1.19
23.461991786956787,-0.93,0.96,0.75,1.53
23.472044944763184,-0.83,1.34,1.04,1.88
23.482162952423096,-0.66,1.72,1.15,2.17
23.492116928100586,-0.57,1.94,1.28,2.39
23.50961399078369,-0.57,2.1,1.26,2.51
23.51191806793213,-0.6,2.17,1.1,2.5
23.522078037261963,-0.68,2.13,0.78,2.36
23.53218984603882,-0.75,1.89,0.69,2.14
23.542129039764404,-0.82,1.53,0.8,1.91
23.5591299533844,-1.0,1.33,1.07,1.97
23.562009811401367,-1.14,1.58,1.63,2.54
23.57209587097168,-1.11,2.23,2.16,3.29
23.58228302001953,-0.77,2.7,1.99,3.44
23.59212303161621,-0.32,2.49,0.61,2.58
23.607951879501343,0.12,2.03,-0.9,2.22
23.612042903900146,0.56,1.73,-1.42,2.3
23.622129917144775,0.78,1.11,-1.37,1.92
23.632215976715088,0.82,0.42,-1.54,1.79
23.642112970352173,0.84,0.27,-1.83,2.03
23.65900182723999,0.95,0.45,-1.59,1.9
23.662012100219727,1.15,0.4,-1.01,1.58
23.672112941741943,1.31,0.2,-0.72,1.5
23.68209195137024,1.41,0.03,-0.71,1.57
23.692136764526367,1.39,0.11,-1.1,1.77
23.708981037139893,1.32,0.44,-1.55,2.08
23.712033987045288,1.35,0.48,-1.67,2.2
23.722160816192627,1.48,0.42,-1.46,2.12
23.732257843017578,1.51,0.68,-0.96,1.91
23.74217987060547,1.46,0.9,-0.52,1.79
23.759554862976074,1.12,0.86,-0.31,1.44
23.762049913406372,0.48,0.48,-0.43,0.8
23.77217197418213,-0.17,-0.07,-0.5,0.53
23.782154083251953,-0.62,-0.78,-0.4,1.07
23.79217791557312,-0.97,-1.48,-0.27,1.79
23.808507919311523,-1.14,-2.09,-0.14,2.38
23.81193208694458,-1.14,-2.6,-0.04,2.83
23.822170972824097,-0.91,-2.96,0.1,3.09
23.83224582672119,-0.55,-3.22,0.19,3.27
23.842206954956055,-0.16,-3.3,0.16,3.3
23.85983896255493,0.17,-3.16,-0.02,3.16
23.861988067626953,0.42,-2.85,-0.25,2.89
23.87216806411743,0.63,-2.51,-0.29,2.6
23.882176876068115,0.72,-2.22,-0.23,2.34
23.892160892486572,0.63,-1.93,-0.32,2.05
23.908363819122314,0.46,-1.74,-0.23,1.81
23.91195297241211,0.34,-1.63,0.0,1.66
23.922149896621704,0.36,-1.48,0.28,1.54
23.93214178085327,0.49,-1.31,0.54,1.49
23.942206859588623,0.67,-1.07,0.53,1.36
23.958606958389282,0.82,-0.67,0.26,1.09
23.962065935134888,0.93,-0.25,-0.06,0.96
23.972160816192627,1.04,0.09,-0.22,1.06
23.982095956802368,1.11,0.3,-0.36,1.2
23.992203950881958,1.16,0.51,-0.42,1.33
24.008512020111084,1.11,0.81,-0.11,1.37
24.012016773223877,1.05,1.27,0.71,1.79
24.022293090820312,0.9,1.73,1.72,2.6
24.032133102416992,0.8,2.18,2.18,3.18
24.04227876663208,0.74,2.56,2.19,3.44
24.058907985687256,0.66,2.84,2.05,3.56
24.062081813812256,0.49,3.0,1.72,3.49
24.07229995727539,0.29,2.97,1.31,3.25
24.082117080688477,0.21,2.96,1.02,3.13
24.092267990112305,0.19,2.97,1.26,3.23
24.108756065368652,0.2,2.99,1.9,3.54
24.112170934677124,0.29,2.97,2.33,3.78
24.122281074523926,0.41,2.87,1.85,3.43
24.13217782974243,0.35,2.75,0.97,2.93
24.14224100112915,0.2,2.68,0.29,2.7
24.159846782684326,-0.07,2.36,-0.12,2.36
24.16223907470703,-0.36,1.69,-0.73,1.87
24.172327041625977,-0.54,0.92,-1.85,2.13
24.182182788848877,-0.61,0.41,-2.68,2.77
24.192413806915283,-0.8,0.23,-2.87,2.98
24.209438800811768,-0.97,-0.12,-2.46,2.64
24.212306022644043,-1.04,-0.59,-1.91,2.25
24.222410917282104,-1.14,-1.01,-1.32,2.01
24.232218980789185,-1.18,-1.26,-1.03,2.01
24.242300987243652,-1.31,-1.4,-1.04,2.18
24.26065683364868,-1.49,-1.36,-1.17,2.33
24.2624249458313,-1.54,-1.15,-1.23,2.28
24.27234697341919,-1.49,-1.02,-1.1,2.11
24.282389879226685,-1.17,-0.75,-0.92,1.66
24.29237198829651,-0.74,-0.46,-0.83,1.2
24.31125497817993,-0.3,-0.3,-0.84,0.94
24.312642097473145,0.05,-0.32,-0.85,0.9
24.322446823120117,0.38,-0.45,-0.88,1.05
24.3321590423584,0.61,-0.69,-0.91,1.29
24.342352867126465,0.72,-1.06,-0.77,1.49
24.360660076141357,0.71,-1.39,-0.4,1.61
24.362834930419922,0.59,-1.71,0.03,1.8
24.37216091156006,0.41,-2.0,0.15,2.04
24.3821759223938,0.19,-2.16,0.21,2.17
24.392175912857056,-0.07,-2.22,0.36,2.25
24.41058588027954,-0.2,-2.32,0.43,2.36
24.412782907485962,-0.26,-2.41,0.29,2.44
24.422273874282837,-0.29,-2.44,0.29,2.47
24.432142972946167,-0.33,-2.38,0.41,2.43
24.44228982925415,-0.3,-2.23,0.44,2.29
24.46119976043701,-0.29,-2.14,0.29,2.17
24.462831020355225,-0.28,-2.08,0.26,2.11
24.472227096557617,-0.32,-1.95,0.23,1.98
24.482082843780518,-0.36,-1.72,0.01,1.75
24.49229097366333,-0.53,-1.51,-0.14,1.6
24.510210037231445,-0.63,-1.28,-0.13,1.43
24.512975931167603,-0.73,-1.13,0.0,1.34
24.522319793701172,-0.83,-1.01,0.02,1.3
24.532270908355713,-0.93,-0.88,-0.1,1.28
24.54236602783203,-0.99,-0.48,-0.08,1.1
24.560977935791016,-1.0,0.17,0.33,1.06
24.56220006942749,-0.96,1.03,0.96,1.7
24.572426795959473,-0.87,1.91,1.41,2.52
24.582104921340942,-0.82,2.62,1.65,3.2
24.59237289428711,-0.73,3.1,1.49,3.51
24.610435009002686,-0.66,3.4,1.18,3.65
24.612238883972168,-0.68,3.46,1.01,3.66
24.622374057769775,-0.73,3.38,0.95,3.58
24.63216495513916,-0.79,3.21,1.2,3.51
24.642340898513794,-0.79,3.07,1.6,3.55
24.660420894622803,-0.76,2.99,1.97,3.66
24.66232395172119,-0.69,3.01,2.21,3.79
24.67236089706421,-0.45,2.97,2.06,3.64
24.682722091674805,-0.19,2.86,1.36,3.17
24.692348957061768,0.02,2.88,0.42,2.91
24.710754871368408,0.26,2.77,-0.17,2.78
24.712263107299805,0.51,2.24,-0.48,2.34
24.722431898117065,0.67,1.39,-1.3,2.01
24.732176780700684,0.73,0.81,-2.26,2.5
24.74236798286438,0.82,0.4,-2.58,2.73
24.76172399520874,0.87,-0.04,-2.32,2.47
24.76221990585327,0.96,-0.5,-1.87,2.16
24.772439002990723,1.04,-0.91,-1.54,2.06
24.782197952270508,1.17,-1.21,-1.34,2.15
24.792409896850586,1.21,-1.38,-1.11,2.14
24.811448097229004,1.18,-1.38,-0.89,2.02
24.812187910079956,1.12,-1.25,-0.98,1.94
24.82240891456604,1.06,-0.96,-1.07,1.78
24.83220100402832,0.96,-0.6,-0.91,1.45
24.842488765716553,0.76,-0.31,-0.51,0.96
24.862212896347046,0.49,-0.19,-0.14,0.54
24.862579822540283,0.18,-0.35,-0.03,0.39
24.872370958328247,-0.18,-0.8,-0.13,0.83
24.88232183456421,-0.4,-1.27,-0.32,1.36
24.89261794090271,-0.55,-1.72,-0.41,1.85
24.91069984436035,-0.45,-2.08,-0.39,2.16
24.912418842315674,-0.26,-2.4,-0.29,2.43
24.92243194580078,-0.07,-2.59,-0.27,2.6
24.932549953460693,0.11,-2.68,-0.21,2.69
24.94239091873169,0.33,-2.69,0.0,2.71
24.960850954055786,0.49,-2.64,0.24,2.69
24.962215900421143,0.58,-2.52,0.35,2.6
24.972354888916016,0.58,-2.29,0.41,2.39
24.98238182067871,0.5,-1.94,0.29,2.02
24.99249792098999,0.39,-1.56,0.24,1.62
25.010828018188477,0.29,-1.16,0.3,1.23
25.012653827667236,0.23,-0.8,0.26,0.87
25.02254009246826,0.22,-0.52,0.14,0.58
25.032397985458374,0.24,-0.3,-0.03,0.38
25.042451858520508,0.33,-0.15,-0.07,0.36
25.062478065490723,0.48,0.01,0.1,0.49
25.0628559589386,0.68,0.21,0.37,0.8
25.072438955307007,0.84,0.25,0.58,1.05
25.082481861114502,0.95,0.42,0.65,1.22
25.0924129486084,1.06,0.71,0.85,1.53
25.111876010894775,1.13,1.16,1.16,1.99
25.112260818481445,1.12,1.66,1.37,2.42
25.122560024261475,1.07,2.2,1.5,2.86
25.13235902786255,0.97,2.65,1.37,3.13
25.142451763153076,0.83,2.96,1.1,3.26
25.16145086288452,0.71,2.97,0.78,3.15
25.162312030792236,0.59,2.68,0.51,2.79
25.172553062438965,0.44,2.27,0.57,2.38
25.182326793670654,0.31,1.95,0.98,2.2
25.192482948303223,0.3,1.94,1.59,2.52
25.211824893951416,0.28,2.22,1.93,2.95
25.21225881576538,0.27,2.47,1.61,2.96
25.2225079536438,0.19,2.58,0.82,2.71
25.232289791107178,0.14,2.61,0.22,2.62
25.242729902267456,0.01,2.38,-0.56,2.44
25.260530948638916,-0.24,1.95,-1.89,2.72
25.262356758117676,-0.52,1.25,-3.0,3.29
25.27247190475464,-0.78,0.62,-3.2,3.35
25.28241491317749,-0.98,0.1,-2.68,2.85
25.292463779449463,-1.08,-0.31,-1.69,2.02
25.30760908126831,-1.14,-0.75,-0.66,1.51
25.312243938446045,-1.14,-1.16,-0.3,1.65
25.322422981262207,-1.11,-1.35,-0.42,1.79
25.332624912261963,-1.12,-1.43,-0.73,1.95
25.342588901519775,-1.15,-1.21,-1.12,2.01
25.35944390296936,-1.15,-0.84,-1.33,1.94
25.36239790916443,-1.07,-0.55,-1.33,1.79
25.37240982055664,-0.89,-0.31,-1.28,1.58
25.382662773132324,-0.68,-0.17,-1.12,1.32
25.39254903793335,-0.39,-0.14,-0.98,1.06
25.41176176071167,-0.09,-0.28,-0.94,0.98
25.412342071533203,0.25,-0.56,-1.0,1.17
25.422650814056396,0.5,-1.0,-0.88,1.42
25.43246603012085,0.64,-1.38,-0.52,1.6
25.44261598587036,0.69,-1.75,-0.09,1.88
25.46274185180664,0.68,-2.08,0.24,2.2
25.463109016418457,0.51,-2.4,0.36,2.47
25.472793102264404,0.29,-2.66,0.3,2.69
25.482496976852417,0.08,-2.75,0.2,2.75
25.492629051208496,-0.15,-2.67,0.21,2.68
25.513293981552124,-0.3,-2.47,0.35,2.51
25.51367998123169,-0.38,-2.27,0.52,2.35
25.522700786590576,-0.37,-2.0,0.62,2.12
25.532468795776367,-0.3,-1.67,0.5,1.76
25.542720794677734,-0.26,-1.36,0.32,1.42
25.5637149810791,-0.22,-1.15,0.19,1.18
25.56477189064026,-0.22,-1.02,0.04,1.04
25.572531938552856,-0.24,-0.91,-0.26,0.97
25.58240509033203,-0.31,-0.91,-0.44,1.05
25.592501878738403,-0.45,-0.87,-0.47,1.08
25.61336588859558,-0.6,-0.81,-0.29,1.04
25.613746881484985,-0.7,-0.8,-0.05,1.06
25.62258791923523,-0.83,-0.69,0.02,1.07
25.632513999938965,-0.95,-0.39,0.19,1.04
25.642594814300537,-0.97,0.15,0.48,1.09
25.66347098350525,-0.97,0.71,0.91,1.5
25.66386389732361,-0.96,1.26,1.22,1.99
25.672616004943848,-0.89,1.79,1.25,2.35
25.682486057281494,-0.88,2.19,1.22,2.65
25.692580938339233,-0.85,2.52,1.22,2.92
25.712461948394775,-0.8,2.85,1.13,3.16
25.712850093841553,-0.82,2.94,0.97,3.2
25.72265100479126,-0.88,2.79,0.73,3.01
25.732449054718018,-0.9,2.57,0.55,2.77
25.742588996887207,-0.89,2.41,0.7,2.66
25.763295888900757,-0.88,2.37,1.25,2.82
25.763679027557373,-0.81,2.53,1.89,3.26
25.772676944732666,-0.71,2.72,1.88,3.38
25.782497882843018,-0.5,2.57,0.76,2.72
25.792634963989258,-0.12,2.27,-0.86,2.43
25.81332492828369,0.2,2.06,-1.8,2.74
25.81370496749878,0.37,1.54,-1.64,2.27
25.8226900100708,0.54,0.72,-1.39,1.65
25.832464933395386,0.64,0.04,-1.75,1.86
25.842679977416992,0.67,-0.24,-1.72,1.86
25.863971948623657,0.8,-0.18,-0.95,1.25
25.864353895187378,1.02,-0.14,-0.27,1.06
25.87268877029419,1.26,-0.06,-0.26,1.28
25.882512092590332,1.44,0.06,-0.48,1.51
25.892680883407593,1.53,0.27,-0.8,1.74
25.912953853607178,1.55,0.58,-1.45,2.2
25.91332197189331,1.63,0.79,-1.99,2.69
25.92279577255249,1.7,0.7,-1.7,2.5
25.932471752166748,1.6,0.49,-0.89,1.89
25.942754983901978,1.2,0.21,-0.31,1.25
25.9629168510437,0.76,-0.07,0.03,0.76
25.963295936584473,0.23,-0.41,0.12,0.48
25.97264003753662,-0.3,-0.96,0.06,1.0
25.98246192932129,-0.63,-1.58,-0.19,1.71
25.992705821990967,-0.84,-2.12,-0.41,2.31
26.01298689842224,-0.84,-2.5,-0.57,2.69
26.013351917266846,-0.73,-2.83,-0.51,2.96
26.022750854492188,-0.45,-3.01,-0.41,3.07
26.032464027404785,-0.2,-3.07,-0.45,3.1
26.04269504547119,0.0,-2.99,-0.41,3.01
26.062906980514526,0.19,-2.73,-0.34,2.75
26.06327486038208,0.31,-2.35,-0.43,2.4
26.07267999649048,0.38,-2.03,-0.44,2.11
26.08252191543579,0.44,-1.8,-0.26,1.87
26.092716932296753,0.47,-1.6,0.02,1.66
26.11355996131897,0.45,-1.4,0.18,1.48
26.113892078399658,0.45,-1.22,0.41,1.36
26.122703075408936,0.49,-1.11,0.47,1.3
26.13248300552368,0.57,-0.99,0.27,1.17
26.142728805541992,0.65,-0.69,0.03,0.94
26.16361379623413,0.72,-0.32,-0.02,0.78
26.16398787498474,0.77,-0.01,-0.09,0.77
26.172789096832275,0.87,0.2,-0.14,0.9
26.182466983795166,0.94,0.3,-0.28,1.02
26.19277000427246,0.97,0.4,-0.29,1.08
26.212470054626465,1.0,0.62,0.06,1.17
26.212841033935547,0.93,1.02,0.77,1.58
26.22279191017151,0.84,1.53,1.59,2.36
26.23249888420105,0.81,1.99,2.04,2.96
26.242653846740723,0.81,2.37,1.96,3.18
26.262866973876953,0.77,2.72,1.68,3.28
26.263223886489868,0.66,2.78,1.49,3.22
26.272669792175293,0.55,2.75,1.05,2.99
26.282652854919434,0.4,2.64,0.92,2.82
26.29281497001648,0.31,2.46,1.23,2.76
26.31295680999756,0.23,2.27,1.7,2.84
26.313309907913208,0.24,2.26,2.02,3.04
26.32273578643799,0.24,2.32,1.92,3.02
26.332722902297974,0.25,2.31,1.14,2.58
26.342777967453003,0.25,2.28,0.19,2.3
26.36355495452881,0.27,2.14,-0.21,2.16
26.363924980163574,0.21,1.7,-0.47,1.77
26.372745990753174,0.1,1.11,-1.12,1.58
26.382826805114746,-0.05,0.68,-2.17,2.27
26.39289093017578,-0.36,0.37,-2.82,2.86
26.413865089416504,-0.74,0.26,-2.26,2.39
26.414226055145264,-1.06,0.2,-1.28,1.67
26.422801971435547,-1.24,-0.11,-0.92,1.54
26.433000087738037,-1.5,-0.32,-1.02,1.84
26.442903995513916,-1.7,-0.38,-1.28,2.16
26.46514081954956,-1.91,-0.36,-1.71,2.58
26.465529918670654,-2.01,-0.32,-1.89,2.77
26.472806930541992,-1.82,-0.25,-1.78,2.55
26.482876777648926,-1.38,-0.26,-1.57,2.1
26.49278998374939,-0.92,-0.29,-1.35,1.65
26.51499891281128,-0.44,-0.32,-1.14,1.26
26.51536989212036,0.1,-0.4,-0.72,0.82
26.522995948791504,0.58,-0.62,-0.53,1.0
26.533065795898438,0.85,-1.02,-0.5,1.41
26.542898893356323,0.91,-1.4,-0.33,1.7
26.564719915390015,0.87,-1.77,-0.24,1.98
26.56510877609253,0.64,-2.18,-0.1,2.27
26.57286310195923,0.35,-2.49,0.02,2.51
26.583030939102173,0.15,-2.69,0.05,2.69
26.592943906784058,-0.06,-2.74,0.11,2.74
26.6144380569458,-0.23,-2.64,0.09,2.65
26.614811897277832,-0.35,-2.41,-0.03,2.43
26.622758865356445,-0.43,-2.09,-0.15,2.13
26.633209943771362,-0.38,-1.74,-0.35,1.81
26.64283275604248,-0.34,-1.49,-0.54,1.62
26.664207935333252,-0.31,-1.4,-0.48,1.51
26.664525032043457,-0.26,-1.34,-0.28,1.39
26.672773838043213,-0.28,-1.23,-0.12,1.26
26.683111906051636,-0.28,-1.23,0.06,1.26
26.692827939987183,-0.38,-1.27,0.14,1.33
26.714505910873413,-0.47,-1.24,0.12,1.33
26.714873790740967,-0.54,-1.18,0.14,1.3
26.722826957702637,-0.65,-1.01,0.22,1.22
26.733251094818115,-0.8,-0.75,0.29,1.13
26.74281597137451,-0.97,-0.58,0.26,1.15
26.76476788520813,-1.12,-0.39,0.05,1.18
26.76514482498169,-1.3,0.01,-0.14,1.3
26.77282476425171,-1.35,0.5,0.08,1.44
26.782742023468018,-1.28,0.97,0.65,1.73
26.797590970993042,-1.08,1.38,1.1,2.06
26.80277991294861,-0.87,1.8,1.45,2.46
26.81275987625122,-0.63,2.04,1.69,2.72
26.822797775268555,-0.57,2.18,1.41,2.65
26.832859992980957,-0.6,2.27,0.95,2.53
26.847704887390137,-0.62,2.28,0.57,2.43
26.85268783569336,-0.7,2.2,0.43,2.34
26.86275577545166,-0.81,2.13,0.6,2.35
26.872787952423096,-0.86,2.12,0.93,2.46
26.882844924926758,-0.83,2.36,1.42,2.87
26.897329807281494,-0.69,2.68,1.85,3.32
26.902633905410767,-0.41,2.8,1.48,3.19
26.91282081604004,-0.06,2.7,0.49,2.74
26.92285990715027,0.28,2.67,-0.42,2.71
26.93286895751953,0.56,2.39,-0.75,2.56
26.948136806488037,0.68,1.53,-0.92,1.91
26.95269775390625,0.72,0.87,-1.4,1.79
26.96285581588745,0.79,0.61,-1.61,1.89
26.97293710708618,0.84,0.18,-1.4,1.64
26.982852935791016,0.9,-0.24,-1.13,1.46
26.998661041259766,1.03,-0.48,-0.9,1.44
27.002870082855225,1.19,-0.63,-0.74,1.53
27.012845993041992,1.34,-0.68,-0.71,1.66
27.022894859313965,1.42,-0.6,-0.95,1.81
27.032871961593628,1.34,-0.44,-1.33,1.93
27.04844903945923,1.28,-0.28,-1.82,2.24
27.052856922149658,1.14,-0.18,-1.83,2.16
27.0627338886261,0.85,-0.11,-1.23,1.49
27.072898864746094,0.5,-0.09,-0.72,0.88
27.082911014556885,0.04,-0.13,-0.59,0.6
27.098884105682373,-0.38,-0.4,-0.56,0.78
27.102731943130493,-0.7,-0.87,-0.49,1.21
27.112782955169678,-0.89,-1.33,-0.41,1.65
27.12292790412903,-0.89,-1.71,-0.31,1.95
27.132888793945312,-0.69,-2.09,-0.13,2.2
27.149149894714355,-0.46,-2.39,-0.08,2.43
27.152894020080566,-0.22,-2.62,-0.06,2.62
27.162827014923096,-0.01,-2.72,0.01,2.72
27.1729519367218,0.18,-2.62,0.07,2.62
27.182941913604736,0.28,-2.38,0.16,2.4
27.199384927749634,0.36,-2.04,0.44,2.11
27.202810764312744,0.47,-1.55,0.53,1.7
27.21292209625244,0.58,-1.06,0.54,1.32
27.223026752471924,0.61,-0.66,0.49,1.02
27.23294997215271,0.57,-0.37,0.32,0.75
27.249422073364258,0.58,-0.23,0.08,0.62
27.252819061279297,0.67,-0.17,-0.32,0.76
27.262916088104248,0.68,-0.14,-0.59,0.91
27.27299976348877,0.74,-0.21,-0.56,0.95
27.282999992370605,0.8,-0.28,-0.23,0.87
27.3003830909729,0.94,-0.38,0.16,1.02
27.302888870239258,1.06,-0.49,0.42,1.24
27.312870025634766,1.13,-0.5,0.51,1.33
27.32305908203125,1.16,-0.28,0.46,1.27
27.332956790924072,1.12,0.11,0.51,1.23
27.350042819976807,1.05,0.63,0.85,1.49
27.352946758270264,0.95,1.16,1.33,2.0
27.362871885299683,0.85,1.69,1.67,2.52
27.373023986816406,0.74,2.23,1.72,2.91
27.382951974868774,0.51,2.58,1.54,3.04
27.399144887924194,0.31,2.56,1.3,2.88
27.402829885482788,0.27,2.42,1.06,2.65
27.412906885147095,0.31,2.35,1.09,2.6
27.42303991317749,0.33,2.27,1.26,2.61
27.43301796913147,0.4,2.24,1.39,2.66
27.45015001296997,0.44,2.39,1.4,2.8
27.45279598236084,0.45,2.5,1.22,2.81
27.46285390853882,0.42,2.49,0.83,2.65
27.472861766815186,0.37,2.42,0.17,2.45
27.482929944992065,0.29,2.24,-0.55,2.32
27.498836994171143,0.25,1.8,-0.77,1.97
27.502814769744873,0.14,1.2,-0.84,1.47
27.512900829315186,0.04,0.58,-1.36,1.47
27.52304697036743,-0.19,0.04,-1.94,1.94
27.532983779907227,-0.51,-0.35,-2.02,2.11
27.54897975921631,-0.76,-0.58,-1.54,1.81
27.552806854248047,-0.99,-0.67,-0.79,1.43
27.56294584274292,-1.17,-0.79,-0.64,1.55
27.57300090789795,-1.34,-0.76,-0.98,1.82
27.583055019378662,-1.51,-0.63,-1.26,2.06
27.59865689277649,-1.53,-0.49,-1.49,2.19
27.602941036224365,-1.44,-0.38,-1.62,2.2
27.612957000732422,-1.28,-0.37,-1.6,2.08
27.62301206588745,-0.97,-0.37,-1.36,1.71
27.632991790771484,-0.59,-0.35,-0.99,1.2
27.648749828338623,-0.25,-0.37,-0.78,0.89
27.652864933013916,0.07,-0.51,-0.62,0.8
27.662960052490234,0.45,-0.73,-0.62,1.05
27.672988891601562,0.75,-1.03,-0.59,1.4
27.683011054992676,0.91,-1.41,-0.51,1.75
27.698774814605713,1.01,-1.8,-0.39,2.1
27.702926874160767,1.03,-2.09,-0.34,2.35
27.712974071502686,0.92,-2.26,-0.17,2.44
27.722986936569214,0.68,-2.27,-0.05,2.37
27.733118057250977,0.38,-2.22,0.02,2.25
27.74922800064087,0.1,-2.1,0.15,2.1
27.752898931503296,-0.16,-1.91,0.24,1.93
27.76295804977417,-0.32,-1.59,0.22,1.63
27.773042917251587,-0.42,-1.25,0.16,1.32
27.783082008361816,-0.47,-1.03,0.11,1.13
27.799609899520874,-0.42,-0.92,0.04,1.01
27.802876949310303,-0.36,-0.95,0.08,1.01
27.812996864318848,-0.28,-0.97,0.01,1.0
27.82304286956787,-0.22,-0.85,-0.08,0.88
27.833045959472656,-0.21,-0.71,-0.01,0.74
27.849912881851196,-0.23,-0.63,0.07,0.67
27.852885961532593,-0.3,-0.61,0.16,0.69
27.862996101379395,-0.42,-0.6,0.24,0.77
27.8732008934021,-0.5,-0.57,0.15,0.77
27.883112907409668,-0.53,-0.55,0.04,0.76
27.900979042053223,-0.63,-0.32,0.18,0.72
27.902955055236816,-0.69,0.14,0.58,0.91
27.912973880767822,-0.65,0.61,1.08,1.4
27.923090934753418,-0.6,1.02,1.24,1.71
27.933085918426514,-0.52,1.44,1.17,1.92
27.950778007507324,-0.43,1.68,0.95,1.97
27.952868938446045,-0.42,1.78,0.65,1.94
27.963071823120117,-0.52,1.84,0.59,2.0
27.97318196296692,-0.62,1.86,0.81,2.12
27.983162879943848,-0.67,1.79,0.97,2.14
27.999905109405518,-0.65,1.6,0.95,1.97
28.00298309326172,-0.62,1.35,0.89,1.73
28.013007879257202,-0.52,1.2,1.03,1.66
28.023143768310547,-0.43,1.27,1.25,1.83
28.03301477432251,-0.37,1.52,1.38,2.08
28.050911903381348,-0.27,1.69,1.37,2.19
28.052989959716797,-0.14,1.58,0.71,1.73
28.062988758087158,0.0,1.32,-0.54,1.42
28.073096752166748,0.09,1.04,-1.25,1.62
28.083027839660645,0.12,0.76,-1.27,1.48
28.1008038520813,0.26,0.3,-1.39,1.44
28.102962970733643,0.4,0.24,-1.55,1.61
28.112996101379395,0.58,0.54,-0.96,1.24
28.123082876205444,0.77,0.55,-0.42,1.03
28.133128881454468,0.99,0.49,-0.19,1.12
28.14979600906372,1.18,0.57,-0.04,1.31
28.153016090393066,1.38,0.67,-0.37,1.57
28.16308307647705,1.43,0.71,-1.21,2.0
28.173057079315186,1.39,0.73,-2.12,2.63
28.18319797515869,1.33,0.7,-2.79,3.16
28.200310945510864,1.24,0.63,-2.93,3.24
28.20325493812561,1.07,0.61,-2.17,2.49
28.213266849517822,0.82,0.49,-0.86,1.28
28.223045825958252,0.55,0.39,0.18,0.69
28.23313283920288,0.05,0.15,0.61,0.63
28.251070976257324,-0.49,-0.28,0.5,0.75
28.253378868103027,-0.92,-0.81,0.07,1.22
28.263235092163086,-1.13,-1.23,-0.28,1.69
28.273048877716064,-1.11,-1.49,-0.51,1.92
28.28314781188965,-0.92,-1.72,-0.6,2.04
28.301552772521973,-0.68,-1.88,-0.45,2.04
28.303450107574463,-0.3,-1.97,-0.15,1.99
28.31328010559082,0.04,-1.87,0.0,1.87
28.32314109802246,0.31,-1.79,0.04,1.81
28.33323097229004,0.44,-1.74,-0.02,1.79
28.35250496864319,0.45,-1.68,-0.08,1.74
28.353477001190186,0.46,-1.58,-0.02,1.64
28.36324405670166,0.42,-1.5,0.04,1.55
28.373085021972656,0.33,-1.47,0.06,1.5
28.383206844329834,0.27,-1.42,0.01,1.44
28.402207851409912,0.32,-1.37,0.02,1.4
28.403660774230957,0.43,-1.32,0.06,1.38
28.413268089294434,0.52,-1.28,0.0,1.38
28.423108100891113,0.61,-1.26,-0.18,1.41
28.433159828186035,0.67,-1.18,-0.39,1.41
28.451653003692627,0.75,-0.9,-0.52,1.28
28.453683853149414,0.8,-0.47,-0.48,1.04
28.46326994895935,0.82,0.03,-0.18,0.84
28.47309684753418,0.87,0.72,0.27,1.16
28.48314595222473,0.87,1.56,0.68,1.91
28.501550912857056,0.82,2.39,1.11,2.75
28.50304388999939,0.76,2.96,1.5,3.4
28.513269901275635,0.66,3.12,1.43,3.49
28.523219108581543,0.5,2.95,1.05,3.17
28.533219814300537,0.42,2.66,0.8,2.8
28.550904989242554,0.33,2.35,0.74,2.48
28.553093910217285,0.3,2.0,0.81,2.17
28.563121795654297,0.32,1.62,1.05,1.95
28.573123931884766,0.32,1.38,1.41,1.99
28.583159923553467,0.31,1.41,1.42,2.02
28.601644039154053,0.23,1.57,1.19,1.98
28.603074073791504,0.19,1.79,1.03,2.07
28.613182067871094,0.24,1.88,0.91,2.1
28.623115062713623,0.17,1.57,0.16,1.58
28.633193016052246,0.12,1.02,-0.74,1.26
28.651887893676758,0.04,0.53,-1.3,1.4
28.65311288833618,-0.06,-0.04,-1.56,1.56
28.663330078125,-0.21,-0.45,-1.71,1.78
28.67311692237854,-0.46,-0.68,-1.46,1.67
28.68328285217285,-0.65,-1.02,-0.94,1.53
28.703003883361816,-0.79,-1.27,-0.55,1.59
28.70337677001953,-0.93,-1.31,-0.58,1.7
28.713422775268555,-1.09,-1.24,-0.9,1.88
28.723155975341797,-1.23,-1.02,-1.31,2.06
28.733251094818115,-1.33,-0.71,-1.59,2.19
28.753212928771973,-1.35,-0.43,-1.58,2.12
28.753585815429688,-1.25,-0.2,-1.48,1.94
28.763339042663574,-1.12,-0.07,-1.21,1.65
28.773030757904053,-0.89,0.0,-0.83,1.21
28.78333806991577,-0.57,0.04,-0.57,0.8
28.80190396308899,-0.25,-0.04,-0.51,0.56
28.80319094657898,0.03,-0.29,-0.52,0.59
28.813316822052002,0.26,-0.6,-0.61,0.89
28.82315993309021,0.38,-0.93,-0.71,1.23
28.833219051361084,0.41,-1.25,-0.62,1.45
28.853434085845947,0.38,-1.47,-0.5,1.59
28.85382890701294,0.21,-1.6,-0.33,1.64
28.863399982452393,-0.02,-1.62,-0.13,1.62
28.873188972473145,-0.25,-1.53,0.06,1.55
28.883416891098022,-0.37,-1.32,0.14,1.37
28.901614904403687,-0.47,-1.06,0.03,1.15
28.903172969818115,-0.54,-0.76,-0.18,0.94
28.913388967514038,-0.45,-0.53,-0.38,0.79
28.92328405380249,-0.35,-0.46,-0.51,0.77
28.933294773101807,-0.28,-0.52,-0.43,0.73
28.95154905319214,-0.26,-0.6,-0.28,0.71
28.95311188697815,-0.24,-0.73,-0.2,0.79
28.963279962539673,-0.26,-0.87,-0.04,0.9
28.973329067230225,-0.31,-1.01,0.13,1.06
28.98332977294922,-0.4,-1.11,0.1,1.18
29.001662969589233,-0.51,-1.19,0.01,1.29
29.003138065338135,-0.61,-1.22,-0.07,1.36
29.01337695121765,-0.67,-1.19,-0.18,1.37
29.023300886154175,-0.77,-1.04,-0.17,1.3
29.033284902572632,-0.83,-0.77,0.08,1.13
29.05199098587036,-0.85,-0.41,0.49,1.06
29.053237915039062,-0.81,0.0,0.87,1.18
29.063235759735107,-0.76,0.39,1.08,1.37
29.073240756988525,-0.7,0.72,1.12,1.5
29.083350896835327,-0.67,1.12,0.88,1.57
29.102263927459717,-0.69,1.41,0.6,1.68
29.10312509536743,-0.74,1.64,0.42,1.84
29.113369941711426,-0.78,1.68,0.32,1.87
29.12323808670044,-0.81,1.55,0.21,1.76
29.1332688331604,-0.84,1.37,0.07,1.6
29.15342092514038,-0.89,1.26,-0.02,1.54
29.153795957565308,-0.85,1.15,0.24,1.45
29.16337776184082,-0.73,1.17,0.95,1.67
29.17325782775879,-0.61,1.35,1.61,2.18
29.183369874954224,-0.47,1.5,1.78,2.37
29.20313596725464,-0.31,1.65,1.29,2.11
29.203505992889404,-0.12,1.88,0.6,1.97
29.21339702606201,-0.06,2.12,-0.05,2.12
29.223259925842285,0.03,2.15,-0.36,2.18
29.233328819274902,0.03,2.16,-0.25,2.17
29.253922939300537,0.18,2.0,-0.18,2.01
29.254288911819458,0.34,1.4,-0.81,1.65
29.2633318901062,0.51,0.87,-1.68,1.95
29.27332091331482,0.69,0.48,-1.89,2.06
29.28341007232666,0.88,0.04,-1.64,1.86
29.30302596092224,1.03,-0.41,-1.45,1.82
29.303369998931885,1.23,-0.76,-1.45,2.04
29.31342387199402,1.38,-0.9,-1.43,2.18
29.323276042938232,1.49,-0.87,-1.23,2.11
29.333317756652832,1.49,-0.75,-1.12,2.0
29.353975772857666,1.46,-0.48,-1.26,1.98
29.354344844818115,1.35,-0.18,-1.3,1.88
29.36346697807312,1.13,0.16,-1.19,1.64
29.373207092285156,0.83,0.49,-0.88,1.3
29.38338804244995,0.5,0.77,-0.52,1.05
29.402804851531982,0.18,0.83,-0.43,0.95
29.403225898742676,-0.12,0.6,-0.51,0.79
29.41337776184082,-0.36,0.2,-0.57,0.7
29.423372983932495,-0.55,-0.21,-0.64,0.86
29.433465003967285,-0.66,-0.66,-0.72,1.17
29.452880859375,-0.69,-1.12,-0.77,1.52
29.453248977661133,-0.6,-1.46,-0.75,1.74
29.463441848754883,-0.44,-1.69,-0.66,1.86
29.473340034484863,-0.2,-1.73,-0.39,1.78
29.483397006988525,0.03,-1.62,-0.1,1.62
29.50326895713806,0.23,-1.46,0.11,1.48
29.503643035888672,0.39,-1.27,0.22,1.34
29.513460874557495,0.46,-1.01,0.2,1.12
29.523310899734497,0.46,-0.69,0.06,0.83
29.533405780792236,0.36,-0.43,0.03,0.56
29.553576946258545,0.3,-0.19,0.04,0.35
29.55394196510315,0.25,-0.02,-0.01,0.25
29.56342387199402,0.25,0.03,-0.03,0.25
29.57330298423767,0.33,0.04,-0.13,0.35
29.583584785461426,0.41,0.03,-0.27,0.49
29.604238986968994,0.52,0.03,-0.21,0.56
29.60460090637207,0.63,0.0,-0.12,0.64
29.61351203918457,0.69,0.04,-0.16,0.7
29.62335991859436,0.71,0.07,-0.17,0.73
29.6333749294281,0.71,0.13,-0.11,0.73
29.653500080108643,0.66,0.11,-0.07,0.67
29.653862953186035,0.63,0.1,-0.13,0.65
29.66349697113037,0.56,0.14,-0.08,0.58
29.673322916030884,0.5,0.23,0.02,0.55
29.683513879776,0.5,0.45,0.09,0.67
29.703670978546143,0.48,0.68,0.29,0.88
29.704036951065063,0.45,0.87,0.59,1.14
29.713449001312256,0.44,1.09,0.51,1.28
29.72333598136902,0.55,1.14,0.12,1.27
29.73343276977539,0.58,0.91,-0.24,1.1
29.753870010375977,0.53,0.69,-0.51,1.0
29.754230976104736,0.47,0.5,-0.42,0.8
29.763472080230713,0.5,0.27,0.14,0.58
29.773339986801147,0.43,0.2,0.65,0.8
29.78349995613098,0.26,0.29,0.99,1.06
29.803772926330566,0.09,0.46,1.18,1.26
29.80413007736206,0.03,0.84,0.75,1.12
29.813514947891235,-0.02,1.4,0.05,1.4
29.823343753814697,-0.03,2.04,0.06,2.04
29.833570957183838,0.01,2.17,0.24,2.18
29.855477809906006,0.0,1.56,-0.41,1.61
29.856414794921875,0.02,0.89,-1.59,1.82
29.863558769226074,-0.04,0.5,-2.49,2.54
29.87334108352661,-0.07,0.18,-2.66,2.66
29.883527755737305,-0.11,-0.25,-2.31,2.32
29.90423583984375,-0.13,-0.76,-1.8,1.95
29.904603004455566,-0.11,-1.1,-1.48,1.84
29.913485050201416,-0.16,-1.21,-1.36,1.82
29.923418045043945,-0.26,-1.11,-1.5,1.88
29.93363904953003,-0.36,-0.93,-1.64,1.91
29.955322980880737,-0.54,-0.72,-1.58,1.81
29.955691814422607,-0.69,-0.4,-1.4,1.61
29.963501930236816,-0.8,0.01,-1.22,1.45
29.973435878753662,-0.93,0.44,-1.08,1.49
29.98358678817749,-1.01,0.69,-0.95,1.54
30.004304885864258,-0.94,0.85,-1.09,1.67
30.004672050476074,-0.86,0.95,-1.44,1.92
30.03803777694702,-0.73,0.93,-1.75,2.11
30.03848886489868,-0.45,0.87,-2.03,2.25
30.038897037506104,-0.29,0.7,-2.32,2.44
30.056703090667725,-0.13,0.51,-2.44,2.49
30.05752182006836,-0.05,0.38,-2.29,2.32
30.063418865203857,0.03,0.17,-1.95,1.95
30.073389053344727,0.11,-0.13,-1.65,1.65
30.083340883255005,0.13,-0.41,-1.35,1.41
30.101240873336792,0.07,-0.59,-1.0,1.16
30.103431940078735,-0.02,-0.59,-0.74,0.94
30.113361835479736,-0.13,-0.45,-0.66,0.8
30.123650074005127,-0.19,-0.35,-0.63,0.74
30.133660793304443,-0.21,-0.22,-0.63,0.69
30.154258966445923,-0.22,-0.09,-0.76,0.79
30.154618978500366,-0.21,0.06,-0.94,0.96
30.163498878479004,-0.16,0.16,-1.12,1.14
30.173751831054688,-0.12,0.15,-1.14,1.15
30.183636903762817,-0.02,0.04,-1.0,1.0
30.210131883621216,0.01,-0.11,-0.97,0.97
30.211596965789795,0.04,-0.25,-1.03,1.06
30.213510990142822,0.02,-0.33,-1.07,1.11
30.446356773376465,-0.02,-0.34,-1.11,1.16
30.44732093811035,-0.12,-0.31,-1.28,1.32
30.450704097747803,-0.2,-0.23,-1.47,1.5
30.451498985290527,-0.31,-0.03,-1.46,1.49
30.452263832092285,-0.36,0.3,-1.19,1.27
