time,ax,ay,az,atotal
0.03786110877990723,0.09,0.31,1.45,1.48
0.038290977478027344,-0.27,-0.1,1.27,1.3
0.0388031005859375,-0.2,-0.1,0.46,0.51
0.039234161376953125,-0.17,0.09,-0.05,0.19
0.0451350212097168,-0.24,0.15,-0.03,0.28
0.05511116981506348,-0.18,0.09,0.11,0.22
0.06585216522216797,-0.12,0.01,0.25,0.27
0.07523822784423828,-0.08,-0.02,0.33,0.34
0.08525323867797852,-0.06,-0.01,0.24,0.24
0.09510016441345215,-0.06,0.02,0.09,0.11
0.10553503036499023,-0.05,0.06,0.1,0.12
0.11590003967285156,-0.06,0.09,0.13,0.16
0.12536001205444336,-0.06,0.1,0.11,0.16
0.1352381706237793,-0.07,0.1,0.08,0.14
0.14532804489135742,-0.06,0.08,0.06,0.11
0.15633630752563477,-0.08,0.07,0.13,0.16
0.16609430313110352,-0.09,0.09,0.17,0.21
0.17554211616516113,-0.03,0.15,0.11,0.18
0.18541717529296875,-0.1,0.16,0.03,0.19
0.19554901123046875,-0.11,0.15,0.12,0.22
0.20621013641357422,-0.08,0.1,0.15,0.19
0.21548700332641602,-0.07,0.01,0.16,0.17
0.22569799423217773,-0.03,-0.09,0.18,0.2
0.23531007766723633,-0.05,-0.14,0.18,0.23
0.24552512168884277,-0.05,-0.19,0.11,0.22
0.25906801223754883,-0.01,-0.13,0.05,0.13
0.2654900550842285,0.0,-0.04,0.12,0.12
0.27559709548950195,-0.01,-0.03,0.2,0.2
0.2854442596435547,-0.02,-0.04,0.21,0.21
0.2961611747741699,0.0,0.0,0.15,0.15
0.30753517150878906,-0.02,0.14,0.09,0.16
0.31684303283691406,-0.11,0.19,0.15,0.26
0.32645130157470703,0.02,0.14,0.09,0.16
0.33609509468078613,-0.09,0.08,0.26,0.28
0.3457670211791992,-0.07,0.01,0.17,0.18
0.35779809951782227,-0.08,-0.02,0.05,0.09
0.36559319496154785,-0.1,-0.03,0.02,0.1
0.37636423110961914,-0.13,-0.07,0.09,0.17
0.38605618476867676,-0.05,-0.13,0.08,0.16
0.39580512046813965,-0.15,-0.11,0.27,0.32
0.40854501724243164,-0.12,-0.1,0.4,0.42
0.415377140045166,-0.14,-0.06,0.48,0.5
0.4269132614135742,-0.15,-0.03,0.38,0.4
0.4361231327056885,-0.11,0.0,0.28,0.3
0.4458279609680176,-0.11,0.03,0.18,0.21
0.45865917205810547,-0.1,0.01,0.04,0.1
0.4655332565307617,-0.08,-0.05,0.05,0.1
0.4765892028808594,-0.09,-0.04,0.1,0.14
0.48607826232910156,-0.11,-0.02,0.17,0.2
0.4957611560821533,-0.12,-0.01,0.12,0.17
0.5088620185852051,-0.1,0.02,0.09,0.13
0.5161471366882324,-0.1,0.01,0.14,0.17
0.5263752937316895,-0.07,-0.01,0.24,0.25
0.5364501476287842,-0.09,-0.04,0.3,0.31
0.5457561016082764,-0.09,-0.03,0.21,0.23
0.5592379570007324,-0.08,0.0,0.09,0.12
0.5661482810974121,-0.05,0.03,0.06,0.08
0.5764331817626953,-0.06,0.04,0.02,0.07
0.5863420963287354,-0.02,0.01,0.06,0.06
0.5959219932556152,-0.05,-0.02,0.11,0.12
0.6089761257171631,-0.1,0.0,0.14,0.17
0.6155381202697754,-0.14,0.05,0.14,0.2
0.6261250972747803,-0.13,0.04,0.07,0.15
0.636146068572998,-0.12,0.02,0.06,0.13
0.64605712890625,-0.13,0.05,0.12,0.18
0.658588171005249,-0.12,0.02,0.15,0.19
0.6654062271118164,-0.09,-0.02,0.15,0.17
0.6768441200256348,-0.1,-0.02,0.15,0.18
0.6861042976379395,-0.09,-0.03,0.15,0.17
0.6961350440979004,-0.05,-0.04,0.07,0.09
0.709233283996582,-0.05,-0.03,0.01,0.05
0.7161970138549805,-0.04,-0.02,0.01,0.04
0.7264931201934814,-0.09,-0.01,0.06,0.1
0.7363481521606445,-0.11,0.02,0.11,0.15
0.7458891868591309,-0.14,0.03,0.07,0.15
0.7591290473937988,-0.13,0.02,0.04,0.13
0.765571117401123,-0.11,-0.01,0.03,0.11
0.7764451503753662,-0.1,0.01,0.02,0.1
0.7860891819000244,-0.11,0.04,0.0,0.11
0.7959322929382324,-0.08,0.06,-0.04,0.1
0.8093681335449219,-0.1,0.05,-0.02,0.11
0.816054105758667,-0.11,0.05,-0.02,0.12
0.8263580799102783,-0.06,0.1,0.02,0.11
0.8364009857177734,-0.05,0.09,0.02,0.1
0.8460981845855713,-0.09,0.03,-0.05,0.1
0.8593831062316895,-0.07,-0.01,-0.04,0.08
0.8662421703338623,-0.06,0.0,0.08,0.1
0.8761429786682129,-0.07,-0.02,0.11,0.13
0.8861842155456543,-0.08,-0.08,-0.03,0.11
0.8960390090942383,-0.05,-0.16,-0.1,0.19
0.9085912704467773,-0.06,-0.16,0.1,0.19
0.9162693023681641,-0.08,-0.11,0.28,0.31
0.9272851943969727,-0.09,-0.09,0.29,0.31
0.9366781711578369,-0.12,-0.08,0.22,0.26
0.9460911750793457,-0.12,-0.09,0.1,0.18
0.9598612785339355,-0.1,-0.07,0.02,0.12
0.9655590057373047,-0.1,-0.03,0.03,0.1
0.9766039848327637,-0.12,-0.05,0.05,0.13
0.9861791133880615,-0.13,-0.07,0.0,0.14
0.9961342811584473,-0.14,-0.08,-0.02,0.16
1.0106182098388672,-0.17,-0.06,-0.01,0.18
1.0153651237487793,-0.17,-0.08,-0.01,0.18
1.026628017425537,-0.15,-0.11,0.04,0.19
1.0362472534179688,-0.17,-0.12,0.15,0.25
1.0463180541992188,-0.18,-0.11,0.19,0.28
1.0597221851348877,-0.18,-0.04,0.15,0.23
1.065680980682373,-0.18,0.01,0.07,0.19
1.0764601230621338,-0.14,0.05,0.0,0.14
1.0860741138458252,-0.12,0.05,0.02,0.13
1.0961601734161377,-0.11,0.01,0.1,0.14
1.1096861362457275,-0.12,-0.06,0.11,0.17
1.1155972480773926,-0.1,-0.08,0.12,0.17
1.1264920234680176,-0.1,-0.05,0.12,0.16
1.1361689567565918,-0.15,0.0,0.19,0.24
1.146083116531372,-0.15,0.03,0.26,0.3
1.1605873107910156,-0.16,0.03,0.3,0.34
1.1657731533050537,-0.18,0.0,0.33,0.37
1.1765542030334473,-0.22,-0.04,0.28,0.35
1.1862812042236328,-0.22,-0.11,0.24,0.34
1.1960511207580566,-0.24,-0.17,0.24,0.37
1.210517168045044,-0.22,-0.22,0.28,0.41
1.2157111167907715,-0.19,-0.22,0.32,0.43
1.2265710830688477,-0.21,-0.18,0.37,0.46
1.2363941669464111,-0.25,-0.14,0.44,0.52
1.2463581562042236,-0.29,-0.04,0.53,0.6
1.2606782913208008,-0.34,0.16,0.61,0.71
1.2663559913635254,-0.34,0.26,0.6,0.73
1.2766332626342773,-0.4,0.31,0.46,0.68
1.2869250774383545,-0.39,0.35,0.26,0.58
1.2962861061096191,-0.33,0.33,0.1,0.47
1.3111152648925781,-0.28,0.21,0.0,0.35
1.3164620399475098,-0.21,0.03,-0.03,0.21
1.3265361785888672,-0.19,-0.15,0.04,0.24
1.3369991779327393,-0.15,-0.28,0.13,0.34
1.346400260925293,-0.18,-0.32,0.26,0.44
1.360100269317627,-0.19,-0.33,0.32,0.49
1.3665690422058105,-0.2,-0.31,0.37,0.52
1.3766202926635742,-0.23,-0.23,0.47,0.57
1.3870162963867188,-0.24,-0.22,0.43,0.53
1.3961420059204102,-0.21,-0.19,0.3,0.41
1.4102160930633545,-0.18,-0.12,0.22,0.3
1.4156732559204102,-0.16,-0.07,0.09,0.19
1.426496982574463,-0.13,-0.07,0.1,0.17
1.4367260932922363,-0.14,0.05,0.36,0.38
1.4462671279907227,-0.11,0.09,0.35,0.37
1.4609971046447754,-0.09,0.12,0.28,0.31
1.4658989906311035,-0.1,0.26,0.26,0.38
1.476567268371582,-0.12,0.23,0.21,0.33
1.486816167831421,-0.14,0.19,0.12,0.26
1.4962372779846191,-0.17,0.06,0.08,0.19
1.5107522010803223,-0.21,0.13,0.34,0.42
1.5157921314239502,-0.2,0.01,0.29,0.35
1.5266871452331543,-0.16,-0.07,0.28,0.33
1.536911964416504,-0.16,-0.09,0.36,0.4
1.5460991859436035,-0.16,-0.17,0.3,0.38
1.5608510971069336,-0.13,-0.21,0.23,0.33
1.5659332275390625,-0.08,-0.24,0.39,0.46
1.5766520500183105,-0.06,-0.22,0.52,0.56
1.586968183517456,-0.04,-0.21,0.5,0.54
1.5961501598358154,-0.03,-0.2,0.39,0.43
1.6111881732940674,0.01,-0.22,0.29,0.36
1.6157660484313965,0.02,-0.22,0.34,0.4
1.6268391609191895,0.05,-0.17,0.41,0.44
1.6372830867767334,0.09,-0.12,0.34,0.37
1.646407127380371,0.1,-0.11,0.22,0.26
1.6610491275787354,0.1,-0.08,0.16,0.2
1.665879249572754,0.08,-0.05,0.26,0.27
1.6767101287841797,0.1,-0.07,0.34,0.36
1.687326192855835,0.13,-0.14,0.34,0.39
1.6962721347808838,0.22,-0.23,0.35,0.47
1.7114241123199463,0.26,-0.3,0.41,0.57
1.7158901691436768,0.33,-0.37,0.48,0.69
1.7267379760742188,0.35,-0.46,0.59,0.82
1.737436294555664,0.39,-0.55,0.65,0.93
1.7463631629943848,0.49,-0.61,0.79,1.11
1.7619361877441406,0.51,-0.53,0.92,1.17
1.7657301425933838,0.51,-0.4,1.05,1.23
1.7765440940856934,0.52,-0.22,1.07,1.2
1.7875142097473145,0.47,0.0,1.0,1.1
1.7959001064300537,0.43,0.19,0.96,1.06
1.8105370998382568,0.43,0.35,0.98,1.12
1.81581711769104,0.45,0.46,1.03,1.21
1.8267481327056885,0.46,0.54,1.02,1.24
1.837632179260254,0.48,0.64,1.02,1.29
1.846229076385498,0.41,0.7,1.18,1.43
1.8612580299377441,0.4,0.73,1.24,1.49
1.8658661842346191,0.37,0.68,1.28,1.49
1.8764960765838623,0.31,0.59,1.28,1.44
1.8875412940979004,0.29,0.47,1.25,1.36
1.8960301876068115,0.29,0.29,1.2,1.26
1.9115071296691895,0.3,0.07,1.18,1.21
1.9159290790557861,0.29,-0.16,1.2,1.24
1.9267640113830566,0.28,-0.38,1.17,1.26
1.9378931522369385,0.28,-0.57,1.19,1.34
1.9463541507720947,0.3,-0.74,1.24,1.47
1.961008071899414,0.3,-0.92,1.34,1.65
1.9658470153808594,0.35,-1.07,1.43,1.81
1.9766693115234375,0.36,-1.11,1.48,1.88
1.9876410961151123,0.41,-1.11,1.48,1.89
1.9962129592895508,0.43,-1.04,1.42,1.81
2.0115842819213867,0.44,-0.9,1.34,1.67
2.0158960819244385,0.48,-0.73,1.28,1.54
2.0266990661621094,0.51,-0.57,1.28,1.49
2.037924289703369,0.54,-0.45,1.31,1.48
2.0460762977600098,0.55,-0.33,1.36,1.5
2.062096118927002,0.57,-0.2,1.3,1.43
2.065998077392578,0.61,-0.09,1.17,1.32
2.0757851600646973,0.67,-0.04,1.1,1.28
2.0882163047790527,0.76,-0.06,1.19,1.41
2.0959830284118652,0.83,-0.1,1.29,1.53
2.1119861602783203,0.89,-0.12,1.34,1.61
2.1159300804138184,0.91,-0.14,1.28,1.57
2.1260180473327637,0.89,-0.11,1.21,1.5
2.1382601261138916,0.87,-0.07,1.27,1.54
2.145890235900879,0.83,-0.06,1.35,1.58
2.161919116973877,0.75,-0.04,1.46,1.64
2.1658682823181152,0.69,0.03,1.51,1.66
2.1758832931518555,0.62,0.09,1.49,1.61
2.1884613037109375,0.56,0.12,1.48,1.58
2.195970058441162,0.45,0.16,1.52,1.59
2.2110941410064697,0.35,0.24,1.55,1.6
2.2158291339874268,0.29,0.3,1.66,1.71
2.2268950939178467,0.23,0.42,1.68,1.74
2.2365801334381104,0.13,0.52,1.72,1.8
2.2496862411499023,0.01,0.62,1.76,1.86
2.255916118621826,-0.08,0.74,1.72,1.87
2.265939235687256,-0.12,0.92,1.62,1.86
2.2765350341796875,-0.18,1.25,1.62,2.05
2.286893129348755,-0.35,1.64,1.7,2.38
2.3004631996154785,-0.49,1.95,1.58,2.55
2.3059539794921875,-0.59,2.24,1.22,2.61
2.3159689903259277,-0.65,2.45,0.72,2.63
2.326700210571289,-0.55,2.53,0.42,2.62
2.336225986480713,-0.33,2.56,0.41,2.61
2.3494491577148438,-0.22,2.69,0.57,2.75
2.355924129486084,-0.28,3.01,0.68,3.09
2.3666892051696777,-0.32,3.19,0.63,3.26
2.3766260147094727,-0.39,3.19,0.33,3.23
2.3866190910339355,-0.49,3.09,-0.12,3.13
2.400820255279541,-0.69,2.89,-0.73,3.05
2.4059929847717285,-0.61,2.36,-1.19,2.71
2.416567087173462,-0.56,1.55,-1.56,2.26
2.4267661571502686,-0.57,1.05,-1.66,2.04
2.4365692138671875,-0.54,0.57,-1.55,1.73
2.4507102966308594,-0.79,0.0,-1.38,1.59
2.455993175506592,-0.58,-0.74,-0.73,1.19
2.466046094894409,-0.83,-1.27,-0.23,1.53
2.4767251014709473,-0.95,-1.59,0.26,1.87
2.4865970611572266,-0.95,-1.65,0.42,1.94
2.499706268310547,-1.0,-1.71,0.37,2.01
2.5060620307922363,-0.88,-1.68,0.26,1.91
2.516749143600464,-0.8,-1.27,0.32,1.53
2.526947021484375,-0.88,-0.93,0.43,1.35
2.5364601612091064,-0.85,-0.81,0.36,1.22
2.549697160720825,-0.73,-0.84,0.25,1.14
2.5560081005096436,-0.63,-1.03,0.18,1.22
2.5667572021484375,-0.42,-1.19,0.15,1.27
2.5767431259155273,-0.45,-1.52,0.25,1.6
2.5866470336914062,-0.45,-1.92,0.49,2.03
2.6009912490844727,-0.42,-2.2,0.69,2.34
2.6061482429504395,-0.42,-2.49,0.96,2.7
2.6167869567871094,-0.45,-2.64,1.19,2.93
2.6265971660614014,-0.49,-2.56,1.28,2.9
2.636843204498291,-0.53,-2.31,1.2,2.65
2.6515660285949707,-0.57,-2.01,1.06,2.34
2.65604829788208,-0.57,-1.69,1.03,2.05
2.6666040420532227,-0.55,-1.41,1.03,1.83
2.676784038543701,-0.51,-1.27,1.05,1.72
2.6867642402648926,-0.48,-1.13,1.02,1.59
2.700932025909424,-0.52,-0.89,1.01,1.44
2.706221103668213,-0.57,-0.66,1.11,1.41
2.716707229614258,-0.58,-0.53,1.19,1.42
2.72676420211792,-0.6,-0.46,1.26,1.46
2.7366840839385986,-0.67,-0.4,1.34,1.55
2.750674247741699,-0.74,-0.36,1.39,1.61
2.756010055541992,-0.82,-0.36,1.47,1.72
2.7668089866638184,-0.85,-0.37,1.49,1.75
2.7775661945343018,-0.79,-0.47,1.49,1.75
2.786647081375122,-0.72,-0.64,1.47,1.75
2.800790309906006,-0.59,-0.78,1.52,1.8
2.8061470985412598,-0.51,-0.91,1.65,1.95
2.8167872428894043,-0.45,-1.0,1.68,2.0
2.8266072273254395,-0.4,-1.08,1.79,2.12
2.836449146270752,-0.39,-1.1,1.99,2.3
2.8509650230407715,-0.39,-1.02,2.08,2.34
2.8561341762542725,-0.42,-0.88,1.88,2.11
2.8668441772460938,-0.38,-0.7,1.63,1.81
2.8767242431640625,-0.35,-0.49,1.57,1.68
2.886869192123413,-0.32,-0.23,1.73,1.77
2.9015491008758545,-0.34,0.26,2.05,2.09
2.9062352180480957,-0.5,1.08,2.31,2.59
2.916837215423584,-0.61,1.96,2.6,3.31
2.92691707611084,-0.77,2.77,2.66,3.91
2.9368321895599365,-0.97,3.58,2.1,4.26
2.9508421421051025,-0.98,4.33,1.33,4.63
2.956155300140381,-0.95,5.0,0.86,5.16
2.966968059539795,-0.92,5.41,0.89,5.55
2.976685047149658,-0.75,5.36,0.95,5.49
2.986755132675171,-0.54,5.01,0.74,5.09
3.0004920959472656,-0.26,4.67,0.23,4.68
3.0061240196228027,0.05,4.31,-0.42,4.33
3.01688814163208,0.27,3.86,-0.99,3.99
3.0268940925598145,0.42,3.41,-1.29,3.66
3.0365681648254395,0.4,2.93,-1.47,3.3
3.0497400760650635,0.42,2.25,-1.99,3.03
3.05609130859375,0.42,1.62,-2.53,3.03
3.067136287689209,0.45,1.27,-2.65,2.97
3.076742172241211,0.6,0.9,-2.3,2.54
3.0871121883392334,0.87,0.31,-1.77,1.99
3.1003341674804688,1.3,-0.43,-1.18,1.8
3.1060991287231445,1.61,-1.11,-0.81,2.11
3.1161341667175293,1.89,-1.4,-0.52,2.4
3.126845121383667,2.14,-1.64,-0.27,2.7
3.1364102363586426,2.22,-1.66,-0.04,2.77
3.1497161388397217,2.05,-1.58,0.18,2.59
3.1560981273651123,1.87,-1.18,0.12,2.21
3.1668500900268555,1.25,-1.29,0.02,1.79
3.176772117614746,0.62,-1.39,0.12,1.52
3.1870291233062744,0.15,-1.5,0.15,1.51
3.2010040283203125,-0.17,-1.84,0.26,1.86
3.206149101257324,-0.27,-2.26,0.34,2.3
3.21681809425354,-0.27,-2.75,0.41,2.79
3.227074146270752,-0.19,-3.21,0.63,3.27
3.2369790077209473,0.07,-3.58,0.75,3.65
3.2502970695495605,0.28,-3.69,0.68,3.76
3.256160259246826,0.5,-3.57,0.65,3.66
3.2669992446899414,0.59,-3.2,0.64,3.31
3.2769181728363037,0.68,-2.69,0.66,2.85
3.2869131565093994,0.84,-2.28,0.71,2.53
3.3013463020324707,0.91,-2.0,0.82,2.34
3.306334972381592,0.88,-1.77,0.94,2.18
3.316986083984375,0.84,-1.57,0.98,2.03
3.3268380165100098,0.9,-1.4,1.02,1.95
3.3369181156158447,0.89,-1.23,1.01,1.82
3.3501970767974854,0.82,-1.09,0.89,1.62
3.3561460971832275,0.8,-0.92,0.74,1.42
3.3669490814208984,0.83,-0.76,0.6,1.27
3.3768131732940674,0.8,-0.61,0.62,1.18
3.386857032775879,0.74,-0.48,0.86,1.23
3.3998970985412598,0.75,-0.31,0.96,1.25
3.4062142372131348,0.74,-0.13,0.93,1.19
3.4162139892578125,0.68,0.06,0.84,1.08
3.426990032196045,0.61,0.21,0.64,0.9
3.4367990493774414,0.56,0.2,0.44,0.73
3.450031280517578,0.58,0.18,0.37,0.71
3.4560861587524414,0.66,0.46,0.56,0.98
3.4670820236206055,0.75,1.15,1.19,1.81
3.4767611026763916,0.75,2.05,1.77,2.81
3.4868991374969482,0.66,2.84,1.87,3.46
3.500843048095703,0.57,3.5,1.47,3.83
3.5062990188598633,0.38,4.26,1.15,4.42
3.517052173614502,-0.02,5.08,0.92,5.16
3.5268940925598145,-0.39,5.61,0.37,5.63
3.536893129348755,-0.53,5.42,-0.92,5.52
3.5506131649017334,-0.8,4.51,-1.78,4.91
3.556194305419922,-1.1,3.74,-1.71,4.25
3.567084312438965,-1.27,3.81,-0.91,4.11
3.5768980979919434,-1.39,3.8,-0.65,4.09
3.5872139930725098,-1.36,3.11,-1.41,3.67
3.601314067840576,-1.26,2.34,-2.06,3.36
3.606389045715332,-1.23,1.77,-1.92,2.88
3.6170172691345215,-1.25,1.27,-1.47,2.31
3.626845121383667,-1.25,0.86,-1.21,1.94
3.636820077896118,-1.29,0.48,-1.04,1.72
3.6514892578125,-1.33,0.19,-0.89,1.61
3.656393051147461,-1.35,0.02,-0.7,1.52
3.6672120094299316,-1.25,-0.02,-0.48,1.33
3.6769580841064453,-1.02,0.04,-0.21,1.04
3.687138080596924,-0.82,-0.09,-0.11,0.83
3.7017431259155273,-0.54,-0.35,-0.2,0.67
3.7064499855041504,-0.24,-0.68,-0.38,0.81
3.717341184616089,0.02,-1.13,-0.56,1.26
3.7270891666412354,0.28,-1.7,-0.53,1.8
3.736772060394287,0.5,-2.29,-0.33,2.36
3.750819206237793,0.7,-2.9,-0.04,2.98
3.756538152694702,0.82,-3.49,0.28,3.59
3.7671971321105957,0.85,-3.99,0.45,4.1
3.776884078979492,0.82,-4.24,0.44,4.34
3.7869720458984375,0.72,-4.27,0.38,4.34
3.801328182220459,0.5,-4.1,0.32,4.14
3.806655168533325,0.23,-3.89,0.58,3.93
3.8171939849853516,0.11,-3.74,0.89,3.84
3.8269591331481934,0.03,-3.61,1.0,3.74
3.836827278137207,-0.09,-3.38,0.98,3.52
3.8511300086975098,-0.14,-3.09,0.99,3.24
3.856640100479126,-0.14,-2.72,1.05,2.91
3.8672001361846924,-0.19,-2.28,1.21,2.58
3.8769431114196777,-0.23,-1.84,1.46,2.36
3.8869242668151855,-0.29,-1.39,1.54,2.09
3.9014692306518555,-0.36,-1.01,1.5,1.84
3.9068281650543213,-0.46,-0.7,1.45,1.67
3.9171910285949707,-0.63,-0.47,1.24,1.46
3.927356243133545,-0.78,-0.39,1.02,1.34
3.9372711181640625,-0.8,-0.47,0.92,1.3
3.9532101154327393,-0.78,-0.62,0.87,1.32
3.9568681716918945,-0.76,-0.73,1.01,1.45
3.9672281742095947,-0.6,-0.83,1.07,1.48
3.977116107940674,-0.46,-0.7,1.13,1.4
3.986964225769043,-0.38,-0.35,1.26,1.36
4.001086235046387,-0.31,0.08,1.34,1.37
4.006920099258423,-0.27,0.48,1.42,1.52
4.017120122909546,-0.32,1.07,1.57,1.92
4.026965141296387,-0.5,2.02,1.73,2.7
4.036882162094116,-0.74,3.16,1.95,3.78
4.052297115325928,-0.95,4.37,2.32,5.03
4.057070255279541,-1.08,5.57,2.27,6.11
4.067147254943848,-1.14,6.46,1.25,6.67
4.077095031738281,-0.98,6.84,-0.03,6.9
4.086822986602783,-0.75,6.51,-0.79,6.6
4.10194730758667,-0.32,5.53,-1.63,5.77
4.1071062088012695,0.21,4.24,-2.42,4.88
4.117369174957275,0.6,3.19,-2.74,4.24
4.127158164978027,0.71,2.58,-2.58,3.71
4.13706111907959,0.69,1.99,-2.13,2.99
4.152663230895996,0.77,1.23,-1.84,2.34
4.157179117202759,0.98,0.65,-1.62,2.0
4.1671741008758545,1.06,0.58,-1.23,1.72
4.177045106887817,1.2,0.68,-1.08,1.75
4.187126159667969,1.28,0.75,-1.05,1.81
4.202095031738281,1.37,0.83,-0.93,1.85
4.207264184951782,1.42,0.81,-0.7,1.77
4.217259168624878,1.51,0.65,-0.64,1.76
4.226991176605225,1.43,0.56,-0.49,1.61
4.237114191055298,1.13,0.43,-0.21,1.22
4.2527642250061035,0.74,0.03,-0.11,0.74
4.2574462890625,0.3,-0.47,-0.12,0.57
4.267477035522461,-0.06,-1.02,-0.17,1.03
4.277137279510498,-0.33,-1.63,-0.23,1.67
4.287117958068848,-0.43,-2.19,-0.18,2.23
4.302886009216309,-0.39,-2.72,-0.12,2.75
4.307390213012695,-0.38,-3.27,0.1,3.29
4.317146301269531,-0.31,-3.71,0.42,3.74
4.327284097671509,-0.09,-4.11,0.54,4.14
4.337128162384033,0.1,-4.35,0.44,4.37
4.3528361320495605,0.23,-4.31,0.35,4.33
4.356602191925049,0.32,-4.17,0.46,4.2
4.367429256439209,0.33,-3.98,0.64,4.04
4.377019166946411,0.42,-3.85,0.75,3.94
4.38695216178894,0.43,-3.72,0.91,3.85
4.40245509147644,0.4,-3.46,1.07,3.64
4.406450271606445,0.45,-3.13,1.1,3.34
4.4174580574035645,0.49,-2.77,1.17,3.04
4.427093982696533,0.58,-2.42,1.34,2.82
4.437342166900635,0.63,-2.05,1.37,2.54
4.453131198883057,0.62,-1.68,1.25,2.18
4.456606149673462,0.65,-1.31,1.15,1.86
4.4675092697143555,0.66,-0.94,1.12,1.6
4.476870059967041,0.66,-0.67,1.07,1.42
4.487212181091309,0.65,-0.48,1.04,1.31
4.50289511680603,0.57,-0.3,0.95,1.14
4.50659704208374,0.43,-0.16,0.86,0.97
4.517242193222046,0.3,-0.09,0.79,0.84
4.5269880294799805,0.25,0.1,0.67,0.72
4.537195205688477,0.34,0.67,0.41,0.85
4.552524089813232,0.5,1.52,0.38,1.64
4.556624174118042,0.58,2.38,1.13,2.69
4.567240238189697,0.72,3.34,1.73,3.82
4.577068090438843,0.74,4.38,1.62,4.72
4.587298154830933,0.43,5.34,1.31,5.51
4.602330207824707,0.0,6.22,0.69,6.25
4.606630086898804,-0.46,6.86,-0.32,6.88
4.616621017456055,-0.85,6.65,-1.49,6.86
4.627158164978027,-1.25,5.37,-2.33,5.98
4.637328147888184,-1.58,4.16,-2.24,4.98
4.652212142944336,-1.67,3.87,-1.38,4.43
4.656729221343994,-1.7,3.67,-1.27,4.23
4.6672821044921875,-1.62,3.1,-1.9,3.98
4.677006244659424,-1.55,2.37,-1.95,3.43
4.687373161315918,-1.65,1.81,-1.35,2.79
4.702643156051636,-1.76,1.42,-0.9,2.43
4.706629276275635,-1.85,1.3,-0.87,2.42
4.717374086380005,-2.01,1.03,-0.81,2.39
4.72721529006958,-2.06,0.56,-0.6,2.21
4.737243175506592,-2.1,0.25,-0.38,2.14
4.75123929977417,-1.83,0.13,-0.1,1.83
4.756449222564697,-1.43,-0.17,-0.11,1.44
4.767305135726929,-0.99,-0.68,-0.2,1.21
4.77714204788208,-0.58,-1.17,-0.19,1.31
4.787140130996704,-0.1,-1.72,-0.16,1.73
4.801854133605957,0.38,-2.42,-0.03,2.44
4.806674003601074,0.74,-3.22,0.08,3.3
4.817615032196045,0.99,-3.94,0.17,4.06
4.826980113983154,1.11,-4.49,0.26,4.63
4.837257146835327,1.1,-4.9,0.33,5.03
4.852577209472656,0.99,-5.01,0.43,5.12
4.856628179550171,0.52,-4.97,0.35,5.0
4.867587089538574,0.25,-4.82,0.31,4.83
4.877176284790039,0.05,-4.63,0.5,4.65
4.887381076812744,-0.23,-4.45,0.7,4.51
4.902121067047119,-0.3,-4.12,0.79,4.2
4.906599044799805,-0.23,-3.73,0.89,3.84
4.916666030883789,-0.27,-3.27,1.06,3.44
4.927020072937012,-0.3,-2.72,1.3,3.02
4.937232971191406,-0.3,-2.19,1.42,2.62
4.950489044189453,-0.39,-1.69,1.5,2.29
4.956686019897461,-0.47,-1.17,1.46,1.92
4.966658115386963,-0.62,-0.67,1.46,1.72
4.976612091064453,-0.78,-0.22,1.45,1.66
4.987421035766602,-0.93,0.08,1.3,1.6
4.999882221221924,-1.01,0.18,1.07,1.48
5.006680011749268,-1.09,0.21,0.83,1.38
5.016744136810303,-0.98,0.2,0.77,1.26
5.02723503112793,-0.71,0.25,0.88,1.15
5.037186145782471,-0.5,0.35,1.12,1.27
5.050370216369629,-0.36,0.4,1.32,1.42
5.056777000427246,-0.17,0.59,1.55,1.66
5.06661319732666,-0.07,1.36,1.64,2.13
5.077311038970947,-0.24,2.49,1.54,2.93
5.087201118469238,-0.45,3.61,1.89,4.09
5.100670099258423,-0.78,4.68,2.27,5.25
5.10671329498291,-1.09,5.79,1.84,6.17
5.117398262023926,-1.21,6.88,0.81,7.03
5.1271421909332275,-1.14,7.51,-0.53,7.61
5.137418270111084,-0.82,7.08,-1.85,7.36
5.1517791748046875,-0.14,5.46,-2.86,6.16
5.156740188598633,0.77,3.88,-3.18,5.07
5.167392253875732,1.21,2.99,-2.88,4.32
5.17716121673584,1.29,2.34,-2.68,3.78
5.187410116195679,1.48,1.7,-2.51,3.37
5.200671195983887,1.62,1.32,-2.06,2.93
5.206614017486572,1.71,1.15,-1.53,2.56
5.217586994171143,1.78,1.12,-1.21,2.42
5.227056980133057,1.84,1.24,-1.03,2.44
5.237171173095703,1.89,1.4,-0.89,2.51
5.249878168106079,1.95,1.33,-0.85,2.5
5.256717205047607,1.89,1.17,-0.65,2.31
5.266901969909668,1.66,0.87,-0.42,1.92
5.27787709236145,1.28,0.41,-0.27,1.37
5.28740119934082,0.82,-0.08,-0.1,0.82
5.300268173217773,0.25,-0.63,0.08,0.68
5.306600093841553,-0.24,-1.31,0.07,1.33
5.31775426864624,-0.53,-2.17,-0.2,2.24
5.327272176742554,-0.74,-2.87,-0.16,2.96
5.337306022644043,-0.72,-3.5,0.27,3.58
5.350543975830078,-0.49,-4.14,0.55,4.2
5.356780052185059,-0.44,-4.66,0.67,4.72
5.36772608757019,-0.05,-4.95,0.62,4.98
5.377048015594482,0.39,-4.94,0.27,4.96
5.3873701095581055,0.56,-4.85,0.2,4.88
5.401337146759033,0.71,-4.83,0.41,4.89
5.406656265258789,0.74,-4.78,0.61,4.87
5.417593002319336,0.73,-4.59,0.76,4.7
5.427553176879883,0.68,-4.23,0.94,4.38
5.437631130218506,0.67,-3.76,1.07,3.96
5.452597141265869,0.63,-3.3,1.18,3.56
5.456866264343262,0.66,-2.83,1.31,3.18
5.46694016456604,0.69,-2.42,1.39,2.87
5.477941036224365,0.7,-2.0,1.37,2.52
5.48739218711853,0.64,-1.49,1.16,1.99
5.501780033111572,0.55,-0.95,0.92,1.43
5.506903171539307,0.46,-0.46,0.7,0.95
5.5177271366119385,0.36,-0.16,0.58,0.7
5.527633190155029,0.27,0.11,0.52,0.59
5.537353038787842,0.16,0.35,0.59,0.7
5.551935195922852,-0.03,0.38,0.55,0.66
5.556951999664307,-0.07,0.23,0.26,0.35
5.567807197570801,-0.07,0.56,0.03,0.56
5.577519178390503,-0.06,1.27,0.07,1.27
5.587671279907227,0.08,2.2,0.66,2.29
5.603091239929199,0.33,3.36,1.24,3.59
5.60691499710083,0.39,4.62,1.48,4.86
5.617789268493652,0.28,5.89,1.66,6.12
5.62782096862793,-0.13,7.0,1.09,7.08
5.637768268585205,-0.61,7.71,-0.24,7.73
5.6530632972717285,-1.09,7.48,-1.91,7.79
5.656890153884888,-1.46,5.94,-2.99,6.8
5.6678032875061035,-2.08,4.14,-2.69,5.35
5.678047180175781,-2.05,3.72,-1.71,4.57
5.687709093093872,-2.09,3.59,-1.4,4.38
5.703224182128906,-1.98,3.24,-1.75,4.18
5.706933975219727,-1.76,2.68,-1.82,3.68
5.717839241027832,-1.74,1.96,-1.44,2.99
5.727873086929321,-1.64,1.68,-1.06,2.57
5.7375571727752686,-1.66,1.6,-0.76,2.42
5.752779960632324,-1.65,1.24,-0.7,2.17
5.757080078125,-1.53,0.92,-0.73,1.92
5.7675371170043945,-1.5,0.51,-0.63,1.7
5.778064250946045,-1.32,0.25,-0.36,1.39
5.787633180618286,-1.12,0.12,-0.13,1.13
5.803658962249756,-0.88,-0.39,-0.21,0.98
5.806827068328857,-0.68,-0.97,-0.48,1.27
5.817751169204712,-0.43,-1.64,-0.55,1.78
5.827892303466797,-0.05,-2.48,-0.46,2.52
5.837679147720337,0.41,-3.4,-0.29,3.43
5.852786064147949,0.74,-4.25,0.0,4.31
5.856900215148926,0.91,-4.92,0.22,5.0
5.867547988891602,1.52,-5.2,0.06,5.41
5.878233194351196,2.07,-4.91,-0.31,5.33
5.887864112854004,0.47,-5.2,-0.5,5.24
5.903322219848633,0.03,-5.58,0.29,5.58
5.9069390296936035,-0.17,-5.81,1.42,5.98
5.9176881313323975,-0.29,-5.68,1.85,5.98
5.928081035614014,0.03,-5.03,1.23,5.17
5.937788963317871,-0.16,-4.34,0.63,4.38
5.952268123626709,-0.29,-3.8,0.67,3.86
5.957083225250244,-0.35,-3.24,0.84,3.36
5.966948986053467,-0.3,-2.6,1.1,2.83
5.978724002838135,-0.21,-1.98,1.51,2.49
5.987799167633057,-0.26,-1.44,1.84,2.35
6.002401113510132,-0.38,-0.85,1.85,2.07
6.006978988647461,-0.53,-0.17,1.52,1.61
6.017522096633911,-0.73,0.42,1.1,1.38
6.028573036193848,-0.91,0.85,0.91,1.54
6.0377912521362305,-1.03,1.09,0.85,1.72
6.053430080413818,-1.11,1.13,0.77,1.76
6.056964159011841,-1.04,0.93,0.82,1.61
6.067652225494385,-0.96,0.82,0.93,1.56
6.078677177429199,-0.8,0.8,1.19,1.64
6.087723255157471,-0.6,0.97,1.33,1.75
6.102616310119629,-0.46,1.67,1.34,2.19
6.106988191604614,-0.5,2.59,1.35,2.96
6.117671012878418,-0.54,3.63,1.83,4.1
6.128614187240601,-0.64,4.69,2.2,5.21
6.1378092765808105,-0.81,5.95,1.81,6.27
6.152526140213013,-0.97,7.19,0.81,7.3
6.156949996948242,-0.83,7.74,-0.5,7.8
6.167908191680908,-0.5,6.89,-2.23,7.25
6.178856134414673,0.3,5.23,-3.55,6.32
6.187949180603027,1.04,3.89,-3.36,5.24
6.203801155090332,1.19,3.03,-2.91,4.36
6.206957101821899,1.24,2.32,-2.84,3.87
6.217628002166748,1.3,1.6,-2.58,3.3
6.230075120925903,1.33,1.11,-2.13,2.74
6.237373113632202,1.39,0.97,-1.58,2.31
6.252424240112305,1.48,1.16,-1.31,2.29
6.256933212280273,1.57,1.48,-1.15,2.44
6.26772928237915,1.69,1.56,-0.97,2.49
6.278979301452637,1.74,1.41,-0.81,2.38
6.287464141845703,1.7,1.17,-0.7,2.17
6.302257061004639,1.56,0.88,-0.58,1.88
6.306931972503662,1.33,0.4,-0.43,1.45
6.317692279815674,0.97,-0.29,-0.33,1.06
6.328769207000732,0.47,-1.0,-0.23,1.12
6.337845087051392,0.02,-1.66,-0.19,1.67
6.352872133255005,-0.23,-2.33,-0.1,2.34
6.35696816444397,-0.3,-2.91,0.04,2.92
6.3677191734313965,-0.34,-3.45,0.21,3.47
6.377355098724365,-0.29,-3.92,0.34,3.94
6.387495994567871,-0.09,-4.32,0.22,4.32
6.402615070343018,-0.17,-4.67,0.3,4.68
6.406975269317627,-0.01,-4.86,0.35,4.87
6.4177680015563965,0.41,-4.87,0.21,4.89
6.427534103393555,0.6,-4.73,0.32,4.77
6.437903165817261,0.63,-4.6,0.58,4.67
6.451517105102539,0.58,-4.49,0.78,4.59
6.457043170928955,0.54,-4.32,0.84,4.43
6.4670209884643555,0.56,-4.03,0.86,4.15
6.477663993835449,0.57,-3.57,0.99,3.74
6.487678050994873,0.56,-3.04,1.24,3.33
6.501646041870117,0.59,-2.58,1.31,2.95
6.506927013397217,0.73,-2.08,1.17,2.49
6.517815113067627,0.81,-1.59,1.05,2.07
6.5277099609375,0.7,-1.16,0.91,1.63
6.537826061248779,0.62,-0.73,0.66,1.16
6.552818298339844,0.57,-0.38,0.58,0.89
6.557135105133057,0.4,-0.07,0.53,0.66
6.567753076553345,0.35,0.29,0.62,0.76
6.577386140823364,0.16,0.1,0.63,0.65
6.587529182434082,0.22,0.13,0.34,0.42
6.602609157562256,0.33,0.55,-0.11,0.65
6.607043266296387,0.2,1.03,-0.19,1.06
6.617046117782593,0.3,1.55,0.48,1.65
6.627881050109863,0.63,3.21,1.38,3.55
6.638091087341309,0.8,4.92,1.9,5.33
6.652727127075195,0.28,6.07,1.67,6.3
6.656975269317627,-0.37,6.98,0.72,7.02
6.6677680015563965,-0.9,7.5,-0.34,7.56
6.67760705947876,-1.29,7.04,-0.99,7.22
6.687579154968262,-1.89,5.01,-1.3,5.51
6.703181266784668,-2.45,3.3,-1.26,4.29
6.707048177719116,-2.47,3.19,-1.17,4.2
6.717072010040283,-2.35,3.2,-1.36,4.19
6.727875232696533,-2.12,2.81,-1.81,3.95
6.737732172012329,-1.96,2.38,-1.75,3.54
6.752196311950684,-1.74,2.16,-1.29,3.05
6.756946086883545,-1.62,2.08,-1.06,2.84
6.767109155654907,-1.61,2.08,-1.04,2.82
6.777911186218262,-1.69,1.58,-1.18,2.59
6.787679195404053,-1.7,0.99,-1.3,2.35
6.802814960479736,-1.78,0.43,-1.23,2.2
6.807139158248901,-1.7,0.18,-1.01,1.98
6.817885160446167,-1.47,-0.03,-0.68,1.61
6.827516078948975,-1.11,-0.57,-0.54,1.35
6.837696075439453,-0.67,-1.18,-0.54,1.46
6.853184223175049,-0.25,-1.76,-0.37,1.81
6.857168197631836,0.31,-2.47,-0.19,2.49
6.867817163467407,0.92,-3.34,-0.11,3.46
6.877470970153809,1.36,-4.18,0.08,4.39
6.888230085372925,1.58,-4.72,0.25,4.98
6.903710126876831,1.79,-5.09,0.27,5.4
6.907102108001709,1.62,-5.35,0.38,5.6
6.917541027069092,1.22,-5.36,0.54,5.52
6.92742919921875,0.95,-5.15,0.61,5.27
6.938009262084961,0.61,-4.88,0.6,4.95
6.954133033752441,0.31,-4.72,0.58,4.76
6.957096099853516,0.16,-4.48,0.67,4.53
6.967820167541504,0.15,-4.18,0.85,4.26
6.977299213409424,0.08,-3.7,1.11,3.86
6.988063097000122,-0.02,-3.03,1.38,3.32
7.0039520263671875,-0.11,-2.31,1.42,2.71
7.007065296173096,-0.18,-1.66,1.42,2.19
7.01786208152771,-0.21,-0.97,1.43,1.74
7.027538299560547,-0.35,-0.28,1.28,1.35
7.038015127182007,-0.63,0.24,1.02,1.22
7.054697036743164,-0.87,0.49,0.76,1.25
7.057201147079468,-0.99,0.5,0.81,1.37
7.067898273468018,-1.08,0.39,0.97,1.5
7.077509164810181,-1.12,0.34,0.87,1.45
7.088128089904785,-1.08,0.4,0.64,1.31
7.104633092880249,-1.0,0.52,0.63,1.29
7.107203006744385,-0.84,0.73,0.89,1.42
7.117168188095093,-0.66,1.11,1.22,1.77
7.1280412673950195,-0.57,1.58,1.37,2.16
7.137874126434326,-0.51,2.34,1.39,2.76
7.154828071594238,-0.6,3.52,1.52,3.88
7.157185077667236,-0.75,4.8,1.77,5.17
7.167981147766113,-0.92,5.95,1.83,6.29
7.177587032318115,-1.07,6.88,1.14,7.05
7.188259124755859,-1.17,7.31,-0.12,7.4
7.203779220581055,-0.96,6.63,-1.38,6.83
7.20712423324585,-0.22,4.7,-2.57,5.36
7.217188119888306,0.69,3.48,-2.98,4.63
7.2279651165008545,0.82,3.12,-2.92,4.35
7.237833023071289,0.89,2.6,-2.93,4.01
7.254246234893799,1.15,1.88,-2.69,3.47
7.257194995880127,1.5,1.41,-2.16,2.98
7.267966270446777,1.73,1.34,-1.77,2.81
7.277622222900391,1.84,1.67,-1.56,2.93
7.2883031368255615,1.92,2.05,-1.29,3.09
7.304471969604492,1.93,2.2,-0.97,3.08
7.307240962982178,1.91,2.1,-0.78,2.94
7.3179612159729,1.86,1.85,-0.8,2.74
7.327596187591553,1.66,1.3,-0.67,2.21
7.338074207305908,1.33,0.55,-0.26,1.46
7.354846000671387,0.88,-0.19,-0.01,0.9
7.357218265533447,0.28,-0.88,0.04,0.92
7.367956161499023,-0.27,-1.64,0.11,1.66
7.377570152282715,-0.57,-2.46,0.13,2.52
7.388193130493164,-0.77,-3.19,0.3,3.29
7.405156135559082,-0.75,-3.83,0.46,3.92
7.407279014587402,-0.64,-4.34,0.48,4.41
7.417075157165527,-0.47,-4.78,0.47,4.82
7.428092002868652,-0.33,-5.08,0.39,5.1
7.438209056854248,0.1,-5.22,0.17,5.22
7.4550089836120605,0.33,-5.23,0.2,5.24
7.457176208496094,0.58,-5.13,0.37,5.17
7.467343091964722,0.69,-5.02,0.53,5.09
7.477941036224365,0.69,-4.79,0.76,4.89
7.488527297973633,0.6,-4.47,0.96,4.61
7.505045175552368,0.56,-4.08,0.99,4.23
7.507177114486694,0.49,-3.62,0.94,3.77
7.517096996307373,0.48,-3.13,0.9,3.29
7.5281431674957275,0.47,-2.69,0.94,2.88
7.538143157958984,0.61,-2.29,0.99,2.56
7.5548319816589355,0.73,-1.8,0.92,2.14
7.55719518661499,0.78,-1.16,0.82,1.62
7.567229270935059,0.81,-0.57,0.85,1.3
7.578037261962891,0.75,-0.1,0.82,1.11
7.588201999664307,0.63,0.17,0.61,0.89
7.604997158050537,0.48,0.43,0.43,0.77
7.607241153717041,0.23,0.6,0.3,0.7
7.617135047912598,0.17,0.74,0.28,0.8
7.6280670166015625,0.24,1.1,0.13,1.13
7.637872219085693,0.33,1.69,0.31,1.74
7.655210018157959,0.58,2.67,1.12,2.95
7.6572442054748535,0.73,3.84,1.77,4.29
7.6680521965026855,0.61,4.97,1.9,5.35
7.677614212036133,0.18,6.19,1.59,6.39
7.688138008117676,-0.39,7.36,0.84,7.41
7.705401182174683,-0.8,8.17,-0.14,8.21
7.7073211669921875,-1.31,7.27,-1.48,7.53
7.717267990112305,-1.87,5.49,-2.08,6.16
7.728098154067993,-2.26,4.26,-1.59,5.07
7.738015174865723,-2.22,4.09,-1.32,4.83
7.75583815574646,-2.23,3.79,-1.62,4.68
7.757364273071289,-2.12,3.1,-1.87,4.19
7.7681660652160645,-2.05,2.29,-1.6,3.46
7.777626037597656,-1.85,1.82,-1.08,2.81
7.788272142410278,-1.89,1.24,-0.83,2.4
7.805735111236572,-1.82,0.81,-0.96,2.21
7.807455062866211,-1.7,0.49,-1.05,2.05
7.817220211029053,-1.68,-0.02,-1.0,1.95
7.828082084655762,-1.55,-0.3,-0.8,1.76
7.838175296783447,-1.25,-0.18,-0.52,1.36
7.8560709953308105,-0.95,-0.47,-0.41,1.13
7.8574442863464355,-0.6,-0.91,-0.4,1.16
7.867810249328613,-0.27,-1.4,-0.27,1.45
7.877457141876221,0.08,-1.97,-0.18,1.97
7.888305187225342,0.53,-2.71,-0.14,2.76
7.906674146652222,0.85,-3.45,0.0,3.55
7.9074273109436035,1.25,-4.06,0.18,4.25
7.917342185974121,1.51,-4.6,0.4,4.85
7.927980184555054,1.6,-5.04,0.56,5.31
7.937948226928711,1.47,-5.26,0.57,5.49
7.955701112747192,1.18,-5.31,0.49,5.46
7.957406997680664,0.79,-5.2,0.39,5.27
7.96743631362915,0.53,-5.05,0.51,5.1
7.978116989135742,0.28,-4.82,0.72,4.88
7.988265037536621,0.11,-4.48,0.9,4.57
8.006003141403198,-0.02,-4.02,0.99,4.14
8.00747299194336,-0.14,-3.45,1.28,3.68
8.01799726486206,-0.09,-2.83,1.48,3.19
8.027653217315674,-0.19,-2.21,1.63,2.75
8.038172245025635,-0.32,-1.53,1.68,2.29
8.056835174560547,-0.45,-0.76,1.53,1.76
8.057606220245361,-0.62,-0.06,1.27,1.41
8.068143129348755,-0.76,0.47,1.07,1.39
8.077601194381714,-0.86,0.76,0.96,1.49
8.088243961334229,-0.93,0.82,0.88,1.52
8.105720043182373,-0.96,0.76,0.62,1.37
8.107388973236084,-1.0,0.75,0.31,1.28
8.118253231048584,-1.03,0.74,0.46,1.34
8.12779712677002,-1.0,0.82,0.61,1.42
8.13817811012268,-1.05,1.05,0.99,1.78
8.147513151168823,-0.85,1.25,1.25,1.96
8.157608985900879,-0.75,1.74,1.04,2.16
8.167255163192749,-0.79,2.64,0.81,2.87
8.178182125091553,-0.99,3.75,1.08,4.02
8.187954187393188,-1.21,5.09,1.5,5.44
8.197524070739746,-1.42,6.63,1.47,6.93
8.20754098892212,-1.39,7.69,0.21,7.81
8.217400074005127,-0.99,7.46,-1.85,7.74
8.228233098983765,-0.28,5.84,-3.25,6.68
8.237974166870117,0.59,4.27,-3.38,5.47
8.247656106948853,1.01,3.6,-3.27,4.96
8.25779414176941,1.13,3.23,-3.32,4.76
8.267496109008789,1.29,2.71,-2.83,4.12
8.278233051300049,1.57,2.07,-2.2,3.4
8.288052082061768,1.65,1.57,-1.73,2.86
8.297556161880493,1.66,1.41,-1.36,2.56
8.307660102844238,1.65,1.62,-1.07,2.54
8.317437171936035,1.63,1.76,-0.93,2.57
8.328036308288574,1.53,1.65,-0.85,2.4
8.338204145431519,1.37,1.45,-0.71,2.11
8.347692012786865,1.08,1.09,-0.51,1.61
8.357585191726685,0.8,0.38,-0.42,0.98
8.367300987243652,0.5,-0.44,-0.27,0.71
8.378239154815674,0.08,-1.18,-0.07,1.18
8.388357162475586,-0.31,-1.89,-0.01,1.91
8.397688150405884,-0.58,-2.54,0.01,2.6
8.407564163208008,-0.71,-3.08,0.1,3.16
8.418450117111206,-0.8,-3.58,0.29,3.67
8.427824020385742,-0.65,-4.09,0.36,4.15
8.438327312469482,-0.51,-4.46,0.31,4.49
8.447626113891602,-0.39,-4.76,0.34,4.78
8.457853078842163,-0.14,-4.91,0.41,4.92
8.46782398223877,0.17,-4.97,0.52,5.0
8.477972984313965,0.31,-4.87,0.62,4.91
8.488461017608643,0.39,-4.8,0.71,4.86
8.497637271881104,0.4,-4.66,0.84,4.75
8.507771015167236,0.37,-4.4,0.97,4.52
8.517863273620605,0.37,-4.1,1.07,4.25
8.527812957763672,0.27,-3.66,1.17,3.85
8.538305282592773,0.27,-3.22,1.26,3.46
8.547629117965698,0.35,-2.76,1.34,3.08
8.55769395828247,0.43,-2.3,1.39,2.72
8.567345142364502,0.52,-1.9,1.24,2.32
8.578312158584595,0.54,-1.46,1.06,1.88
8.588366985321045,0.53,-1.06,0.91,1.49
8.59774112701416,0.49,-0.62,0.76,1.09
8.607676029205322,0.37,-0.24,0.67,0.8
8.617434978485107,0.24,0.08,0.55,0.6
8.628323078155518,0.07,0.3,0.42,0.52
8.637947082519531,0.08,0.42,0.42,0.59
8.647705078125,0.27,0.79,0.43,0.93
8.657539129257202,0.39,1.53,0.33,1.61
8.667257308959961,0.52,2.5,0.64,2.63
8.678344249725342,0.72,3.48,1.19,3.74
8.688075065612793,0.74,4.49,1.47,4.78
8.69775915145874,0.48,5.66,1.61,5.9
8.707592964172363,-0.12,6.91,1.24,7.02
8.717400074005127,-0.82,7.73,0.23,7.77
8.728361129760742,-1.43,7.28,-1.12,7.5
8.73815107345581,-1.97,5.55,-2.43,6.37
8.747727155685425,-2.23,4.49,-2.36,5.54
8.757697105407715,-2.28,4.59,-1.64,5.38
8.767407178878784,-2.31,4.38,-1.54,5.18
8.778229236602783,-2.16,3.55,-1.77,4.51
8.7883620262146,-2.04,2.63,-1.65,3.71
8.79771614074707,-1.91,1.98,-1.21,3.0
8.807662010192871,-1.76,1.58,-0.95,2.54
8.817407131195068,-1.67,1.16,-0.97,2.25
8.828306198120117,-1.6,0.8,-0.92,2.01
8.838452100753784,-1.47,0.53,-0.74,1.72
8.847637176513672,-1.29,0.33,-0.37,1.38
8.857723236083984,-1.11,0.08,-0.14,1.12
8.867441177368164,-0.87,-0.29,-0.15,0.92
8.878440141677856,-0.57,-0.77,-0.09,0.96
8.888160228729248,-0.18,-1.36,-0.03,1.37
8.897682189941406,0.23,-2.06,0.0,2.07
8.907613277435303,0.6,-2.77,0.09,2.83
8.917478084564209,0.98,-3.54,0.11,3.67
8.928271293640137,1.19,-4.32,0.26,4.48
8.93818998336792,1.37,-5.01,0.38,5.2
8.94764518737793,1.37,-5.45,0.42,5.63
8.957720279693604,1.21,-5.7,0.33,5.83
8.967445135116577,0.84,-5.72,0.38,5.79
8.97842812538147,0.66,-5.67,0.58,5.73
8.988218307495117,0.47,-5.54,0.69,5.6
8.997823238372803,0.24,-5.39,0.73,5.44
9.008539199829102,0.18,-5.11,0.84,5.18
9.017487049102783,0.13,-4.67,0.98,4.77
9.028439998626709,0.02,-4.06,1.17,4.22
9.03855013847351,-0.16,-3.39,1.31,3.63
9.047780990600586,-0.22,-2.64,1.43,3.01
9.058285236358643,-0.32,-1.85,1.41,2.34
9.068089008331299,-0.51,-1.0,1.3,1.71
9.078120231628418,-0.67,-0.2,1.12,1.32
9.088228225708008,-0.85,0.42,1.09,1.44
9.097839117050171,-0.99,0.76,0.95,1.56
9.108591079711914,-1.04,1.06,0.71,1.64
9.117467164993286,-0.97,1.29,0.34,1.64
9.128468036651611,-0.96,1.44,0.14,1.73
9.138458251953125,-0.84,1.41,0.25,1.66
9.147775173187256,-0.82,1.33,0.79,1.75
9.158542156219482,-0.78,1.4,1.29,2.05
9.168084144592285,-0.68,1.72,1.45,2.35
9.178152084350586,-0.68,2.4,1.63,2.97
9.188072204589844,-0.8,3.43,1.99,4.04
9.197993278503418,-0.94,4.63,2.26,5.23
9.208868026733398,-1.11,5.97,2.0,6.39
9.2174711227417,-1.28,7.38,1.03,7.56
9.228394985198975,-1.3,8.21,-0.22,8.31
9.23827600479126,-1.14,7.6,-1.64,7.85
9.248150110244751,-0.36,5.81,-2.87,6.49
9.258507251739502,0.53,4.44,-3.03,5.4
9.268511295318604,0.76,3.92,-3.09,5.04
9.278120994567871,0.82,3.44,-3.17,4.74
9.288211107254028,0.97,2.69,-2.87,4.05
9.29790210723877,1.32,2.01,-2.43,3.41
9.308638095855713,1.56,1.72,-1.78,2.92
9.317468166351318,1.71,1.68,-1.47,2.81
9.328502178192139,1.85,1.71,-1.2,2.79
9.338836193084717,1.99,1.56,-0.9,2.68
9.348318099975586,2.14,1.15,-0.68,2.52
9.359841108322144,2.2,0.74,-0.52,2.37
9.367611169815063,2.15,0.28,-0.26,2.18
9.378653049468994,1.79,-0.36,-0.08,1.82
9.388648986816406,1.24,-1.04,0.18,1.62
9.397887229919434,0.69,-1.7,0.29,1.85
9.40745210647583,0.16,-2.36,0.2,2.37
9.418513298034668,-0.28,-2.98,0.14,2.99
9.428162097930908,-0.48,-3.54,0.25,3.58
9.438421249389648,-0.48,-4.08,0.42,4.12
9.447648048400879,-0.41,-4.57,0.42,4.6
9.458466053009033,-0.43,-4.88,0.42,4.91
9.468034267425537,-0.15,-5.15,0.48,5.17
9.478085994720459,0.06,-5.25,0.44,5.26
9.488625049591064,0.22,-5.27,0.45,5.29
9.497948169708252,0.51,-5.22,0.64,5.28
9.509302139282227,0.6,-5.05,0.79,5.14
9.518481254577637,0.59,-4.85,0.85,4.95
9.528146266937256,0.5,-4.52,0.96,4.64
9.538589000701904,0.47,-4.0,1.14,4.18
9.547944068908691,0.45,-3.48,1.37,3.76
9.558897018432617,0.48,-3.05,1.51,3.43
9.56808614730835,0.53,-2.7,1.42,3.09
9.578647136688232,0.58,-2.29,1.21,2.65
9.58859395980835,0.66,-1.77,1.14,2.2
9.59785509109497,0.73,-1.12,1.14,1.75
9.609138011932373,0.72,-0.51,0.91,1.26
9.619083166122437,0.56,0.1,0.71,0.9
9.628380298614502,0.37,0.67,0.63,0.99
9.638274192810059,0.06,1.01,0.38,1.08
9.647928237915039,-0.07,0.84,-0.02,0.84
9.659371137619019,0.02,0.76,-0.27,0.8
9.668166160583496,0.17,1.22,-0.34,1.27
9.678699970245361,0.33,2.18,0.19,2.21
9.688340187072754,0.68,3.52,1.16,3.76
9.697986125946045,0.78,5.01,1.78,5.37
9.710130214691162,0.49,6.22,1.74,6.47
9.719329118728638,-0.05,7.38,0.91,7.43
9.728316307067871,-0.78,8.17,-0.17,8.2
9.738850116729736,-1.25,7.86,-1.84,8.16
9.748033046722412,-1.57,7.12,-2.99,7.88
9.759379148483276,-2.46,5.72,-3.11,6.96
9.768311023712158,-2.75,5.08,-2.55,6.31
9.77869701385498,-2.8,4.49,-2.3,5.76
9.788601160049438,-2.69,3.47,-2.33,4.97
9.797837257385254,-2.47,2.66,-1.96,4.12
9.810194969177246,-2.35,2.0,-1.25,3.32
9.819483280181885,-2.28,1.2,-0.9,2.72
9.828286170959473,-2.2,0.54,-0.7,2.37
9.838463306427002,-2.06,0.02,-0.62,2.15
9.848003149032593,-1.53,0.16,-0.38,1.58
9.859827995300293,-1.24,0.03,-0.04,1.24
9.869295120239258,-1.02,-0.26,-0.04,1.05
9.878446102142334,-0.79,-0.7,-0.18,1.07
9.888383150100708,-0.49,-1.29,-0.21,1.39
9.897998094558716,-0.1,-1.99,-0.14,1.99
9.909426212310791,0.4,-2.66,-0.01,2.68
9.919515132904053,0.78,-3.44,0.05,3.52
9.928318977355957,1.13,-4.21,0.05,4.35
9.938408136367798,1.34,-4.8,0.21,4.98
9.948063135147095,1.26,-5.29,0.36,5.44
9.960046291351318,0.99,-5.46,0.21,5.55
9.968620300292969,0.54,-5.43,0.25,5.46
9.978762149810791,0.22,-5.25,0.38,5.26
9.988381147384644,-0.05,-5.03,0.58,5.06
9.997982025146484,-0.35,-4.87,0.7,4.93
10.01020622253418,-0.37,-4.72,0.84,4.8
10.019089221954346,-0.36,-4.49,1.01,4.61
10.028757095336914,-0.28,-4.1,1.12,4.25
10.038317203521729,-0.26,-3.51,1.07,3.67
10.04805326461792,-0.38,-2.92,1.17,3.16
10.060641288757324,-0.44,-2.35,1.39,2.76
10.068717002868652,-0.57,-1.78,1.53,2.41
10.078821182250977,-0.66,-1.19,1.42,1.96
10.088317155838013,-0.76,-0.67,1.11,1.5
10.09800410270691,-0.84,-0.16,0.8,1.17
10.110933303833008,-0.92,0.32,0.55,1.11
10.119737148284912,-0.88,0.75,0.49,1.25
10.128666162490845,-0.85,1.17,0.41,1.5
10.138737201690674,-0.81,1.32,0.39,1.59
10.148131132125854,-0.61,1.24,0.59,1.5
10.160701274871826,-0.37,1.35,0.93,1.68
10.168452262878418,-0.21,1.75,1.38,2.23
10.178330183029175,-0.21,2.51,1.58,2.97
10.188554286956787,-0.34,3.48,1.56,3.82
10.198135137557983,-0.42,4.44,1.6,4.73
10.210357189178467,-0.74,5.66,1.7,5.95
10.218424081802368,-1.09,7.08,1.28,7.27
10.228407144546509,-1.19,7.86,-0.1,7.95
10.238344192504883,-0.84,7.3,-1.69,7.54
10.248069286346436,-0.04,5.59,-2.75,6.22
10.260701179504395,1.02,4.26,-3.27,5.46
10.267857074737549,1.45,3.9,-3.55,5.46
10.278791189193726,1.6,3.78,-3.44,5.35
10.288490295410156,1.72,3.39,-2.8,4.72
10.298400163650513,2.02,2.91,-2.19,4.16
10.311599254608154,2.28,2.54,-1.72,3.82
10.317930221557617,2.36,2.47,-1.38,3.68
10.32878303527832,2.38,2.37,-0.99,3.5
10.338318109512329,2.4,1.96,-0.64,3.16
10.34834909439087,2.3,1.37,-0.46,2.71
10.36103105545044,2.08,0.74,-0.35,2.23
10.367733001708984,1.68,0.06,-0.15,1.68
10.37886118888855,1.16,-0.63,0.02,1.32
10.388442039489746,0.56,-1.34,0.18,1.46
10.39812421798706,-0.08,-2.06,0.14,2.06
10.411240100860596,-0.48,-2.82,0.06,2.86
10.418612957000732,-0.72,-3.46,0.02,3.53
10.428658962249756,-0.79,-4.01,0.19,4.09
10.439218997955322,-0.65,-4.63,0.42,4.69
10.448220252990723,-0.31,-5.05,0.32,5.06
10.461580276489258,-0.61,-5.57,0.41,5.61
10.468698978424072,-0.21,-5.72,0.74,5.77
10.47928524017334,0.33,-5.77,0.47,5.79
10.488434076309204,0.47,-5.68,0.42,5.71
10.498468160629272,0.59,-5.45,0.76,5.53
10.510675191879272,0.61,-5.24,0.92,5.35
10.517767190933228,0.63,-4.88,0.82,4.98
10.528390169143677,0.56,-4.35,0.78,4.45
10.53830099105835,0.46,-3.72,0.98,3.87
10.548295974731445,0.42,-3.1,1.26,3.37
10.56148910522461,0.43,-2.57,1.41,2.96
10.568737983703613,0.59,-2.09,1.28,2.52
10.57860803604126,0.72,-1.61,1.08,2.06
10.590553283691406,0.86,-1.04,0.96,1.65
10.59864616394043,0.97,-0.37,0.91,1.38
10.611120223999023,0.94,-0.09,0.82,1.25
10.61797308921814,0.84,0.28,0.59,1.06
10.628520011901855,0.53,0.62,0.32,0.87
10.638326168060303,0.33,0.65,0.09,0.73
10.648115158081055,0.46,0.76,-0.04,0.88
10.659882068634033,0.57,1.3,-0.17,1.42
10.667793273925781,0.75,2.2,0.13,2.32
10.678540229797363,1.03,3.44,0.92,3.7
10.688691139221191,1.27,4.62,1.33,4.97
10.698140144348145,1.04,5.66,1.35,5.91
10.711616039276123,0.51,6.86,1.04,6.95
10.718316078186035,-0.21,7.82,0.62,7.84
10.728402137756348,-0.8,8.13,-0.15,8.17
10.738579273223877,-1.63,6.64,-1.64,7.03
10.74819803237915,-2.35,4.22,-2.57,5.47
10.760910987854004,-2.33,3.31,-2.35,4.68
10.76847219467163,-2.11,3.56,-1.63,4.44
10.778762102127075,-2.08,3.53,-1.49,4.35
10.788809299468994,-1.99,2.88,-1.62,3.85
10.798927307128906,-1.84,2.21,-1.43,3.21
10.811284065246582,-1.69,1.82,-1.09,2.71
10.817941188812256,-1.56,1.63,-0.88,2.42
10.828741073608398,-1.6,1.43,-0.91,2.33
10.838809967041016,-1.64,1.24,-1.0,2.28
10.848173141479492,-1.56,1.02,-0.87,2.05
10.862065076828003,-1.37,0.71,-0.51,1.62
10.868430137634277,-1.13,0.35,-0.24,1.2
10.87901496887207,-0.81,-0.17,-0.14,0.83
10.888468265533447,-0.42,-0.89,-0.03,0.98
10.898483276367188,-0.04,-1.66,0.09,1.66
10.91185998916626,0.35,-2.45,0.15,2.47
10.917801141738892,0.82,-3.28,0.16,3.38
10.92868709564209,1.19,-4.06,0.2,4.23
10.938545227050781,1.38,-4.74,0.31,4.94
10.94844913482666,1.45,-5.15,0.52,5.37
10.962421178817749,1.43,-5.39,0.33,5.58
10.96943998336792,1.07,-5.39,0.33,5.5
10.978828191757202,0.5,-5.46,0.73,5.53
10.988515138626099,0.36,-5.45,0.9,5.53
10.998379230499268,0.26,-5.37,0.9,5.45
11.01223611831665,0.04,-5.22,0.99,5.31
11.017885208129883,-0.04,-4.95,1.07,5.06
11.028919219970703,-0.07,-4.53,1.11,4.66
11.038502216339111,-0.09,-4.03,1.27,4.22
11.048420190811157,-0.19,-3.43,1.37,3.69
11.061806201934814,-0.29,-2.72,1.35,3.05
11.067867279052734,-0.31,-1.99,1.33,2.41
11.078957080841064,-0.43,-1.2,1.42,1.9
11.088685989379883,-0.51,-0.53,1.39,1.57
11.098304271697998,-0.73,0.14,1.24,1.44
11.112575054168701,-1.06,0.71,0.96,1.59
11.117908000946045,-1.06,1.21,0.46,1.67
11.128769159317017,-1.08,1.66,0.29,2.0
11.138619184494019,-1.01,1.83,0.68,2.19
11.148344039916992,-0.86,1.78,1.03,2.22
11.162410259246826,-0.77,1.69,1.1,2.15
11.167980194091797,-0.75,2.05,0.77,2.31
11.178711175918579,-0.83,2.76,0.69,2.96
11.18882703781128,-0.87,3.61,1.45,3.98
11.198362112045288,-0.94,4.68,1.89,5.13
11.212696075439453,-1.23,6.15,1.6,6.47
11.21806526184082,-1.25,7.91,0.86,8.05
11.22881031036377,-1.01,8.75,-0.37,8.81
11.238704204559326,-0.5,7.79,-2.15,8.09
11.248434066772461,0.52,5.73,-3.49,6.72
11.263054132461548,1.27,4.22,-3.58,5.67
11.268145084381104,1.29,3.68,-3.56,5.28
11.278979301452637,1.21,3.2,-3.49,4.88
11.288698196411133,1.3,2.52,-2.82,3.99
11.298485279083252,1.59,1.85,-2.08,3.2
11.312812089920044,1.72,1.56,-1.64,2.84
11.318067073822021,1.81,1.8,-1.27,2.85
11.328827142715454,1.82,2.13,-0.89,2.93
11.338731288909912,1.82,2.04,-0.69,2.81
11.34810209274292,1.68,1.62,-0.62,2.41
11.363258123397827,1.45,1.05,-0.52,1.86
11.368123054504395,1.19,0.35,-0.23,1.26
11.377995014190674,0.81,-0.38,-0.12,0.9
11.389289140701294,0.31,-1.07,-0.12,1.12
11.398307085037231,-0.14,-1.78,-0.11,1.78
11.41251802444458,-0.54,-2.56,-0.15,2.62
11.418116092681885,-0.76,-3.21,-0.07,3.29
11.428887128829956,-0.8,-3.82,0.14,3.9
11.439453125,-0.74,-4.35,0.29,4.42
11.448276042938232,-0.64,-4.71,0.4,4.77
11.462786197662354,-0.43,-5.16,0.47,5.19
11.468109130859375,-0.1,-5.33,0.38,5.34
11.478901147842407,0.23,-5.33,0.14,5.33
11.48923110961914,0.38,-5.35,0.23,5.36
11.49849796295166,0.39,-5.37,0.53,5.41
11.51363229751587,0.44,-5.25,0.71,5.31
11.5181303024292,0.38,-4.89,0.86,4.97
11.528939247131348,0.28,-4.37,0.98,4.48
11.539192199707031,0.29,-3.88,1.14,4.05
11.54852819442749,0.33,-3.43,1.12,3.62
11.563538074493408,0.37,-2.95,1.18,3.19
11.568136215209961,0.45,-2.46,1.29,2.81
11.578779220581055,0.43,-2.05,1.32,2.47
11.589509963989258,0.66,-1.61,1.3,2.17
11.598449230194092,0.66,-1.26,1.11,1.8
11.613413095474243,0.62,-1.02,0.87,1.47
11.61814022064209,0.78,-0.8,0.89,1.42
11.628947257995605,0.75,-0.5,0.83,1.22
11.63981318473816,0.6,-0.24,0.56,0.85
11.648444175720215,0.61,-0.18,0.45,0.77
11.663259983062744,0.64,0.41,0.36,0.84
11.668083190917969,0.82,1.29,0.05,1.52
11.678709030151367,1.14,2.25,0.83,2.65
11.689826011657715,1.29,3.5,1.77,4.12
11.698711156845093,1.15,5.0,1.73,5.41
11.713857173919678,0.76,6.43,1.66,6.68
11.718217134475708,0.08,7.76,1.45,7.89
11.72894811630249,-0.68,8.67,0.43,8.7
11.740185260772705,-1.43,7.69,-1.62,7.98
11.748768091201782,-1.95,5.12,-3.02,6.25
11.763514995574951,-2.01,4.28,-1.97,5.12
11.768193244934082,-2.1,4.81,-0.99,5.34
11.779077053070068,-2.26,4.69,-1.55,5.43
11.78986120223999,-2.11,3.69,-1.8,4.61
11.798632144927979,-1.79,2.7,-1.48,3.56
11.813843250274658,-1.58,2.15,-1.17,2.91
11.81824517250061,-1.59,1.82,-1.09,2.65
11.829071044921875,-1.75,1.53,-1.16,2.59
11.840212106704712,-1.86,1.06,-1.06,2.38
11.848828077316284,-1.77,0.49,-0.66,1.95
11.864846229553223,-1.65,0.16,-0.35,1.69
11.868831157684326,-1.44,-0.05,-0.3,1.47
11.878880977630615,-1.06,-0.48,-0.26,1.19
11.890351295471191,-0.66,-0.99,-0.06,1.19
11.898820161819458,-0.15,-1.46,0.18,1.47
11.91445016860962,0.36,-2.02,0.27,2.06
11.918792247772217,0.79,-2.66,0.24,2.78
11.929005146026611,1.15,-3.38,0.29,3.58
11.940369129180908,1.33,-4.0,0.4,4.23
11.948835134506226,1.39,-4.54,0.47,4.77
11.963464260101318,1.21,-4.94,0.33,5.09
11.96840214729309,0.97,-5.29,0.29,5.38
11.978913307189941,0.79,-5.48,0.38,5.54
11.990377187728882,0.52,-5.51,0.61,5.56
11.998733043670654,0.23,-5.42,0.72,5.47
12.015164136886597,0.12,-5.24,0.69,5.28
12.01820707321167,0.02,-4.98,0.79,5.04
12.028961181640625,0.01,-4.56,0.92,4.65
12.040657997131348,-0.04,-3.99,1.11,4.14
12.048840045928955,-0.17,-3.38,1.27,3.61
12.064457178115845,-0.2,-2.84,1.41,3.17
12.06820011138916,-0.27,-2.27,1.49,2.72
12.07882022857666,-0.46,-1.64,1.42,2.21
12.088860034942627,-0.61,-1.01,1.19,1.67
12.102153301239014,-0.76,-0.46,1.02,1.35
12.108172178268433,-0.73,-0.07,0.67,0.99
12.118216037750244,-0.84,0.49,0.44,1.06
12.128886222839355,-0.81,1.04,0.24,1.33
12.13844919204712,-0.91,1.54,0.34,1.82
12.151755094528198,-0.93,1.79,0.59,2.1
12.158221244812012,-0.82,1.69,0.76,2.02
12.168889045715332,-0.79,1.9,0.77,2.19
12.178788185119629,-0.82,2.61,0.8,2.85
12.188809156417847,-0.81,3.6,1.48,3.97
12.202644109725952,-0.85,4.7,2.18,5.25
12.208280086517334,-0.97,6.25,1.96,6.62
12.218276977539062,-1.16,8.21,0.97,8.34
12.228943109512329,-1.09,8.93,-0.32,9.0
12.238964080810547,-0.59,7.95,-2.06,8.23
12.252353191375732,0.27,5.88,-3.61,6.9
12.25819206237793,1.22,4.66,-3.71,6.08
12.268249988555908,1.28,4.47,-3.5,5.81
12.279033184051514,1.21,4.13,-3.27,5.4
12.288656234741211,1.35,3.2,-2.7,4.39
12.302103996276855,1.68,2.23,-2.21,3.56
12.308255195617676,1.86,1.92,-1.68,3.15
12.318274021148682,1.98,2.05,-1.14,3.06
12.328870296478271,1.95,2.05,-0.8,2.94
12.338589191436768,1.85,1.67,-0.78,2.61
12.352296113967896,1.8,1.12,-0.86,2.28
12.358249187469482,1.58,0.55,-0.59,1.77
12.369006156921387,1.25,-0.1,-0.2,1.26
12.378982067108154,0.89,-0.88,0.0,1.25
12.388779163360596,0.46,-1.68,0.0,1.74
12.40196704864502,-0.02,-2.38,0.04,2.38
12.408377170562744,-0.42,-2.99,0.18,3.02
12.418968200683594,-0.65,-3.6,0.28,3.66
12.428882122039795,-0.86,-4.19,0.32,4.28
12.438879013061523,-0.93,-4.6,0.39,4.7
12.45343017578125,-0.84,-4.87,0.46,4.96
12.458442211151123,-0.76,-5.1,0.57,5.18
12.469037055969238,-0.51,-5.2,0.64,5.26
12.479016304016113,-0.17,-5.26,0.55,5.29
12.489011287689209,0.04,-5.23,0.66,5.27
12.50282907485962,0.25,-5.05,0.81,5.12
12.508474111557007,0.35,-4.85,0.91,4.94
12.51842212677002,0.38,-4.55,0.98,4.66
12.52907419204712,0.36,-4.12,1.06,4.26
12.53920316696167,0.42,-3.7,1.23,3.92
12.552257061004639,0.46,-3.33,1.3,3.6
12.558302164077759,0.46,-2.95,1.23,3.22
12.56909704208374,0.48,-2.54,1.28,2.88
12.579047203063965,0.54,-2.1,1.34,2.54
12.589003086090088,0.56,-1.6,1.27,2.11
12.602822303771973,0.62,-1.07,1.12,1.66
12.608524084091187,0.76,-0.49,0.94,1.3
12.619087219238281,0.75,-0.11,0.59,0.96
12.629014015197754,0.64,0.09,0.25,0.69
12.63904619216919,0.49,0.25,0.09,0.55
12.653334140777588,0.45,0.4,0.05,0.6
12.658396244049072,0.57,0.77,-0.16,0.97
12.668991088867188,0.69,1.59,-0.43,1.78
12.679041147232056,0.9,2.91,0.48,3.08
12.68903923034668,0.98,4.69,1.85,5.13
12.70288896560669,0.84,6.5,1.94,6.83
12.708389282226562,0.53,8.29,1.33,8.41
12.719019174575806,-0.27,9.66,0.58,9.68
12.728905200958252,-1.03,9.04,-1.45,9.21
12.739045143127441,-1.65,6.91,-3.57,7.95
12.753288269042969,-2.05,5.37,-3.47,6.71
12.758455276489258,-2.14,5.61,-2.04,6.34
12.769296169281006,-2.31,5.42,-1.62,6.11
12.77903699874878,-2.33,4.28,-2.08,5.29
12.788962125778198,-2.34,2.93,-2.1,4.29
12.803002119064331,-2.19,1.83,-1.52,3.23
12.808433055877686,-2.04,1.14,-0.9,2.5
12.819030284881592,-2.03,0.67,-0.62,2.22
12.82887315750122,-1.88,0.3,-0.62,2.0
12.838756084442139,-1.47,0.13,-0.49,1.55
12.852804183959961,-1.22,0.0,-0.15,1.22
12.858382225036621,-0.93,-0.27,-0.03,0.96
12.868303298950195,-0.68,-0.67,-0.15,0.96
12.879042148590088,-0.43,-1.14,-0.3,1.25
12.889015197753906,-0.06,-1.72,-0.35,1.75
12.902225971221924,0.31,-2.31,-0.26,2.34
12.90841817855835,0.62,-2.93,-0.07,2.99
12.919186115264893,0.91,-3.54,0.13,3.65
12.929068088531494,1.17,-4.14,0.32,4.31
12.939097166061401,1.21,-4.64,0.36,4.8
12.953339099884033,1.12,-5.01,0.32,5.14
12.958477020263672,0.94,-5.26,0.37,5.35
12.969004154205322,0.7,-5.26,0.5,5.32
12.979104995727539,0.47,-5.21,0.62,5.26
12.98895812034607,0.28,-5.15,0.76,5.21
13.002519130706787,0.08,-5.0,0.89,5.07
13.008437156677246,-0.03,-4.74,0.91,4.82
13.019143104553223,-0.15,-4.37,0.93,4.47
13.029102087020874,-0.24,-3.93,1.14,4.09
13.038977146148682,-0.32,-3.4,1.4,3.69
13.053208112716675,-0.46,-2.81,1.45,3.19
13.05839729309082,-0.5,-2.23,1.41,2.68
13.069176197052002,-0.69,-1.6,1.33,2.19
13.079185009002686,-0.78,-0.9,1.39,1.83
13.088912010192871,-0.9,-0.37,1.53,1.81
13.10350513458252,-0.94,-0.02,1.59,1.84
13.108582019805908,-0.83,0.14,1.39,1.62
13.119182109832764,-0.81,0.34,0.96,1.3
13.129123210906982,-0.76,0.58,0.67,1.16
13.139122009277344,-0.63,0.92,0.72,1.32
13.153036117553711,-0.71,1.33,1.04,1.83
13.158370971679688,-0.72,1.61,1.22,2.14
13.169141292572021,-0.59,2.08,0.94,2.35
13.179151058197021,-0.56,3.04,0.86,3.2
13.189064979553223,-0.61,4.24,1.69,4.6
13.203758239746094,-0.78,5.53,2.14,5.98
13.208546161651611,-0.95,7.23,1.46,7.43
13.219144105911255,-1.02,8.81,0.42,8.87
13.229056119918823,-0.7,8.68,-0.99,8.76
13.23917818069458,-0.02,6.69,-2.93,7.3
13.253951072692871,0.96,5.08,-4.01,6.54
13.258545160293579,1.32,4.67,-4.0,6.28
13.269222259521484,1.23,4.49,-3.8,6.0
13.279081106185913,1.09,3.87,-3.46,5.3
13.288686275482178,1.29,2.99,-3.03,4.44
13.301834106445312,1.59,2.16,-2.36,3.57
13.308596134185791,1.75,1.73,-1.56,2.91
13.319310188293457,1.82,1.69,-1.03,2.68
13.329153060913086,1.84,1.48,-0.86,2.51
13.339275121688843,1.77,1.1,-0.92,2.27
13.353074073791504,1.69,0.73,-0.72,1.97
13.358683109283447,1.44,0.33,-0.27,1.5
13.369306087493896,1.04,-0.26,0.04,1.07
13.379033088684082,0.57,-0.92,-0.01,1.08
13.389125108718872,0.07,-1.54,-0.02,1.54
13.403892993927002,-0.37,-2.12,0.04,2.15
13.408790111541748,-0.63,-2.74,0.07,2.81
13.41955018043518,-0.71,-3.24,0.2,3.32
13.429148197174072,-0.71,-3.7,0.38,3.78
13.439083099365234,-0.52,-4.13,0.39,4.18
13.455276012420654,-0.34,-4.42,0.38,4.44
13.458808183670044,-0.2,-4.61,0.42,4.63
13.468685150146484,0.01,-4.72,0.49,4.74
13.479178190231323,0.28,-4.82,0.55,4.85
13.489180088043213,0.34,-4.85,0.68,4.9
13.50358510017395,0.32,-4.81,0.81,4.88
13.50900411605835,0.27,-4.68,0.88,4.76
13.519395112991333,0.24,-4.5,0.81,4.57
13.529160022735596,0.2,-4.26,0.86,4.35
13.539282083511353,0.17,-3.95,1.02,4.08
13.554043292999268,0.1,-3.54,1.04,3.69
13.558982133865356,0.22,-3.12,0.98,3.27
13.569534301757812,0.35,-2.76,1.03,2.96
13.57918405532837,0.42,-2.35,1.12,2.63
13.589101076126099,0.51,-1.95,1.06,2.27
13.604345083236694,0.58,-1.5,0.83,1.8
13.609158039093018,0.62,-1.0,0.63,1.33
13.619584083557129,0.53,-0.46,0.51,0.86
13.629154205322266,0.34,-0.11,0.43,0.55
13.638986110687256,0.32,0.05,0.3,0.44
13.65446424484253,0.38,0.13,-0.3,0.5
13.659136295318604,0.38,0.59,-1.06,1.27
13.669617176055908,0.41,1.76,-0.54,1.88
13.679323196411133,0.58,3.24,1.15,3.48
13.689243078231812,0.67,4.65,1.87,5.05
13.704854011535645,0.72,6.2,1.25,6.36
13.709393978118896,0.3,7.85,1.13,7.93
13.719470977783203,-0.33,8.97,0.97,9.02
13.729193210601807,-0.7,8.51,-0.87,8.58
13.739264965057373,-0.84,7.0,-3.43,7.84
13.754569053649902,-1.34,5.83,-3.9,7.14
13.758596181869507,-1.98,5.44,-2.6,6.34
13.769603252410889,-2.14,4.86,-1.9,5.63
13.779330253601074,-2.2,3.52,-2.51,4.85
13.789157152175903,-1.97,2.21,-2.55,3.9
13.804644107818604,-1.75,1.38,-1.56,2.72
13.808681964874268,-1.73,0.85,-0.56,2.0
13.819591999053955,-1.71,0.63,-0.41,1.86
13.829320192337036,-1.65,0.43,-0.79,1.87
13.839198112487793,-1.33,0.7,-0.53,1.59
13.853962182998657,-1.05,0.88,0.26,1.39
13.858626127243042,-0.8,0.61,0.46,1.1
13.86936616897583,-0.64,0.35,-0.18,0.75
13.879127979278564,-0.56,0.02,-0.85,1.01
13.889316082000732,-0.37,-0.54,-0.98,1.17
13.904157161712646,-0.03,-1.36,-0.66,1.51
13.908658027648926,0.35,-2.25,-0.26,2.29
13.91967511177063,0.72,-3.05,0.16,3.13
13.929139137268066,0.95,-3.66,0.26,3.79
13.9394371509552,1.18,-4.17,0.06,4.33
13.955166101455688,1.17,-4.46,0.03,4.61
13.958690166473389,0.55,-4.84,0.36,4.88
13.969703197479248,0.2,-5.17,0.66,5.21
13.979252099990845,-0.24,-5.34,0.96,5.43
13.989204168319702,-0.25,-5.35,0.95,5.43
14.005062103271484,0.09,-5.2,0.72,5.25
14.008687019348145,-0.21,-4.95,0.68,5.0
14.019659042358398,-0.34,-4.67,0.87,4.76
14.029158115386963,-0.05,-4.4,1.08,4.53
14.039319038391113,0.0,-3.98,1.24,4.16
14.055015087127686,-0.09,-3.53,1.48,3.82
14.05866813659668,-0.13,-3.09,1.68,3.51
14.069614171981812,-0.19,-2.58,1.63,3.05
14.079271078109741,-0.29,-2.08,1.5,2.58
14.089270114898682,-0.24,-1.61,1.49,2.2
14.103312015533447,-0.35,-1.12,1.35,1.78
14.108687162399292,-0.43,-0.58,1.18,1.38
14.119647979736328,-0.65,0.13,1.11,1.29
14.129311084747314,-0.57,0.73,1.02,1.37
14.139385223388672,-0.61,1.18,0.99,1.65
14.154495239257812,-0.48,1.37,1.16,1.85
14.158717155456543,-0.29,1.18,1.4,1.85
14.169506072998047,-0.22,1.48,1.38,2.03
14.17926025390625,-0.35,2.29,1.07,2.55
14.189654111862183,-0.44,3.43,1.26,3.68
14.203824996948242,-0.54,4.48,2.2,5.02
14.208567142486572,-0.71,5.87,2.21,6.31
14.21944522857666,-1.07,7.27,1.38,7.47
14.229340076446533,-1.01,8.06,0.04,8.12
14.23935604095459,-0.56,7.34,-1.77,7.57
14.252684116363525,0.17,6.07,-3.04,6.79
14.258648157119751,1.07,4.95,-3.56,6.19
14.269467115402222,1.56,4.14,-3.82,5.84
14.279186248779297,1.59,3.64,-3.45,5.26
14.289445161819458,1.49,3.25,-2.7,4.48
14.303346157073975,1.31,2.76,-2.39,3.87
14.308649063110352,1.34,2.29,-2.03,3.34
14.318807125091553,1.42,2.01,-1.43,2.84
14.329524040222168,1.41,1.99,-1.04,2.65
14.33935022354126,1.34,1.95,-0.96,2.55
14.352772235870361,1.26,1.67,-0.89,2.27
14.358644962310791,1.2,1.22,-0.63,1.82
14.36947512626648,1.08,0.6,-0.27,1.26
14.379191160202026,0.75,-0.12,-0.1,0.76
14.389509201049805,0.29,-0.82,-0.06,0.87
14.402981281280518,-0.23,-1.54,-0.1,1.56
14.408676147460938,-0.67,-2.22,-0.12,2.32
14.418859958648682,-0.96,-2.85,-0.14,3.01
14.42936110496521,-1.06,-3.46,-0.06,3.61
14.439345121383667,-1.16,-4.04,0.14,4.2
14.45252013206482,-1.1,-4.49,0.34,4.63
14.458746194839478,-0.88,-4.9,0.44,4.99
14.468850135803223,-0.57,-5.06,0.32,5.1
14.479654312133789,-0.23,-5.05,0.22,5.06
14.489160060882568,-0.06,-5.01,0.39,5.02
14.501163005828857,0.13,-5.04,0.54,5.07
14.508671283721924,0.2,-5.01,0.61,5.05
14.518747091293335,0.18,-4.83,0.76,4.89
14.529388189315796,0.18,-4.54,0.88,4.62
14.539242267608643,0.18,-4.13,1.0,4.25
14.552208185195923,0.2,-3.61,1.06,3.76
14.558695077896118,0.3,-3.09,1.05,3.27
14.569451093673706,0.38,-2.59,1.08,2.83
14.579113006591797,0.48,-2.1,1.08,2.4
14.589866161346436,0.65,-1.59,0.98,1.97
14.602977275848389,0.67,-1.14,0.82,1.55
14.608683109283447,0.68,-0.73,0.64,1.18
14.619266033172607,0.75,-0.31,0.29,0.86
14.629199981689453,0.76,0.15,0.17,0.79
14.639374256134033,0.62,0.61,0.08,0.87
14.652721166610718,0.5,0.87,0.03,1.0
14.658619165420532,0.53,0.92,0.24,1.08
14.669201135635376,0.61,1.24,0.23,1.4
14.679124116897583,0.81,1.87,0.26,2.05
14.689365148544312,1.16,2.89,1.03,3.28
14.70171308517456,1.32,4.36,1.79,4.89
14.708637237548828,1.28,5.86,2.09,6.35
14.719239234924316,1.02,7.24,1.77,7.52
14.729544162750244,0.56,8.31,0.97,8.38
14.73941707611084,0.03,7.78,-0.88,7.82
14.753855228424072,-0.98,5.75,-3.09,6.6
14.7587251663208,-1.9,4.21,-3.44,5.75
14.769626140594482,-1.61,4.41,-2.11,5.14
14.7797532081604,-1.74,4.77,-1.31,5.24
14.789671182632446,-1.94,4.1,-1.64,4.82
14.804232120513916,-1.85,3.02,-1.92,4.02
14.808809280395508,-1.83,2.3,-1.48,3.29
14.819392204284668,-1.84,1.87,-1.13,2.85
14.829674243927002,-1.83,1.56,-1.06,2.62
14.839348077774048,-1.74,1.28,-0.98,2.37
14.852773189544678,-1.52,0.87,-0.79,1.92
14.858798027038574,-1.22,0.41,-0.39,1.34
14.871066093444824,-1.05,0.08,-0.12,1.05
14.880513191223145,-0.81,-0.27,-0.09,0.85
14.89064908027649,-0.51,-0.79,-0.06,0.94
14.905125141143799,-0.18,-1.37,-0.01,1.38
14.910269260406494,0.21,-1.98,0.09,1.99
14.920700073242188,0.54,-2.61,0.09,2.66
14.9306161403656,0.82,-3.26,-0.04,3.36
14.941123962402344,0.98,-3.88,-0.07,4.0
14.955024242401123,1.06,-4.39,0.02,4.51
14.959959983825684,0.97,-4.76,0.04,4.85
14.970690250396729,0.75,-5.04,0.04,5.09
14.980545997619629,0.54,-5.15,0.13,5.17
14.990660190582275,0.38,-5.1,0.24,5.11
15.005849123001099,0.18,-5.0,0.33,5.01
15.010228157043457,-0.04,-4.92,0.41,4.93
15.020899295806885,-0.09,-4.85,0.49,4.87
15.030647277832031,-0.22,-4.69,0.67,4.74
15.04092025756836,-0.08,-4.32,0.7,4.37
15.057059288024902,-0.18,-3.91,0.84,4.0
15.060305118560791,-0.32,-3.54,1.11,3.72
15.071120262145996,-0.36,-3.2,1.3,3.47
15.08070421218872,-0.43,-2.82,1.43,3.19
15.090867042541504,-0.51,-2.34,1.43,2.78
15.107057094573975,-0.58,-1.71,1.4,2.28
15.110263109207153,-0.43,-1.13,1.31,1.78
15.121029138565063,-0.46,-0.56,1.12,1.33
15.130689144134521,-0.4,0.03,1.06,1.13
15.140884160995483,-0.41,0.58,1.02,1.24
15.155677080154419,-0.29,0.98,0.82,1.31
15.160986185073853,-0.27,1.32,0.84,1.58
15.17079210281372,-0.12,1.64,1.16,2.01
15.180691242218018,0.0,1.97,1.42,2.42
15.19095516204834,-0.26,2.78,1.69,3.26
15.20565915107727,-0.62,3.83,1.69,4.23
15.210281133651733,-0.71,4.8,2.03,5.25
15.221115112304688,-0.97,5.94,2.55,6.53
15.230863094329834,-1.07,7.13,2.24,7.54
15.240983009338379,-0.9,7.73,0.8,7.82
15.25596308708191,-0.45,7.43,-0.82,7.48
15.260254144668579,0.05,6.67,-2.15,7.0
15.271026134490967,0.73,5.53,-3.14,6.4
15.280850172042847,1.36,4.64,-3.39,5.9
15.29118013381958,1.64,4.03,-2.86,5.2
15.30637812614441,1.58,3.33,-2.41,4.4
15.31023907661438,1.69,2.81,-2.15,3.92
15.321282148361206,1.8,2.47,-1.97,3.63
15.331237077713013,1.89,2.29,-1.73,3.43
15.341210126876831,1.91,2.24,-1.3,3.21
15.354207038879395,1.91,1.98,-1.02,2.93
15.360270023345947,1.99,1.42,-0.94,2.61
15.370297193527222,2.04,0.74,-0.72,2.28
15.381447076797485,1.88,0.11,-0.41,1.92
15.390997171401978,1.46,-0.33,-0.13,1.5
15.404608249664307,0.89,-0.71,0.08,1.14
15.410301208496094,0.38,-1.24,0.14,1.3
15.420929193496704,-0.11,-1.92,0.07,1.92
15.431114196777344,-0.57,-2.64,-0.02,2.7
15.440746307373047,-0.82,-3.3,0.07,3.4
15.45504903793335,-1.02,-3.99,0.18,4.12
15.46062707901001,-1.18,-4.49,0.24,4.64
15.47098708152771,-1.15,-4.97,0.25,5.1
15.481334209442139,-0.97,-5.26,0.21,5.35
15.490960121154785,-0.81,-5.49,0.2,5.55
15.505503177642822,-0.47,-5.63,0.17,5.65
15.510494232177734,-0.18,-5.74,0.29,5.75
15.521014213562012,0.08,-5.64,0.49,5.66
15.531475067138672,0.17,-5.4,0.61,5.43
15.54083514213562,0.27,-5.06,0.76,5.12
15.555246114730835,0.33,-4.61,0.93,4.71
15.560306072235107,0.33,-4.13,1.1,4.28
15.570772171020508,0.33,-3.66,1.3,3.89
15.58132028579712,0.31,-3.15,1.42,3.46
15.591116189956665,0.23,-2.65,1.39,3.0
15.606017112731934,0.17,-2.15,1.26,2.49
15.610314130783081,0.17,-1.6,1.02,1.9
15.620337009429932,0.27,-1.01,0.95,1.41
15.631827116012573,0.44,-0.44,0.91,1.1
15.640680313110352,0.4,0.17,0.93,1.02
15.654736042022705,0.42,0.85,0.79,1.23
15.660080194473267,0.36,1.16,0.54,1.32
15.670334100723267,0.46,1.24,0.39,1.37
15.682032108306885,0.52,1.42,0.56,1.61
15.690786123275757,0.6,1.89,0.67,2.09
15.705317974090576,0.7,2.76,0.35,2.86
15.711102962493896,0.91,3.98,0.53,4.11
15.720818042755127,0.91,5.37,1.23,5.58
15.73205018043518,0.91,6.77,1.68,7.03
15.741182088851929,0.59,7.72,1.21,7.83
15.758042097091675,0.22,8.15,0.08,8.15
15.760404109954834,-0.28,7.47,-1.61,7.64
15.771173000335693,-1.16,5.56,-3.0,6.42
15.781781196594238,-1.9,4.21,-3.02,5.51
15.791126251220703,-1.8,4.41,-2.37,5.32
15.808196067810059,-2.04,4.5,-1.98,5.32
15.810317039489746,-2.04,4.02,-1.85,4.87
15.821162223815918,-1.93,3.12,-1.66,4.02
15.832350254058838,-1.89,2.28,-1.24,3.21
15.841281175613403,-1.83,1.78,-0.93,2.71
15.855253219604492,-1.69,1.48,-0.73,2.36
15.860430240631104,-1.65,1.14,-0.56,2.08
15.87131118774414,-1.51,0.73,-0.31,1.7
15.882201194763184,-1.36,0.37,-0.18,1.42
15.89110016822815,-1.2,-0.01,-0.13,1.2
15.907299041748047,-1.0,-0.52,-0.11,1.13
15.910605192184448,-0.84,-1.09,0.06,1.37
15.921087265014648,-0.57,-1.79,0.04,1.87
15.932905197143555,-0.42,-2.4,0.02,2.43
15.941411972045898,-0.22,-3.06,-0.02,3.06
15.958141088485718,0.05,-3.7,0.17,3.7
15.960503101348877,0.33,-4.24,0.34,4.26
15.970965147018433,0.39,-4.74,0.54,4.78
15.982425212860107,0.37,-5.02,0.52,5.06
15.99130916595459,0.34,-5.15,0.41,5.17
16.00534200668335,0.22,-5.19,0.41,5.21
16.010271072387695,0.15,-5.14,0.49,5.16
16.020355224609375,0.03,-5.02,0.49,5.04
16.032560110092163,-0.16,-5.03,0.56,5.06
16.041004180908203,-0.24,-4.92,0.7,4.97
16.055469036102295,-0.27,-4.53,0.87,4.62
16.060482025146484,-0.37,-4.04,0.93,4.16
16.070386171340942,-0.34,-3.46,1.06,3.63
16.08279514312744,-0.36,-2.86,1.38,3.19
16.09099531173706,-0.36,-2.19,1.55,2.7
16.105521202087402,-0.36,-1.52,1.63,2.25
16.110419273376465,-0.4,-0.89,1.64,1.9
16.121121168136597,-0.48,-0.3,1.42,1.52
16.130759239196777,-0.59,0.1,1.1,1.25
16.141285181045532,-0.61,0.34,0.66,0.96
16.15529727935791,-0.56,0.56,0.38,0.87
16.160377025604248,-0.51,0.81,0.44,1.05
16.170477151870728,-0.43,0.99,0.77,1.32
16.181238174438477,-0.39,1.24,1.26,1.81
16.190970182418823,-0.11,1.56,1.6,2.23
16.205523014068604,0.0,2.23,1.48,2.67
16.210500240325928,-0.11,3.28,1.31,3.53
16.22121000289917,-0.2,4.59,1.51,4.83
16.231258153915405,-0.35,6.01,1.81,6.28
16.241119146347046,-0.49,7.42,1.53,7.59
16.256453037261963,-0.5,8.29,0.28,8.3
16.260497093200684,-0.36,7.81,-1.41,7.94
16.271279096603394,0.1,6.41,-2.81,6.99
16.281458139419556,0.75,5.23,-3.26,6.2
16.291260242462158,1.22,4.46,-3.39,5.73
16.306506156921387,1.4,3.87,-3.41,5.34
16.31048607826233,1.51,3.32,-2.92,4.67
16.320577144622803,1.74,2.71,-2.23,3.91
16.33136510848999,2.04,2.17,-1.76,3.45
16.341434001922607,2.22,1.99,-1.35,3.27
16.356221199035645,2.26,1.98,-0.93,3.14
16.360455989837646,2.33,1.75,-0.78,3.01
16.370556116104126,2.31,1.3,-0.61,2.71
16.38120126724243,2.17,0.65,-0.28,2.28
16.391016006469727,1.91,0.01,-0.12,1.91
16.40589213371277,1.37,-0.65,-0.07,1.51
16.410552978515625,0.86,-1.46,0.06,1.69
16.421151161193848,0.39,-2.3,0.25,2.34
16.43096113204956,-0.03,-2.99,0.3,3.0
16.441096305847168,-0.31,-3.6,0.24,3.62
16.457810163497925,-0.39,-4.11,0.42,4.14
16.460779190063477,-0.56,-4.56,0.62,4.63
16.470975160598755,-0.6,-4.97,0.62,5.04
16.481045246124268,-0.24,-5.27,0.52,5.3
16.49124002456665,-0.09,-5.48,0.12,5.48
16.5091872215271,-0.56,-5.62,0.38,5.66
16.510560989379883,0.03,-5.65,0.76,5.7
16.521128177642822,0.19,-5.59,0.69,5.63
16.53092622756958,0.14,-5.36,0.74,5.41
16.541190147399902,0.19,-5.05,0.93,5.13
16.556894302368164,0.11,-4.64,1.1,4.76
16.560301303863525,0.04,-4.12,1.23,4.29
16.57019019126892,0.01,-3.55,1.21,3.75
16.581525087356567,-0.08,-2.94,1.15,3.15
16.590269088745117,-0.18,-2.45,1.21,2.73
16.604490280151367,-0.16,-2.1,1.2,2.42
16.610804080963135,-0.02,-1.66,1.09,1.98
16.621095180511475,0.19,-1.1,0.89,1.42
16.63101816177368,0.37,-0.31,0.59,0.76
16.640966176986694,0.68,0.72,0.5,1.1
16.659144163131714,0.65,1.32,0.34,1.51
16.66071915626526,0.69,1.54,0.02,1.68
16.671119213104248,0.65,1.29,-0.2,1.45
16.681039094924927,0.68,1.34,-0.17,1.51
16.691182136535645,0.79,2.11,-0.06,2.25
16.709187030792236,0.93,3.16,0.34,3.31
16.71053409576416,1.16,4.5,0.91,4.73
16.721086025238037,1.1,5.89,1.58,6.19
16.731046199798584,0.62,7.25,1.73,7.47
16.741242170333862,0.07,8.3,0.77,8.33
16.757747173309326,-0.41,8.38,-0.88,8.43
16.760579109191895,-1.44,6.18,-2.92,6.98
16.7711660861969,-2.25,3.95,-3.15,5.53
16.780910968780518,-2.1,4.08,-2.17,5.07
16.79085397720337,-2.17,4.56,-2.17,5.49
16.806785106658936,-2.22,4.16,-2.28,5.23
16.810623168945312,-2.12,3.33,-1.86,4.36
16.821104049682617,-2.12,2.63,-1.28,3.61
16.831026077270508,-1.95,2.35,-1.14,3.25
16.84161901473999,-1.94,2.17,-1.05,3.09
16.85859513282776,-1.92,1.88,-0.88,2.82
16.860570192337036,-1.76,1.56,-0.64,2.43
16.87129497528076,-1.65,1.13,-0.42,2.04
16.880873203277588,-1.45,0.68,-0.37,1.64
16.891780138015747,-1.18,0.09,-0.16,1.19
16.90797710418701,-0.89,-0.63,-0.05,1.09
16.91059923171997,-0.49,-1.37,-0.03,1.45
16.920670986175537,-0.19,-2.15,0.0,2.15
16.93142819404602,0.21,-3.0,0.15,3.01
16.941380977630615,0.66,-3.76,0.31,3.83
16.957406997680664,0.94,-4.41,0.37,4.52
16.960575103759766,1.01,-4.91,0.44,5.03
16.970630168914795,0.91,-5.31,0.57,5.41
16.981382131576538,0.76,-5.49,0.6,5.57
16.991404056549072,0.39,-5.49,0.46,5.52
17.00712513923645,0.04,-5.48,0.4,5.49
17.01054620742798,-0.22,-5.54,0.45,5.56
17.020657062530518,-0.3,-5.58,0.73,5.63
17.031585216522217,-0.37,-5.45,0.85,5.52
17.041689157485962,-0.27,-5.11,0.93,5.2
17.058399200439453,-0.18,-4.61,1.09,4.74
17.06049609184265,-0.13,-3.97,1.23,4.15
17.071369171142578,-0.07,-3.28,1.35,3.54
17.081278085708618,-0.1,-2.56,1.51,2.97
17.091553211212158,-0.19,-1.83,1.58,2.42
17.10837411880493,-0.28,-1.26,1.52,1.99
17.11064314842224,-0.35,-0.74,1.37,1.59
17.121146202087402,-0.34,-0.29,1.07,1.15
17.131038188934326,-0.46,0.23,0.67,0.84
17.14192008972168,-0.57,0.92,0.47,1.17
17.158780097961426,-0.69,1.54,0.58,1.78
17.160651206970215,-0.63,1.78,1.01,2.14
17.170716285705566,-0.53,1.58,1.32,2.12
17.181514263153076,-0.33,1.55,1.38,2.1
17.19178009033203,-0.32,2.22,1.19,2.53
17.20851421356201,-0.38,3.21,1.01,3.38
17.210631132125854,-0.6,4.37,1.35,4.61
17.221529006958008,-0.89,5.99,1.9,6.34
17.230939149856567,-1.06,7.64,1.28,7.81
17.241623163223267,-0.69,8.3,-0.46,8.34
17.2585391998291,-0.07,7.21,-2.47,7.62
17.260650157928467,0.8,5.69,-3.78,6.87
17.271409034729004,1.57,4.96,-4.17,6.66
17.280989170074463,1.61,5.04,-3.87,6.55
17.291672229766846,1.43,5.01,-3.03,6.02
17.31082820892334,1.48,4.35,-2.55,5.25
17.311635971069336,1.95,3.45,-2.12,4.49
17.321197986602783,2.23,2.76,-1.67,3.92
17.330933094024658,2.25,2.44,-1.02,3.47
17.34161615371704,2.16,1.99,-0.7,3.01
17.359727144241333,2.08,1.21,-0.7,2.5
17.36072611808777,2.0,0.5,-0.42,2.1
17.371376037597656,1.74,0.03,0.0,1.74
17.381350994110107,1.28,-0.42,0.22,1.36
17.39154815673828,0.85,-1.03,0.26,1.36
17.40827512741089,0.4,-1.77,0.24,1.83
17.410755157470703,-0.05,-2.46,0.22,2.47
17.42111825942993,-0.4,-3.1,0.24,3.13
17.431092262268066,-0.7,-3.6,0.17,3.67
17.441565990447998,-0.9,-4.18,0.1,4.27
17.459615230560303,-0.98,-4.67,0.08,4.77
17.460783004760742,-0.9,-5.16,0.13,5.23
17.4713191986084,-0.9,-5.48,0.27,5.55
17.481073141098022,-0.62,-5.7,0.33,5.74
17.49149799346924,-0.36,-5.76,0.33,5.78
17.512277126312256,-0.09,-5.65,0.48,5.67
17.513107299804688,0.09,-5.52,0.73,5.56
17.521203994750977,0.16,-5.36,0.84,5.42
17.531166076660156,0.2,-5.06,0.93,5.14
17.541840076446533,0.11,-4.6,1.04,4.71
17.558990001678467,0.13,-4.03,1.14,4.19
17.560697078704834,0.09,-3.36,1.2,3.56
17.5715970993042,0.14,-2.7,1.29,2.99
17.58098316192627,0.14,-2.25,1.14,2.52
17.591721057891846,0.24,-1.85,0.9,2.07
17.609278202056885,0.41,-1.35,0.78,1.61
17.61085605621338,0.59,-0.74,0.8,1.23
17.620673179626465,0.77,-0.01,0.79,1.1
17.63156008720398,0.69,0.75,0.6,1.18
17.641732215881348,0.55,1.29,0.17,1.41
17.661478996276855,0.38,1.51,-0.34,1.59
17.662204265594482,0.26,1.75,-0.4,1.81
17.67134714126587,0.39,2.08,-0.09,2.11
17.680981159210205,0.56,2.65,0.05,2.7
17.691680192947388,0.65,3.71,0.1,3.76
17.709654092788696,0.81,5.06,0.55,5.15
17.710649967193604,0.8,6.44,1.28,6.61
17.72123622894287,0.53,7.62,1.24,7.73
17.731179237365723,0.01,8.38,0.03,8.38
17.74158811569214,-0.65,8.1,-1.9,8.34
17.75965714454651,-1.54,6.27,-3.61,7.39
17.760820150375366,-2.17,5.16,-3.39,6.54
17.771218299865723,-2.38,5.37,-2.52,6.39
17.781243085861206,-2.69,5.15,-2.22,6.21
17.791665077209473,-2.77,4.31,-2.11,5.54
17.809816122055054,-2.7,3.21,-1.81,4.56
17.81077527999878,-2.54,2.18,-1.43,3.63
17.820762157440186,-2.34,1.4,-0.9,2.87
17.831634044647217,-2.15,0.96,-0.34,2.37
17.84131908416748,-1.83,0.83,-0.07,2.01
17.860076189041138,-1.44,0.56,0.03,1.54
17.86102318763733,-1.11,0.21,0.05,1.13
17.870681285858154,-0.76,-0.28,-0.04,0.81
17.88165521621704,-0.43,-0.9,-0.11,1.0
17.89138913154602,-0.18,-1.57,-0.05,1.58
17.90115714073181,0.09,-2.29,0.01,2.29
17.911134243011475,0.37,-3.05,-0.04,3.07
17.920940160751343,0.55,-3.76,-0.01,3.8
17.931689262390137,0.75,-4.4,0.18,4.46
17.94123411178589,0.75,-4.96,0.3,5.02
17.9511981010437,0.66,-5.4,0.38,5.45
17.961037158966064,0.56,-5.62,0.47,5.66
17.970736026763916,0.38,-5.61,0.43,5.63
17.981701135635376,0.21,-5.49,0.4,5.5
17.991762161254883,-0.01,-5.37,0.47,5.39
18.000946044921875,-0.22,-5.29,0.64,5.33
18.01093626022339,-0.24,-5.14,0.81,5.2
18.02088713645935,-0.26,-4.88,0.83,4.95
18.03166913986206,-0.29,-4.4,0.9,4.5
18.04132914543152,-0.33,-3.74,1.02,3.89
18.051027297973633,-0.31,-3.06,1.21,3.3
18.06103801727295,-0.42,-2.45,1.46,2.88
18.070918083190918,-0.47,-1.86,1.58,2.48
18.081751108169556,-0.53,-1.19,1.43,1.93
18.091485023498535,-0.62,-0.46,1.13,1.36
18.101033210754395,-0.67,0.08,0.69,0.96
18.111014127731323,-0.87,0.52,0.29,1.05
18.120909214019775,-0.88,0.94,-0.04,1.28
18.1315701007843,-0.81,1.27,-0.04,1.5
18.141525268554688,-0.84,1.42,0.23,1.66
18.150978088378906,-0.72,1.46,0.58,1.72
18.161033153533936,-0.56,1.59,0.98,1.94
18.170897006988525,-0.48,2.09,1.25,2.48
18.181678295135498,-0.52,2.9,1.28,3.21
18.19174098968506,-0.51,3.86,1.41,4.14
18.201423168182373,-0.57,5.02,1.81,5.36
18.21221923828125,-0.75,6.57,2.19,6.96
18.221251964569092,-0.91,7.87,1.47,8.05
18.231220245361328,-0.6,8.02,-0.41,8.05
18.241881132125854,-0.21,6.76,-2.2,7.11
18.251370191574097,0.56,4.92,-3.04,5.81
18.26104497909546,1.53,3.85,-3.2,5.23
18.27141523361206,1.69,3.56,-3.33,5.15
18.281414031982422,1.78,3.38,-3.0,4.85
18.29176115989685,1.71,3.02,-2.61,4.34
18.30135416984558,1.78,2.63,-2.28,3.9
18.31250524520874,1.94,2.27,-1.81,3.49
18.321364164352417,1.99,2.03,-1.25,3.1
18.331157207489014,1.97,1.84,-0.89,2.83
18.341979026794434,1.94,1.55,-0.75,2.59
18.351121187210083,1.87,1.13,-0.53,2.24
18.361009120941162,1.76,0.64,-0.31,1.89
18.37159013748169,1.5,0.08,-0.08,1.5
18.38134217262268,1.15,-0.67,0.05,1.33
18.391841173171997,0.78,-1.47,-0.08,1.66
18.401051998138428,0.39,-2.21,-0.18,2.25
18.41108226776123,0.04,-2.8,-0.11,2.8
18.420862197875977,-0.28,-3.38,0.13,3.39
18.431824207305908,-0.43,-3.94,0.3,3.97
18.441798210144043,-0.44,-4.46,0.4,4.49
18.451289176940918,-0.4,-4.81,0.38,4.84
18.461076259613037,-0.39,-5.03,0.41,5.06
18.470893144607544,-0.54,-5.28,0.47,5.32
18.482600212097168,-0.47,-5.32,0.58,5.37
18.49016308784485,-0.13,-5.34,0.47,5.36
18.499889135360718,0.26,-5.27,0.45,5.29
18.50999927520752,0.23,-5.09,0.69,5.14
18.52071523666382,0.09,-4.93,0.95,5.02
18.530148029327393,0.19,-4.63,0.98,4.73
18.54041314125061,0.24,-4.1,0.93,4.21
18.5503671169281,0.1,-3.45,0.87,3.55
18.5612051486969,0.12,-2.84,0.84,2.96
18.57114315032959,0.13,-2.33,0.87,2.49
18.580806255340576,0.13,-1.87,0.78,2.03
18.590631008148193,0.11,-1.27,0.72,1.46
18.60012722015381,0.25,-0.6,0.86,1.07
18.60965919494629,0.3,-0.07,0.9,0.95
18.620697021484375,0.43,0.38,0.75,0.94
18.629887104034424,0.4,0.61,0.59,0.93
18.640154123306274,0.5,0.48,0.55,0.88
18.650078296661377,0.51,0.25,0.31,0.64
18.660261154174805,0.59,0.54,-0.18,0.81
18.671066284179688,0.81,1.16,-0.42,1.47
18.68003225326538,0.67,2.53,-0.08,2.61
18.6906521320343,0.83,4.05,0.82,4.21
18.70031213760376,0.66,5.8,1.41,6.0
18.711994171142578,0.54,7.77,1.89,8.01
18.72110414505005,0.03,9.41,1.24,9.49
18.730549097061157,-0.41,9.4,-0.75,9.43
18.740559101104736,-0.9,6.8,-3.01,7.49
18.74998116493225,-1.71,4.51,-3.46,5.93
18.761263132095337,-1.78,4.61,-2.24,5.42
18.771424293518066,-2.02,4.87,-1.85,5.58
18.780410289764404,-2.08,4.34,-2.08,5.24
18.790804147720337,-2.04,3.33,-2.35,4.55
18.800786018371582,-1.93,2.48,-2.05,3.75
18.812263011932373,-1.8,1.96,-1.52,3.06
18.821502208709717,-1.7,1.75,-1.25,2.74
18.830231189727783,-1.71,1.63,-1.09,2.6
18.84066104888916,-1.68,1.37,-0.98,2.37
18.850296020507812,-1.46,1.35,-0.6,2.07
18.86093807220459,-1.22,1.11,-0.2,1.66
18.870968103408813,-1.05,0.65,-0.24,1.25
18.881919145584106,-0.85,0.02,-0.44,0.95
18.891855239868164,-0.59,-0.68,-0.47,1.01
18.901316165924072,-0.28,-1.51,-0.38,1.58
18.911375999450684,0.01,-2.33,-0.31,2.35
18.920995235443115,0.44,-3.1,-0.22,3.13
18.93186330795288,0.78,-3.76,-0.05,3.84
18.942013263702393,1.07,-4.44,0.12,4.56
18.95135807991028,1.23,-4.98,0.26,5.13
18.9615421295166,1.35,-5.3,-0.01,5.46
18.971647262573242,1.08,-5.49,-0.01,5.59
18.981622219085693,0.67,-5.75,0.37,5.8
18.9919011592865,0.3,-5.9,0.65,5.94
19.001160144805908,0.01,-5.92,0.49,5.94
19.012840270996094,0.2,-5.71,0.31,5.72
19.021682262420654,-0.02,-5.32,0.47,5.34
19.03173828125,-0.09,-4.77,0.8,4.83
19.041664123535156,0.17,-4.2,1.08,4.33
19.051156044006348,0.34,-3.6,1.3,3.84
19.062162160873413,0.25,-3.04,1.34,3.33
19.071818113327026,0.13,-2.44,1.35,2.79
19.081781148910522,0.03,-1.93,1.47,2.42
19.09156608581543,-0.04,-1.32,1.56,2.04
19.101184129714966,-0.21,-0.62,1.53,1.66
19.11182713508606,-0.37,-0.08,1.53,1.57
19.12180995941162,-0.3,0.17,1.44,1.48
19.13160514831543,-0.29,0.35,1.03,1.12
19.141781091690063,-0.43,0.7,0.8,1.14
19.151381969451904,-0.57,1.1,0.81,1.48
19.162050247192383,-0.6,1.36,0.83,1.7
19.170998096466064,-0.52,1.46,0.85,1.76
19.18187117576599,-0.4,1.74,1.04,2.06
19.191594123840332,-0.41,2.49,1.29,2.83
19.201385021209717,-0.52,3.37,1.36,3.67
19.212112188339233,-0.77,4.42,1.62,4.77
19.22105121612549,-0.98,5.79,1.93,6.18
19.231903076171875,-1.21,7.22,1.61,7.49
19.241608142852783,-1.1,7.92,0.36,8.0
19.251076221466064,-0.85,7.39,-1.16,7.52
19.262758255004883,-0.57,5.77,-2.66,6.37
19.272130012512207,0.53,4.28,-3.55,5.58
19.281630992889404,1.17,3.51,-3.42,5.03
19.291794300079346,1.3,3.19,-3.22,4.71
19.301390171051025,1.2,2.83,-2.95,4.26
19.31281018257141,1.3,2.29,-2.46,3.6
19.321171283721924,1.34,2.03,-2.19,3.27
19.331980228424072,1.44,2.05,-1.85,3.11
19.34172821044922,1.57,2.21,-1.44,3.06
19.351373195648193,1.62,2.18,-1.06,2.91
19.363142013549805,1.65,1.81,-0.71,2.55
19.37239718437195,1.71,1.27,-0.64,2.22
19.381415128707886,1.65,0.72,-0.6,1.89
19.391969203948975,1.48,0.19,-0.34,1.53
19.401344299316406,1.16,-0.45,-0.11,1.24
19.413300037384033,0.8,-1.12,-0.03,1.37
19.42271900177002,0.39,-1.79,-0.06,1.83
19.43211817741394,0.02,-2.39,-0.05,2.39
19.441781997680664,-0.29,-2.97,0.11,2.98
19.45163917541504,-0.57,-3.65,0.35,3.71
19.46322202682495,-0.78,-4.23,0.53,4.33
19.4724702835083,-0.74,-4.74,0.47,4.82
19.481739044189453,-0.79,-5.11,0.4,5.18
19.491690158843994,-0.75,-5.26,0.41,5.32
19.50125503540039,-0.52,-5.19,0.41,5.23
19.512978076934814,-0.5,-5.0,0.45,5.04
19.521543979644775,-0.19,-4.95,0.79,5.01
19.53199529647827,-0.07,-4.94,0.99,5.03
19.541612148284912,0.03,-4.85,0.93,4.93
19.551414012908936,0.1,-4.58,0.98,4.68
19.563594102859497,0.1,-4.11,1.09,4.25
19.57264518737793,0.07,-3.55,1.17,3.73
19.581724166870117,0.1,-2.98,1.22,3.22
19.59198808670044,0.17,-2.48,1.29,2.8
19.601500034332275,0.18,-2.01,1.2,2.34
19.613315105438232,0.26,-1.46,1.07,1.82
19.622944116592407,0.33,-0.87,0.99,1.35
19.631690979003906,0.38,-0.33,0.91,1.03
19.641831159591675,0.36,0.05,0.68,0.77
19.651142120361328,0.4,0.21,0.44,0.63
19.663453102111816,0.33,0.26,0.2,0.46
19.67201328277588,0.29,0.33,0.02,0.43
19.681913137435913,0.29,0.44,0.12,0.54
19.691751956939697,0.46,0.94,-0.02,1.04
19.701563119888306,0.63,1.89,-0.3,2.01
19.713452100753784,0.8,3.24,0.37,3.35
19.721872091293335,0.89,4.84,1.39,5.11
19.73196506500244,0.81,6.31,1.69,6.58
19.742083072662354,0.43,7.62,1.12,7.71
19.75144624710083,-0.04,8.49,-0.01,8.49
19.764179229736328,-0.37,7.66,-1.64,7.84
19.773159980773926,-1.15,5.24,-3.16,6.22
19.781833171844482,-2.05,4.07,-3.01,5.46
19.791816234588623,-1.98,4.73,-1.96,5.48
19.80145502090454,-2.03,4.95,-1.77,5.63
19.813854217529297,-2.13,4.19,-2.12,5.15
19.822286128997803,-2.14,3.23,-1.95,4.33
19.83218002319336,-2.04,2.63,-1.33,3.58
19.8419930934906,-1.98,2.22,-1.01,3.14
19.851402282714844,-2.05,1.82,-1.04,2.93
19.863388061523438,-2.05,1.4,-1.05,2.69
19.87124514579773,-1.86,0.98,-0.82,2.25
19.882187128067017,-1.55,0.59,-0.45,1.71
19.89212417602539,-1.33,0.19,-0.26,1.36
19.901386260986328,-1.08,-0.26,-0.22,1.13
19.91356325149536,-0.8,-0.78,-0.29,1.15
19.92120909690857,-0.51,-1.35,-0.27,1.46
19.93220806121826,-0.22,-1.95,-0.19,1.97
19.941829204559326,0.12,-2.67,-0.15,2.67
19.951566219329834,0.55,-3.36,-0.05,3.4
19.963149070739746,0.75,-4.02,0.06,4.08
19.97125816345215,0.95,-4.58,0.14,4.67
19.982035160064697,1.05,-5.0,0.21,5.11
19.991692066192627,0.86,-5.23,0.3,5.3
20.001348972320557,0.79,-5.41,0.36,5.47
20.013925075531006,0.64,-5.38,0.42,5.43
20.02123713493347,0.39,-5.17,0.46,5.2
20.032047271728516,0.19,-5.05,0.56,5.08
20.041831970214844,0.08,-4.92,0.67,4.96
20.051550149917603,-0.01,-4.69,0.9,4.77
20.064200162887573,-0.13,-4.24,1.13,4.38
20.071341037750244,-0.19,-3.6,1.18,3.79
20.082030296325684,-0.07,-2.94,1.29,3.21
20.091740131378174,-0.14,-2.38,1.46,2.79
20.10161304473877,-0.18,-1.82,1.52,2.37
20.11431312561035,-0.18,-1.23,1.61,2.03
20.1212739944458,-0.32,-0.74,1.36,1.58
20.132046222686768,-0.25,-0.32,1.13,1.2
20.141836166381836,-0.46,0.14,1.12,1.21
20.151560306549072,-0.59,0.43,1.03,1.26
20.164579153060913,-0.64,0.55,0.86,1.2
20.17112922668457,-0.66,0.61,0.73,1.15
20.181931972503662,-0.66,0.69,0.87,1.29
20.19182300567627,-0.75,1.07,1.0,1.64
20.20155096054077,-0.73,1.55,1.09,2.03
20.21465301513672,-0.7,2.06,1.4,2.58
20.22118902206421,-0.82,2.76,1.6,3.29
20.23207998275757,-0.88,3.59,1.51,3.99
20.24176025390625,-1.02,4.52,1.91,5.01
20.25153398513794,-1.24,5.81,2.34,6.38
20.264438152313232,-1.16,6.99,1.77,7.3
20.271311283111572,-0.68,7.21,-0.09,7.24
20.28222107887268,-0.21,6.4,-1.92,6.68
20.29184317588806,0.58,4.9,-3.12,5.83
20.30148220062256,1.58,3.76,-3.43,5.32
20.313740253448486,1.72,3.53,-3.41,5.2
20.321327209472656,1.57,3.42,-3.1,4.87
20.33222508430481,1.48,3.01,-2.71,4.31
20.34198808670044,1.58,2.62,-2.43,3.9
20.351609230041504,1.7,2.43,-1.92,3.53
20.36427927017212,1.72,2.46,-1.42,3.32
20.371296167373657,1.65,2.52,-1.07,3.19
20.382192134857178,1.59,2.34,-0.89,2.96
20.39206027984619,1.7,1.86,-0.86,2.66
20.401777267456055,1.81,1.22,-0.83,2.33
20.414870262145996,1.76,0.53,-0.88,2.03
20.421221256256104,1.46,-0.1,-0.67,1.6
20.43231725692749,1.02,-0.66,-0.28,1.24
20.441914081573486,0.61,-1.34,-0.07,1.47
20.451755046844482,0.06,-2.08,-0.13,2.08
20.46505618095398,-0.41,-2.77,-0.14,2.8
20.471312999725342,-0.82,-3.39,-0.01,3.48
20.48237109184265,-1.2,-3.94,0.25,4.12
20.491924285888672,-1.27,-4.34,0.44,4.54
20.501667976379395,-1.4,-4.56,0.4,4.78
20.515066146850586,-1.16,-4.76,0.46,4.92
20.521275997161865,-0.76,-4.91,0.6,5.0
20.532122135162354,-0.41,-4.99,0.54,5.03
20.542054176330566,-0.05,-4.86,0.4,4.87
20.551652193069458,0.18,-4.8,0.55,4.83
20.565240144729614,0.31,-4.74,0.77,4.81
20.573402166366577,0.36,-4.54,0.9,4.64
20.582029104232788,0.32,-4.24,0.97,4.36
20.59185028076172,0.25,-3.78,1.05,3.93
20.601912021636963,0.19,-3.24,1.21,3.46
20.61482810974121,0.11,-2.73,1.19,2.98
20.62126398086548,0.17,-2.33,1.09,2.57
20.63219714164734,0.25,-1.93,1.1,2.23
20.641884088516235,0.47,-1.55,1.06,1.93
20.651836156845093,0.63,-1.18,1.05,1.7
20.665138244628906,0.76,-0.83,0.89,1.43
20.671274185180664,0.73,-0.63,0.68,1.17
20.682197093963623,0.7,-0.4,0.42,0.9
20.691745281219482,0.64,-0.14,0.24,0.69
20.702006101608276,0.59,0.21,0.08,0.63
20.715229034423828,0.64,0.54,0.18,0.85
20.721336126327515,0.8,1.01,0.57,1.4
20.73214316368103,0.85,1.88,0.32,2.08
20.74188208580017,0.81,3.1,0.41,3.23
20.751704216003418,0.71,4.56,1.28,4.78
20.765421152114868,0.52,6.06,1.78,6.33
20.77125120162964,0.19,7.47,1.39,7.6
20.782178163528442,-0.26,8.39,0.11,8.39
20.791975021362305,-0.59,8.16,-1.67,8.35
20.80155897140503,-0.89,6.6,-3.1,7.34
20.815503120422363,-1.37,5.21,-2.94,6.13
20.82145619392395,-1.45,5.23,-2.13,5.83
20.832279205322266,-1.78,5.11,-2.03,5.77
20.842129230499268,-1.86,4.19,-2.19,5.08
20.851473093032837,-1.85,3.09,-2.09,4.16
20.8656063079834,-1.87,2.38,-1.57,3.4
20.87139129638672,-1.91,1.8,-1.02,2.81
20.88139820098877,-1.86,1.23,-0.8,2.36
20.892319202423096,-1.77,0.79,-0.78,2.08
20.90200901031494,-1.61,0.56,-0.62,1.81
20.914828300476074,-1.36,0.35,-0.42,1.46
20.921317100524902,-1.09,0.03,-0.35,1.14
20.932260990142822,-0.82,-0.4,-0.36,0.98
20.94222402572632,-0.55,-0.86,-0.36,1.08
20.952545166015625,-0.29,-1.35,-0.32,1.41
20.96568202972412,-0.04,-1.88,-0.3,1.9
20.971419095993042,0.2,-2.5,-0.24,2.51
20.982189178466797,0.46,-3.18,-0.12,3.21
20.991932153701782,0.64,-3.78,0.06,3.83
21.001955032348633,0.74,-4.26,0.13,4.32
21.01582908630371,0.74,-4.56,0.18,4.62
21.02144718170166,0.67,-4.71,0.23,4.76
21.032214164733887,0.5,-4.73,0.26,4.76
21.041994094848633,0.35,-4.69,0.35,4.71
21.051830291748047,0.18,-4.63,0.57,4.66
21.06583309173584,-0.01,-4.62,0.79,4.68
21.07145619392395,-0.16,-4.49,0.83,4.56
21.08228302001953,-0.18,-4.23,0.8,4.3
21.092135190963745,-0.23,-3.91,0.9,4.01
21.101957082748413,-0.2,-3.6,1.09,3.76
21.115663051605225,-0.27,-3.28,1.14,3.48
21.12144422531128,-0.32,-2.84,1.16,3.08
21.132488250732422,-0.45,-2.31,1.24,2.66
21.142089128494263,-0.58,-1.76,1.32,2.27
21.151806116104126,-0.62,-1.22,1.48,2.01
21.16606903076172,-0.65,-0.8,1.56,1.86
21.171547174453735,-0.61,-0.42,1.59,1.75
21.1821870803833,-0.64,-0.15,1.33,1.48
21.192325115203857,-0.68,0.15,1.04,1.25
21.20220708847046,-0.63,0.36,0.54,0.9
21.216058254241943,-0.66,0.55,0.19,0.87
21.221566200256348,-0.54,0.81,0.52,1.1
21.232445240020752,-0.41,1.22,1.21,1.76
21.24276304244995,-0.48,1.94,1.62,2.57
21.25210213661194,-0.67,2.94,1.5,3.36
21.266287088394165,-0.85,3.98,1.52,4.34
21.271574020385742,-1.0,5.15,1.91,5.58
21.282567024230957,-1.15,6.5,1.96,6.88
21.292548179626465,-1.17,7.63,1.07,7.79
21.30188226699829,-1.03,8.02,-0.27,8.09
21.316676139831543,-0.71,7.37,-1.47,7.54
21.321616172790527,-0.12,6.03,-2.57,6.55
21.332355976104736,0.7,4.85,-3.09,5.79
21.34269428253174,1.1,4.11,-2.97,5.18
21.351974964141846,1.37,3.47,-2.72,4.61
21.366419076919556,1.61,2.74,-2.6,4.1
21.37146520614624,1.82,2.14,-2.25,3.59
21.382331132888794,1.98,1.83,-1.79,3.23
21.392552137374878,2.13,1.69,-1.6,3.15
21.40210199356079,2.2,1.66,-1.24,3.02
21.416630268096924,2.16,1.49,-0.87,2.76
21.42180824279785,2.14,0.94,-0.75,2.45
21.432432174682617,2.12,0.34,-0.62,2.23
21.44287919998169,1.91,-0.13,-0.39,1.95
21.45175814628601,1.6,-0.54,-0.16,1.69
21.465952157974243,1.12,-1.09,0.03,1.56
21.471601009368896,0.64,-1.7,0.03,1.81
21.481693267822266,0.22,-2.32,-0.1,2.33
21.493134021759033,-0.17,-2.88,-0.17,2.89
21.501626014709473,-0.37,-3.5,-0.06,3.52
21.5157732963562,-0.59,-3.94,0.07,3.98
21.52156400680542,-0.63,-4.38,0.38,4.44
21.53226613998413,-0.63,-4.76,0.54,4.83
21.54292917251587,-0.44,-5.09,0.43,5.12
21.552138090133667,-0.34,-5.13,0.34,5.15
21.565993309020996,-0.04,-5.03,0.36,5.04
21.57161808013916,0.03,-4.86,0.36,4.87
21.58244228363037,0.08,-4.73,0.56,4.76
21.593125104904175,0.17,-4.71,0.82,4.78
21.602022171020508,0.19,-4.53,0.9,4.62
21.6163911819458,0.14,-4.09,0.96,4.2
21.621734142303467,0.04,-3.52,1.02,3.66
21.632346153259277,0.04,-2.97,1.04,3.14
21.643020153045654,0.07,-2.49,1.17,2.75
21.65211820602417,0.2,-1.99,1.14,2.3
21.66636896133423,0.32,-1.46,1.05,1.82
21.671630144119263,0.46,-0.92,0.98,1.42
21.68253803253174,0.6,-0.46,0.89,1.16
21.69318723678589,0.72,-0.06,0.67,0.98
21.701751232147217,0.67,0.27,0.44,0.84
21.716880083084106,0.6,0.46,0.2,0.78
21.721607208251953,0.51,0.46,0.03,0.68
21.732198238372803,0.46,0.36,0.05,0.58
21.74324607849121,0.38,0.51,0.13,0.64
21.752007007598877,0.41,1.14,-0.2,1.22
21.767839193344116,0.57,1.99,-0.48,2.12
21.771655082702637,0.74,3.02,-0.03,3.1
21.78233313560486,0.82,4.22,0.65,4.34
21.79325008392334,0.82,5.41,1.27,5.61
21.80219030380249,0.57,6.54,1.39,6.71
21.817054271697998,0.08,7.29,0.47,7.3
21.821574211120605,-0.51,6.87,-1.07,6.97
21.832370281219482,-1.28,4.96,-2.49,5.69
21.843438148498535,-1.93,3.51,-2.6,4.77
21.85180425643921,-2.06,3.8,-1.99,4.75
21.866804122924805,-2.04,4.15,-1.83,4.97
21.87178611755371,-1.96,3.84,-2.16,4.82
21.882472038269043,-1.87,3.32,-1.94,4.27
21.893458127975464,-1.85,3.02,-1.28,3.76
21.901949167251587,-1.88,2.81,-0.98,3.52
21.918055057525635,-1.83,2.52,-1.02,3.27
21.92164707183838,-1.74,2.42,-1.03,3.15
21.932273149490356,-1.75,2.23,-1.0,3.0
21.94328022003174,-1.75,1.63,-0.95,2.57
21.95220112800598,-1.63,1.29,-0.72,2.19
21.967077255249023,-1.45,0.71,-0.52,1.69
21.971652030944824,-1.16,-0.05,-0.53,1.27
21.982540130615234,-0.75,-0.84,-0.6,1.27
21.99339509010315,-0.3,-1.67,-0.52,1.77
22.001922130584717,0.09,-2.53,-0.28,2.54
22.01744318008423,0.43,-3.3,-0.04,3.32
22.02169418334961,0.79,-4.01,0.1,4.08
22.032522201538086,1.06,-4.61,0.06,4.73
22.04381012916565,1.09,-5.06,0.08,5.17
22.052045106887817,1.13,-5.38,0.18,5.5
22.067821979522705,0.88,-5.59,0.29,5.66
22.071709156036377,0.61,-5.58,0.18,5.61
22.08233618736267,0.33,-5.51,0.19,5.52
22.093806266784668,0.09,-5.41,0.46,5.43
22.102192163467407,-0.13,-5.23,0.73,5.28
22.11777400970459,-0.24,-4.89,0.85,4.96
22.121778964996338,-0.25,-4.44,0.89,4.53
22.132501125335693,-0.38,-3.89,0.89,4.0
22.142008304595947,-0.4,-3.27,0.97,3.43
22.15536117553711,-0.45,-2.64,1.05,2.87
22.16170310974121,-0.49,-1.93,1.03,2.24
22.17168617248535,-0.63,-1.19,1.05,1.7
22.18237829208374,-0.7,-0.58,1.07,1.4
22.194124221801758,-0.75,-0.09,0.99,1.24
22.20189905166626,-0.73,0.17,0.98,1.23
22.21769118309021,-0.69,0.38,1.01,1.28
22.221683025360107,-0.7,0.55,0.93,1.28
22.23177719116211,-0.67,0.64,0.75,1.19
22.242383003234863,-0.67,0.75,0.86,1.32
22.255853176116943,-0.63,0.99,1.03,1.56
22.261631965637207,-0.44,1.3,1.1,1.75
22.27169108390808,-0.27,1.86,1.38,2.33
22.282398223876953,-0.34,2.72,1.65,3.19
22.292259216308594,-0.44,3.7,1.74,4.11
22.30517315864563,-0.67,4.76,2.08,5.23
22.311729192733765,-0.92,5.84,2.25,6.32
22.321730136871338,-0.96,6.58,1.47,6.81
22.3325252532959,-0.78,6.81,0.09,6.85
22.342087268829346,-0.52,6.44,-0.98,6.53
22.35501217842102,0.05,5.43,-1.83,5.73
22.361828088760376,0.93,4.29,-2.67,5.13
22.371780157089233,1.31,3.72,-2.87,4.87
22.38257122039795,1.39,3.34,-2.63,4.47
22.392197132110596,1.48,2.8,-2.49,4.02
22.406188011169434,1.57,2.23,-2.5,3.69
22.411798000335693,1.74,1.9,-2.33,3.47
22.42247200012207,1.85,1.82,-2.01,3.28
22.432409286499023,1.92,1.84,-1.6,3.1
22.442464113235474,2.02,1.7,-1.16,2.88
22.457051277160645,2.14,1.25,-0.89,2.63
22.461801052093506,2.21,0.7,-0.94,2.5
22.472514152526855,2.24,0.27,-0.95,2.44
22.482733249664307,2.09,-0.17,-0.7,2.21
22.49112606048584,1.6,-0.52,-0.34,1.71
22.504000186920166,1.07,-0.98,-0.18,1.46
22.51040506362915,0.59,-1.57,-0.24,1.69
22.521329164505005,0.05,-2.18,-0.26,2.19
22.531064987182617,-0.44,-2.78,-0.25,2.82
22.541038990020752,-0.82,-3.3,-0.23,3.4
22.554962158203125,-1.03,-3.74,0.03,3.87
22.560551166534424,-0.97,-4.25,0.29,4.36
22.571527004241943,-0.82,-4.63,0.21,4.7
22.581346035003662,-0.55,-4.9,0.13,4.93
22.591325283050537,-0.33,-4.92,0.3,4.94
22.605364084243774,-0.03,-4.89,0.36,4.9
22.610898971557617,0.09,-4.77,0.36,4.78
22.621012210845947,0.2,-4.72,0.49,4.74
22.63131618499756,0.26,-4.58,0.67,4.63
22.64118719100952,0.3,-4.25,0.83,4.34
22.65608310699463,0.27,-3.75,1.04,3.9
22.660508155822754,0.17,-3.13,1.16,3.34
22.67123007774353,0.14,-2.5,1.22,2.78
22.68139123916626,0.19,-1.95,1.26,2.32
22.69126319885254,0.23,-1.46,1.19,1.89
22.704658031463623,0.35,-1.11,1.06,1.57
22.71050500869751,0.51,-0.86,0.88,1.33
22.721328258514404,0.58,-0.67,0.69,1.12
22.73182511329651,0.68,-0.54,0.47,0.98
22.74116015434265,0.76,-0.34,0.41,0.92
22.755519151687622,0.79,-0.12,0.41,0.89
22.76100206375122,0.65,0.08,0.29,0.71
22.77138113975525,0.55,0.29,0.2,0.65
22.78159809112549,0.53,0.66,0.2,0.86
22.79138708114624,0.69,1.28,0.19,1.46
22.806377172470093,0.89,2.08,0.01,2.26
22.810580253601074,1.05,2.97,0.22,3.15
22.821238040924072,1.03,4.09,0.79,4.29
22.831228256225586,0.9,5.34,1.11,5.52
22.84114408493042,0.61,6.34,0.84,6.42
22.85499620437622,0.09,7.01,0.05,7.01
22.86064100265503,-0.4,6.67,-0.74,6.72
22.875331163406372,-1.02,5.0,-1.76,5.39
22.88537907600403,-1.72,3.5,-2.39,4.57
22.895397186279297,-2.02,3.79,-2.0,4.73
22.904765129089355,-1.98,4.19,-1.67,4.92
22.91927409172058,-1.68,3.85,-1.92,4.61
22.92459726333618,-1.45,3.24,-2.02,4.08
22.93511724472046,-1.43,2.88,-1.51,3.55
22.945412158966064,-1.38,2.65,-0.96,3.13
22.95503330230713,-1.37,2.42,-0.74,2.87
22.969221115112305,-1.36,2.27,-0.96,2.81
22.974485158920288,-1.36,1.93,-1.39,2.73
22.98522710800171,-1.33,1.34,-1.69,2.53
22.995381116867065,-1.44,0.91,-1.57,2.31
23.004714965820312,-1.31,0.6,-1.12,1.82
23.018710136413574,-0.98,0.01,-0.71,1.21
23.024463176727295,-0.63,-0.62,-0.61,1.07
23.0352041721344,-0.21,-1.24,-0.62,1.4
23.04532217979431,0.27,-1.92,-0.52,2.0
23.054728984832764,0.77,-2.66,-0.32,2.78
23.069249153137207,1.16,-3.37,-0.16,3.56
23.07449722290039,1.55,-3.92,-0.17,4.21
23.08512020111084,1.68,-4.38,-0.12,4.69
23.09558415412903,1.7,-4.65,-0.02,4.95
23.104735136032104,1.58,-4.79,0.02,5.04
23.119352102279663,1.15,-4.84,0.03,4.97
23.124557971954346,0.97,-4.86,0.06,4.95
23.13508701324463,0.61,-4.84,0.24,4.88
23.14568018913269,0.15,-4.77,0.35,4.78
23.1547269821167,-0.03,-4.66,0.43,4.67
23.168979167938232,-0.11,-4.31,0.59,4.35
23.174461126327515,-0.24,-3.78,0.81,3.87
23.18521213531494,-0.28,-3.17,0.91,3.3
23.195950031280518,-0.4,-2.57,1.01,2.79
23.20501708984375,-0.44,-1.99,1.09,2.31
23.219797134399414,-0.51,-1.43,1.13,1.89
23.22445511817932,-0.59,-0.89,1.07,1.51
23.235183238983154,-0.59,-0.38,0.89,1.13
23.24555015563965,-0.65,0.02,0.68,0.94
23.254939079284668,-0.68,0.3,0.45,0.86
23.270467281341553,-0.68,0.44,0.43,0.91
23.27454900741577,-0.73,0.49,0.4,0.96
23.285386085510254,-0.7,0.57,0.3,0.95
23.295838117599487,-0.74,0.64,0.28,1.01
23.304934978485107,-0.72,0.69,0.43,1.08
23.320411205291748,-0.64,0.72,0.63,1.15
23.325194120407104,-0.42,0.99,0.84,1.36
23.33519220352173,-0.34,1.55,1.06,1.9
23.346280097961426,-0.29,2.2,1.04,2.45
23.354916095733643,-0.33,2.99,1.22,3.24
23.3703351020813,-0.6,3.95,1.53,4.27
23.3749520778656,-0.84,4.96,1.63,5.28
23.385099172592163,-0.86,5.72,0.92,5.85
23.39637517929077,-0.66,5.92,-0.16,5.95
23.404815196990967,-0.22,5.18,-1.15,5.31
23.421119213104248,0.67,3.92,-1.88,4.39
23.42520809173584,1.43,3.28,-2.06,4.12
23.435163974761963,1.63,3.02,-1.99,3.96
23.446202278137207,1.74,2.66,-2.01,3.76
23.45543622970581,1.74,2.28,-2.18,3.6
23.470596313476562,1.8,2.09,-2.19,3.52
23.474623203277588,1.91,2.03,-1.84,3.33
23.485422134399414,1.96,2.04,-1.56,3.23
23.49603509902954,1.92,2.09,-1.36,3.14
23.504916191101074,1.9,1.9,-1.26,2.96
23.520456314086914,1.88,1.49,-1.37,2.76
23.52514410018921,1.91,0.97,-1.61,2.67
23.535290241241455,1.95,0.37,-1.74,2.63
23.54677724838257,1.88,-0.14,-1.4,2.34
23.554936170578003,1.37,-0.53,-1.09,1.82
23.570755004882812,0.85,-0.76,-1.01,1.52
23.575289249420166,0.42,-1.25,-0.95,1.62
23.585222244262695,0.01,-1.81,-0.82,1.98
23.596768140792847,-0.3,-2.24,-0.67,2.35
23.605016231536865,-0.64,-2.66,-0.65,2.81
23.621235132217407,-0.86,-3.01,-0.65,3.19
23.624641180038452,-0.88,-3.24,-0.58,3.4
23.635354042053223,-0.77,-3.31,-0.47,3.43
23.6468563079834,-0.64,-3.37,-0.35,3.44
23.655113220214844,-0.27,-3.37,-0.22,3.38
23.67077612876892,0.07,-3.32,-0.17,3.32
23.674543142318726,0.32,-3.19,-0.06,3.2
23.685155153274536,0.45,-3.11,-0.07,3.14
23.69683313369751,0.49,-2.98,-0.09,3.02
23.704949140548706,0.47,-2.7,0.05,2.74
23.721312999725342,0.44,-2.42,0.26,2.47
23.72455406188965,0.45,-2.24,0.28,2.3
23.735278129577637,0.27,-1.84,0.27,1.87
23.74653720855713,0.14,-1.34,0.32,1.38
23.75512409210205,0.19,-0.94,0.39,1.03
23.771352291107178,0.21,-0.77,0.27,0.84
23.774593114852905,0.21,-0.75,0.13,0.78
23.785298109054565,0.33,-0.7,0.07,0.77
23.796979188919067,0.45,-0.59,0.1,0.74
23.80513310432434,0.56,-0.44,0.12,0.72
23.821352005004883,0.63,-0.32,0.13,0.71
23.824485301971436,0.62,-0.16,0.21,0.67
23.83518409729004,0.59,-0.09,0.31,0.67
23.845190048217773,0.6,-0.28,0.37,0.75
23.858866214752197,0.57,-0.41,0.3,0.76
23.864551067352295,0.56,-0.13,0.26,0.63
23.875208139419556,0.5,0.43,0.39,0.76
23.885253190994263,0.49,1.0,0.45,1.2
23.895328998565674,0.5,1.53,0.53,1.69
23.910338163375854,0.5,2.09,0.7,2.26
23.91466999053955,0.35,2.72,0.57,2.8
23.925217151641846,0.02,3.38,0.22,3.38
23.935216188430786,-0.28,3.74,-0.31,3.76
23.945154190063477,-0.55,3.66,-0.87,3.8
23.9588360786438,-0.92,3.46,-1.23,3.78
23.96460199356079,-1.36,3.57,-1.19,4.0
23.975322246551514,-1.65,3.68,-1.13,4.18
23.985295295715332,-1.7,3.34,-1.31,3.97
23.995326042175293,-1.6,2.71,-1.44,3.46
24.00977897644043,-1.35,2.21,-1.51,2.99
24.01469326019287,-1.04,1.76,-1.43,2.49
24.025288105010986,-1.01,1.44,-1.14,2.09
24.03524112701416,-1.11,1.47,-1.13,2.16
24.045300006866455,-1.12,1.71,-1.32,2.43
24.058924198150635,-1.32,1.86,-1.23,2.59
24.064608097076416,-1.43,1.71,-1.27,2.56
24.075213193893433,-1.29,1.54,-1.53,2.52
24.085424184799194,-1.3,1.18,-1.83,2.53
24.09523296356201,-1.24,1.04,-1.7,2.34
24.1091570854187,-1.09,0.95,-1.46,2.05
24.114784240722656,-0.69,0.36,-1.5,1.68
24.125177145004272,-0.21,-0.42,-1.67,1.73
24.135433197021484,0.22,-1.09,-1.58,1.93
24.145188093185425,0.59,-1.72,-1.31,2.24
24.15864896774292,0.98,-2.3,-1.04,2.7
24.16465997695923,1.26,-2.77,-0.93,3.18
24.17542815208435,1.33,-3.11,-0.85,3.48
24.18514609336853,1.33,-3.3,-0.71,3.62
24.195409297943115,1.1,-3.35,-0.56,3.57
24.208754062652588,0.83,-3.29,-0.45,3.42
24.21469211578369,0.53,-3.16,-0.36,3.22
24.22536015510559,0.29,-2.95,-0.34,2.98
24.23534107208252,0.08,-2.65,-0.22,2.66
24.24532127380371,-0.04,-2.33,-0.06,2.33
24.259859085083008,-0.06,-1.93,-0.06,1.93
24.26482105255127,-0.1,-1.53,-0.07,1.53
24.275535106658936,-0.2,-1.14,-0.02,1.15
24.2851881980896,-0.2,-0.77,-0.05,0.79
24.29552698135376,-0.15,-0.65,-0.08,0.67
24.3107430934906,-0.17,-0.62,-0.26,0.69
24.31479501724243,-0.26,-0.48,-0.52,0.75
24.325399160385132,-0.43,-0.29,-0.56,0.76
24.33534812927246,-0.61,-0.21,-0.54,0.84
24.34526515007019,-0.86,-0.14,-0.73,1.13
24.35926628112793,-0.97,-0.21,-0.9,1.33
24.36470317840576,-0.98,-0.24,-0.94,1.37
24.375283241271973,-1.02,-0.04,-0.82,1.3
24.385234117507935,-0.88,0.17,-0.56,1.05
24.39530611038208,-0.73,0.28,-0.34,0.85
24.409648180007935,-0.57,0.31,-0.19,0.67
24.415908098220825,-0.48,0.3,-0.17,0.59
24.424571990966797,-0.4,0.3,-0.04,0.5
24.435375213623047,-0.36,0.29,0.14,0.48
24.44518804550171,-0.33,0.18,0.12,0.39
24.45978021621704,-0.41,0.05,-0.01,0.41
24.464712142944336,-0.53,0.05,0.05,0.53
24.47546911239624,-0.74,0.22,0.34,0.84
24.485347270965576,-0.85,0.52,0.51,1.11
24.495213985443115,-0.78,1.08,0.59,1.45
24.50957727432251,-0.55,1.87,0.5,2.01
24.51484727859497,-0.25,2.89,0.42,2.93
24.525399208068848,0.11,3.84,0.3,3.85
24.535380125045776,0.38,4.11,-0.28,4.13
24.545411109924316,0.68,3.95,-1.32,4.21
24.560294151306152,0.86,3.21,-2.3,4.04
24.564824104309082,1.0,2.08,-2.8,3.62
24.575722217559814,1.04,1.26,-2.65,3.11
24.585682153701782,1.06,0.66,-2.13,2.46
24.59521508216858,1.06,0.0,-1.47,1.81
24.61043930053711,1.08,-0.58,-0.97,1.56
24.614799976348877,1.08,-0.75,-1.14,1.74
24.625636100769043,1.02,-0.67,-1.49,1.92
24.635759115219116,1.01,-0.47,-1.64,1.98
24.645409107208252,0.98,-0.25,-1.56,1.85
24.659374237060547,1.02,-0.14,-1.37,1.71
24.66480827331543,0.94,-0.07,-1.29,1.59
24.67562198638916,0.86,0.02,-1.41,1.65
24.685352087020874,0.65,0.06,-1.45,1.59
24.695253133773804,0.45,0.11,-1.5,1.56
24.710146188735962,0.21,0.07,-1.7,1.71
24.714792251586914,-0.08,-0.05,-1.81,1.81
24.725552082061768,-0.28,-0.16,-1.78,1.8
24.73535919189453,-0.46,-0.24,-1.63,1.71
24.74542212486267,-0.55,-0.33,-1.41,1.54
24.758641242980957,-0.61,-0.44,-1.26,1.46
24.76472520828247,-0.48,-0.56,-1.14,1.35
24.775484085083008,-0.29,-0.69,-1.06,1.29
24.785412311553955,-0.1,-0.79,-1.09,1.34
24.795238971710205,0.1,-0.81,-1.12,1.38
24.80930995941162,0.3,-0.78,-1.12,1.39
24.814861297607422,0.38,-0.7,-1.11,1.36
24.825554132461548,0.46,-0.51,-1.02,1.22
24.835408210754395,0.54,-0.24,-0.89,1.06
24.845436096191406,0.53,-0.09,-0.79,0.95
24.860039234161377,0.53,0.12,-0.71,0.89
24.86481213569641,0.42,0.45,-0.65,0.89
24.87550926208496,0.38,0.43,-0.68,0.88
24.885415077209473,0.44,0.37,-0.75,0.94
24.895344257354736,0.35,0.44,-0.91,1.06
24.909829139709473,0.18,0.36,-1.01,1.08
24.914931297302246,0.25,0.22,-1.0,1.05
24.92551612854004,0.22,0.11,-1.05,1.07
24.935527086257935,0.2,0.02,-1.0,1.02
24.94548010826111,0.43,0.0,-0.77,0.88
24.959014177322388,-0.16,0.23,-0.18,0.33
24.964819192886353,-0.44,0.37,-0.7,0.9
24.97561502456665,0.04,0.18,-0.85,0.86
24.98546314239502,-0.38,0.01,-0.84,0.92
24.995436191558838,-0.21,-0.05,-0.71,0.74
25.009185314178467,-0.26,-0.16,-0.58,0.65
25.014859199523926,-0.35,-0.18,-0.53,0.66
25.02553915977478,-0.29,-0.29,-0.5,0.64
25.03545308113098,-0.18,-0.45,-0.41,0.63
25.045454025268555,-0.13,-0.49,-0.2,0.54
25.059438228607178,-0.25,-0.44,0.01,0.5
25.06503200531006,-0.26,-0.16,0.3,0.42
25.07552719116211,0.32,-0.06,-0.13,0.35
25.08547830581665,0.13,-0.22,-0.39,0.46
25.09557318687439,0.25,-0.25,-0.16,0.38
25.110239028930664,0.33,-0.15,0.18,0.4
25.115049123764038,0.3,-0.13,0.41,0.52
25.125572204589844,0.22,-0.14,0.6,0.65
25.1354501247406,0.17,-0.28,0.66,0.73
25.145495176315308,0.04,-0.41,0.52,0.66
25.160107135772705,-0.2,-0.26,0.27,0.42
25.165005207061768,-0.22,-0.2,-0.24,0.38
25.175523281097412,-0.05,-0.22,-0.82,0.85
25.18533420562744,-0.03,-0.22,-1.19,1.21
25.195319175720215,0.06,-0.2,-1.56,1.57
25.20823311805725,0.03,-0.25,-1.84,1.85
25.214802265167236,0.04,-0.09,-1.85,1.85
25.224918127059937,0.02,-0.03,-1.74,1.74
25.235632181167603,0.08,-0.09,-1.29,1.29
25.245503187179565,0.18,-0.35,-0.62,0.73
25.260958194732666,0.18,-0.37,0.09,0.42
25.264775276184082,0.18,-0.18,-0.26,0.36
25.274938106536865,-0.16,0.31,-0.49,0.6
25.285436153411865,-0.25,0.4,-0.28,0.54
25.295323133468628,-0.39,0.27,0.11,0.48
25.308687210083008,-0.25,0.0,0.39,0.46
25.314885139465332,-0.02,-0.36,0.47,0.59
25.32494306564331,-0.14,-0.4,0.21,0.47
25.335644245147705,-0.17,0.02,-0.33,0.37
25.3457350730896,-0.15,0.28,-0.66,0.73
25.360465049743652,0.0,0.1,-0.65,0.65
25.364830017089844,0.03,-0.04,-0.67,0.67
25.376379013061523,-0.07,0.28,-0.71,0.76
25.390908241271973,0.16,-0.19,-0.39,0.46
25.394880294799805,-0.03,-0.29,-0.33,0.44
25.40661311149597,-0.26,0.16,-0.39,0.49
25.414710998535156,-0.17,0.37,-0.24,0.47
25.424968242645264,-0.16,0.45,-0.1,0.48
25.43490505218506,-0.13,0.2,0.02,0.23
25.44569730758667,-0.28,0.05,-0.01,0.28
25.458096981048584,-0.15,0.3,0.13,0.35
25.464919090270996,-0.3,0.11,0.04,0.32
25.474996089935303,-0.2,-0.2,0.07,0.29
25.485716104507446,-0.17,0.02,0.1,0.19
25.495318174362183,-0.15,0.16,-0.04,0.22
25.508217096328735,-0.11,0.14,0.06,0.18
25.51507329940796,-0.04,0.07,0.35,0.35
25.525015115737915,0.02,0.12,0.35,0.37
25.53568696975708,-0.08,0.27,0.02,0.28
25.545217037200928,0.01,0.3,-0.35,0.46
25.55868411064148,-0.07,0.29,-0.7,0.76
25.565049171447754,-0.16,0.31,-0.64,0.72
25.57588815689087,-0.29,0.22,-0.54,0.65
25.58561611175537,-0.24,0.16,-0.27,0.39
25.595834255218506,-0.21,0.07,0.08,0.23
25.61028814315796,-0.24,0.07,0.61,0.65
25.615000247955322,-0.21,0.05,1.0,1.02
25.62566328048706,-0.08,0.05,0.72,0.72
25.635627269744873,-0.03,0.13,0.22,0.25
25.645498275756836,0.05,0.06,-0.09,0.11
25.65981101989746,0.13,0.07,-0.27,0.3
25.665170192718506,0.2,0.12,-0.45,0.5
25.6760892868042,-0.01,0.04,-0.69,0.69
25.68548011779785,-0.01,-0.07,-1.03,1.03
25.695930004119873,0.09,-0.09,-1.16,1.16
25.710508108139038,0.18,0.0,-0.99,1.0
25.71518898010254,0.06,0.14,-0.65,0.66
25.725919246673584,0.07,0.03,-0.45,0.45
25.735645294189453,0.25,-0.09,-0.24,0.35
25.745835304260254,0.03,-0.05,0.22,0.22
25.760597229003906,0.01,0.01,1.07,1.07
25.765276193618774,0.19,0.08,1.57,1.58
25.776007175445557,0.28,0.14,1.62,1.64
25.78566312789917,0.14,0.04,1.07,1.07
25.795703172683716,0.19,0.02,-0.03,0.19
25.810856103897095,0.19,0.2,-0.73,0.78
25.815317153930664,-0.07,0.17,-1.04,1.05
25.825743198394775,-0.08,0.08,-1.04,1.04
25.83560609817505,-0.07,0.1,-0.72,0.73
25.845571994781494,-0.29,0.17,-0.21,0.39
25.86055326461792,-0.11,0.26,0.18,0.33
25.865345001220703,-0.08,0.05,0.55,0.55
25.875986099243164,-0.02,-0.18,0.41,0.44
25.885762214660645,0.06,-0.02,0.64,0.64
25.895591259002686,0.05,0.09,1.29,1.29
25.911063194274902,0.15,-0.02,1.14,1.14
25.91552209854126,0.15,-0.33,0.91,0.97
25.926011085510254,0.02,0.05,0.02,0.05
25.93576717376709,0.07,0.5,-1.01,1.12
25.945937156677246,-0.13,0.32,-1.79,1.82
25.961256980895996,-0.23,0.05,-2.39,2.4
25.96560001373291,-0.11,0.09,-2.29,2.29
25.975866079330444,-0.18,0.08,-1.71,1.72
25.98557209968567,-0.31,-0.18,-0.97,1.03
25.995687007904053,-0.09,-0.2,-0.35,0.41
26.01079225540161,-0.34,-0.21,0.35,0.53
26.015741109848022,-0.32,-0.23,0.8,0.89
26.026023149490356,0.22,-0.13,1.2,1.22
26.035640239715576,0.52,-0.29,1.03,1.18
26.045610189437866,0.17,-0.5,0.21,0.56
26.061037063598633,-0.05,-0.91,-0.77,1.19
26.065725088119507,-0.25,-1.56,-1.39,2.1
26.076012134552002,-0.62,-1.26,-1.6,2.12
26.085912227630615,0.29,-0.11,-1.5,1.53
26.095588207244873,0.27,0.24,-0.81,0.88
26.110881090164185,0.08,-0.13,-0.4,0.42
26.115938186645508,0.02,-0.23,0.19,0.29
26.126046180725098,0.32,0.16,0.63,0.72
26.135698080062866,0.16,-0.01,0.79,0.8
26.145692110061646,-0.04,-0.27,0.42,0.5
26.160017013549805,-0.11,-0.34,0.14,0.38
26.166059017181396,-0.31,-0.65,-0.03,0.72
26.17582130432129,-0.32,-0.18,0.36,0.51
26.185522079467773,-0.47,0.03,0.55,0.72
26.195484161376953,-0.74,-0.07,0.4,0.84
26.210004091262817,-0.71,-0.04,0.41,0.82
26.21501398086548,-0.89,-0.33,0.18,0.96
26.225911140441895,-0.56,-0.31,-0.13,0.65
26.235685110092163,-0.3,-0.4,-0.48,0.69
26.245795249938965,-0.71,-0.4,-0.44,0.92
26.261556148529053,-0.78,-0.03,-0.63,1.0
26.265170097351074,-0.46,0.4,-1.06,1.22
26.275878190994263,0.3,0.38,-1.08,1.18
26.285778999328613,0.76,0.15,-0.83,1.13
26.295973300933838,1.35,-0.63,-0.78,1.68
26.310364246368408,2.08,0.62,-1.24,2.49
26.315289974212646,1.57,1.66,-1.31,2.63
26.32593297958374,0.38,1.01,-0.84,1.36
26.335729122161865,-0.18,0.49,-0.76,0.92
26.34605312347412,-0.46,0.68,-0.85,1.18
26.36073398590088,-0.56,0.26,-0.74,0.96
26.365036010742188,-0.5,0.11,-0.29,0.58
26.375854969024658,-0.33,0.35,0.26,0.54
26.385653972625732,-0.27,0.55,0.75,0.96
26.395592212677002,-0.27,0.47,1.19,1.3
26.41033124923706,-0.23,0.38,1.48,1.54
26.415207147598267,-0.04,0.45,1.67,1.73
26.42581605911255,0.02,0.45,1.71,1.76
26.435700178146362,-0.09,0.09,1.65,1.65
26.445687294006348,0.0,-0.14,1.54,1.54
26.459749221801758,0.25,0.06,1.11,1.13
26.46508502960205,0.43,0.25,0.54,0.73
26.47584629058838,0.5,0.09,0.05,0.51
26.485767126083374,0.64,0.02,-0.43,0.77
26.495548248291016,0.49,0.14,-0.89,1.02
26.509356021881104,0.11,0.21,-1.18,1.2
26.51501226425171,-0.24,0.09,-1.1,1.12
26.525262117385864,-0.21,0.1,-0.78,0.81
26.535648107528687,-0.07,0.25,-0.55,0.6
26.5453143119812,-0.07,0.19,-0.48,0.52
26.558677196502686,-0.24,0.15,-0.35,0.45
26.565062999725342,-0.45,0.23,-0.27,0.57
26.575728178024292,-0.79,0.2,0.2,0.83
26.58641815185547,-1.02,0.44,0.4,1.18
26.5958890914917,-1.05,0.23,0.37,1.13
26.60944128036499,-1.05,0.3,0.51,1.2
26.61548614501953,-0.9,0.37,0.57,1.12
26.62529230117798,-0.52,0.01,0.8,0.95
26.635821104049683,-0.2,-0.21,0.91,0.95
26.645687103271484,-0.05,-0.22,1.02,1.04
26.65895700454712,-0.16,-0.2,1.14,1.16
26.665173053741455,-0.55,0.1,1.07,1.2
26.675493240356445,-1.07,0.42,0.72,1.35
