time,ax,ay,az,atotal
0.020468950271606445,0.05,0.6,0.93,1.1
0.020823001861572266,0.11,0.29,1.41,1.44
0.021938800811767578,0.08,0.25,0.83,0.87
0.0321040153503418,0.05,0.05,0.01,0.07
0.04300880432128906,0.0,-0.17,-0.47,0.49
0.052134037017822266,-0.01,-0.22,-0.36,0.42
0.062050819396972656,-0.02,-0.16,0.08,0.18
0.07215189933776855,0.01,-0.11,0.43,0.44
0.08209490776062012,0.0,-0.09,0.34,0.35
0.09467506408691406,0.07,-0.06,0.05,0.1
0.1019749641418457,0.07,-0.02,-0.16,0.17
0.11217784881591797,0.05,-0.05,-0.08,0.1
0.12213706970214844,0.03,-0.11,0.14,0.18
0.13223505020141602,0.01,-0.12,0.28,0.3
0.14633607864379883,0.01,-0.1,0.23,0.25
0.15207481384277344,0.0,-0.12,0.09,0.15
0.1621408462524414,-0.01,-0.1,0.02,0.1
0.17227506637573242,0.0,-0.05,0.07,0.08
0.18223905563354492,0.04,-0.07,0.16,0.17
0.19596004486083984,0.04,-0.08,0.14,0.16
0.20202207565307617,0.09,-0.11,0.14,0.19
0.21219992637634277,0.12,-0.18,0.13,0.25
0.2221829891204834,0.14,-0.25,0.04,0.28
0.23230504989624023,0.15,-0.26,0.01,0.3
0.24865198135375977,0.12,-0.29,0.06,0.31
0.2522239685058594,0.15,-0.33,0.13,0.38
0.26213598251342773,0.16,-0.36,0.21,0.44
0.27240800857543945,0.21,-0.34,0.32,0.51
0.2822139263153076,0.24,-0.28,0.36,0.51
0.29625988006591797,0.29,-0.13,0.33,0.45
0.30210089683532715,0.35,0.08,0.44,0.56
0.3122267723083496,0.37,0.25,0.63,0.77
0.32234692573547363,0.35,0.38,0.69,0.86
0.3322768211364746,0.28,0.44,0.55,0.75
0.3467378616333008,0.17,0.35,0.27,0.47
0.35218381881713867,0.07,0.17,0.06,0.19
0.3622770309448242,0.0,0.0,0.01,0.01
0.37242794036865234,-0.02,-0.17,0.12,0.2
0.3822939395904541,0.0,-0.35,0.3,0.46
0.3966860771179199,0.04,-0.49,0.47,0.68
0.4021768569946289,0.15,-0.59,0.64,0.88
0.41228580474853516,0.28,-0.61,0.68,0.95
0.4224119186401367,0.28,-0.57,0.54,0.83
0.4322938919067383,0.33,-0.46,0.59,0.81
0.4471168518066406,0.36,-0.36,0.45,0.67
0.45220494270324707,0.33,-0.32,0.15,0.48
0.46238183975219727,0.28,-0.3,0.21,0.46
0.47240686416625977,0.25,-0.23,0.34,0.48
0.48229098320007324,0.2,-0.29,0.3,0.46
0.4974789619445801,0.12,-0.34,0.26,0.44
0.5021569728851318,0.1,-0.25,0.24,0.36
0.5123898983001709,0.05,-0.11,0.35,0.37
0.5225100517272949,0.0,0.09,0.51,0.51
0.5323519706726074,-0.03,0.35,0.61,0.7
0.5477209091186523,-0.11,0.66,0.7,0.96
0.5521659851074219,-0.2,0.94,0.74,1.21
0.5623979568481445,-0.3,1.04,0.58,1.22
0.5724279880523682,-0.44,0.91,0.26,1.04
0.5823409557342529,-0.56,0.58,-0.04,0.8
0.5974760055541992,-0.64,0.04,-0.23,0.68
0.6022019386291504,-0.69,-0.58,-0.32,0.95
0.6124179363250732,-0.67,-1.14,-0.22,1.34
0.6224119663238525,-0.59,-1.63,0.11,1.73
0.6323959827423096,-0.4,-1.94,0.55,2.05
0.6480097770690918,-0.27,-2.01,1.01,2.26
0.6521918773651123,-0.27,-1.94,1.31,2.35
0.6624407768249512,-0.3,-1.75,1.59,2.38
0.6724958419799805,-0.41,-1.4,1.66,2.2
0.6823709011077881,-0.53,-0.93,1.51,1.85
0.6977269649505615,-0.63,-0.42,1.45,1.63
0.7022008895874023,-0.65,-0.02,1.34,1.48
0.7124848365783691,-0.73,0.3,1.22,1.45
0.7225198745727539,-0.72,0.57,1.28,1.57
0.7324690818786621,-0.67,0.81,1.41,1.75
0.7482268810272217,-0.55,0.94,1.54,1.88
0.7522549629211426,-0.5,0.9,1.57,1.87
0.7625019550323486,-0.45,0.72,1.57,1.78
0.7723808288574219,-0.43,0.57,1.58,1.73
0.7823410034179688,-0.41,0.4,1.77,1.86
0.7991690635681152,-0.34,0.24,1.92,1.96
0.8022298812866211,-0.24,0.09,1.9,1.91
0.8125159740447998,-0.15,0.02,1.79,1.79
0.8224310874938965,-0.11,-0.04,1.8,1.8
0.8324379920959473,-0.1,-0.12,1.84,1.84
0.8500199317932129,-0.14,-0.25,1.77,1.79
0.8523678779602051,-0.16,-0.37,1.65,1.69
0.8625450134277344,-0.22,-0.44,1.64,1.71
0.8723568916320801,-0.25,-0.52,1.73,1.82
0.8824000358581543,-0.28,-0.53,1.8,1.89
0.8994989395141602,-0.33,-0.56,1.76,1.87
0.9025828838348389,-0.38,-0.53,1.8,1.91
0.9126367568969727,-0.44,-0.42,1.87,1.96
0.9223780632019043,-0.49,-0.23,1.87,1.94
0.9324829578399658,-0.51,-0.06,1.91,1.97
0.9494199752807617,-0.54,0.08,2.02,2.09
0.9527831077575684,-0.56,0.22,2.0,2.08
0.9625899791717529,-0.62,0.29,1.93,2.04
0.9725289344787598,-0.67,0.26,1.94,2.06
0.9826738834381104,-0.7,0.23,1.98,2.11
0.9994897842407227,-0.69,0.22,2.04,2.16
1.0026168823242188,-0.69,0.26,2.15,2.27
1.0126268863677979,-0.64,0.33,2.17,2.28
1.0224781036376953,-0.67,0.27,2.03,2.15
1.0325288772583008,-0.65,0.22,1.95,2.06
1.049562931060791,-0.62,0.27,1.86,1.97
1.0527799129486084,-0.6,0.4,1.88,2.01
1.0626020431518555,-0.56,0.53,2.02,2.16
1.072422981262207,-0.55,0.63,2.07,2.23
1.0825669765472412,-0.49,0.78,2.16,2.34
1.0995259284973145,-0.46,1.04,2.2,2.47
1.1028127670288086,-0.5,1.25,2.2,2.57
1.1126289367675781,-0.61,1.38,2.08,2.56
1.1224050521850586,-0.72,1.61,1.9,2.59
1.1324539184570312,-0.75,1.85,1.69,2.61
1.1502790451049805,-0.75,1.95,1.28,2.45
1.1528759002685547,-0.67,1.9,0.72,2.13
1.1626009941101074,-0.61,1.83,0.33,1.95
1.1723947525024414,-0.48,1.79,0.32,1.88
1.1825008392333984,-0.38,1.72,0.43,1.81
1.2005209922790527,-0.33,1.6,0.31,1.66
1.2032837867736816,-0.22,1.5,-0.1,1.51
1.212656021118164,-0.03,1.49,-0.48,1.56
1.222533941268921,0.24,1.45,-0.87,1.7
1.2327039241790771,0.45,1.24,-1.33,1.87
1.2511959075927734,0.59,0.99,-1.67,2.02
1.2531747817993164,0.79,0.76,-1.62,1.95
1.2626419067382812,1.02,0.47,-1.67,2.01
1.2725248336791992,1.19,0.08,-1.71,2.08
1.2825241088867188,1.31,-0.45,-1.51,2.04
1.300797939300537,1.39,-0.81,-1.05,1.92
1.3033380508422852,1.5,-1.01,-0.59,1.9
1.3126649856567383,1.53,-1.09,-0.33,1.9
1.3226408958435059,1.52,-1.04,-0.11,1.84
1.3327960968017578,1.43,-0.9,-0.04,1.69
1.3507769107818604,1.38,-0.58,0.01,1.49
1.352510929107666,1.3,-0.19,0.18,1.32
1.362644910812378,1.15,0.16,0.25,1.18
1.3725318908691406,0.98,0.4,0.21,1.07
1.38246488571167,0.74,0.5,0.02,0.89
1.4007899761199951,0.49,0.43,-0.2,0.68
1.402446985244751,0.29,0.21,-0.34,0.49
1.4127020835876465,0.11,-0.12,-0.18,0.24
1.4225409030914307,-0.01,-0.58,0.21,0.61
1.4327418804168701,-0.07,-1.03,0.64,1.21
1.4508390426635742,-0.09,-1.46,0.92,1.72
1.4525260925292969,-0.02,-1.73,1.07,2.03
1.4627108573913574,0.03,-1.9,1.14,2.21
1.4727458953857422,0.1,-1.99,1.1,2.27
1.48260498046875,0.1,-1.98,1.01,2.22
1.5014569759368896,0.12,-1.9,0.9,2.1
1.5023698806762695,0.1,-1.83,0.85,2.02
1.5127019882202148,0.11,-1.8,1.04,2.08
1.522514820098877,0.1,-1.76,1.3,2.19
1.5326018333435059,0.14,-1.66,1.39,2.16
1.5517818927764893,0.13,-1.61,1.5,2.2
1.5525031089782715,0.18,-1.54,1.58,2.21
1.5627169609069824,0.25,-1.45,1.6,2.17
1.5725159645080566,0.34,-1.28,1.6,2.07
1.5826129913330078,0.46,-1.02,1.62,1.96
1.600477933883667,0.62,-0.67,1.69,1.92
1.6023368835449219,0.68,-0.36,1.79,1.94
1.6128389835357666,0.75,-0.09,1.8,1.95
1.6225919723510742,0.8,0.19,1.51,1.71
1.6327247619628906,0.85,0.45,1.16,1.5
1.6511509418487549,0.88,0.63,1.07,1.52
1.6525788307189941,0.87,0.71,1.25,1.68
1.662841796875,0.78,0.7,1.4,1.74
1.6726179122924805,0.67,0.64,1.26,1.56
1.6826720237731934,0.57,0.61,0.97,1.27
1.7019867897033691,0.47,0.63,0.9,1.19
1.7024459838867188,0.48,0.78,1.23,1.53
1.7128610610961914,0.54,0.99,1.57,1.93
1.7226319313049316,0.66,1.14,1.77,2.2
1.7327048778533936,0.64,1.32,1.89,2.39
1.7521848678588867,0.54,1.66,2.06,2.7
1.7526230812072754,0.3,2.14,2.29,3.14
1.7628669738769531,-0.01,2.77,2.4,3.66
1.7725858688354492,-0.41,3.2,2.02,3.8
1.782693862915039,-0.71,3.29,0.8,3.45
1.8013079166412354,-0.82,3.44,-0.8,3.62
1.802466869354248,-0.7,3.49,-1.98,4.07
1.8127880096435547,-0.7,3.02,-2.7,4.11
1.8225889205932617,-0.83,2.23,-3.09,3.89
1.8326640129089355,-0.85,1.56,-2.77,3.29
1.8521239757537842,-0.83,0.78,-2.06,2.35
1.8525738716125488,-0.92,-0.16,-1.39,1.67
1.862806797027588,-1.27,-0.91,-0.94,1.82
1.8726708889007568,-1.44,-1.3,-0.52,2.0
1.8826837539672852,-1.41,-1.25,-0.08,1.88
1.9012670516967773,-1.23,-0.88,0.05,1.51
1.9025099277496338,-1.02,-0.45,-0.09,1.11
1.9128270149230957,-0.71,-0.08,-0.13,0.72
1.922666072845459,-0.47,0.21,-0.22,0.55
1.9327278137207031,-0.21,0.41,-0.46,0.65
1.9515018463134766,0.04,0.41,-0.65,0.76
1.9526090621948242,0.21,0.16,-0.68,0.72
1.9628119468688965,0.27,-0.36,-0.47,0.65
1.9728128910064697,0.18,-1.13,-0.21,1.16
1.9828357696533203,-0.02,-1.85,0.05,1.85
2.00150203704834,-0.18,-2.39,0.3,2.41
2.0025248527526855,-0.38,-2.73,0.5,2.8
2.0128860473632812,-0.56,-2.91,0.49,3.0
2.022736072540283,-0.71,-2.92,0.37,3.02
2.0327000617980957,-0.76,-2.8,0.4,2.92
2.0516319274902344,-0.65,-2.59,0.58,2.73
2.0525870323181152,-0.63,-2.38,0.68,2.55
2.0628747940063477,-0.62,-2.31,0.71,2.49
2.0727639198303223,-0.65,-2.15,0.87,2.4
2.0827479362487793,-0.75,-1.94,0.98,2.29
2.1014609336853027,-0.79,-1.84,1.11,2.28
2.102543830871582,-0.88,-1.7,1.27,2.29
2.1128759384155273,-0.86,-1.5,1.33,2.18
2.122775077819824,-0.89,-1.24,1.32,2.01
2.132833957672119,-0.87,-0.94,1.28,1.81
2.152160882949829,-0.83,-0.61,1.25,1.61
2.152805805206299,-0.82,-0.31,1.21,1.49
2.162871837615967,-0.85,-0.08,1.05,1.35
2.1727070808410645,-0.89,0.11,0.81,1.2
2.1827988624572754,-0.98,0.44,0.62,1.24
2.2018938064575195,-1.03,0.82,0.84,1.56
2.2026309967041016,-1.03,1.13,1.18,1.93
2.212916851043701,-0.97,1.24,1.18,1.96
2.2227818965911865,-0.84,1.3,0.85,1.76
2.2328269481658936,-0.67,1.51,0.57,1.74
2.2522950172424316,-0.5,1.94,0.82,2.16
2.2527527809143066,-0.26,2.53,1.62,3.01
2.262985944747925,0.0,3.12,2.3,3.87
2.2726798057556152,0.11,3.6,2.3,4.27
2.282839775085449,0.17,4.05,1.68,4.38
2.3023147583007812,0.34,4.09,0.86,4.19
2.302751064300537,0.35,3.63,-0.3,3.65
2.312898874282837,0.43,2.99,-1.95,3.59
2.3228719234466553,0.59,2.52,-2.88,3.87
2.3329520225524902,0.88,2.0,-3.06,3.76
2.3525359630584717,1.29,1.36,-3.02,3.55
2.3529789447784424,1.63,0.59,-2.68,3.19
2.3629088401794434,1.85,-0.25,-1.92,2.67
2.372796058654785,1.93,-0.87,-1.02,2.34
2.3829009532928467,1.88,-1.17,-0.2,2.22
2.402570962905884,1.62,-1.04,0.08,1.92
2.4030227661132812,1.27,-0.36,-0.4,1.37
2.412858009338379,0.97,0.5,-0.77,1.33
2.4227590560913086,0.65,1.19,-0.64,1.49
2.432874917984009,0.34,1.76,-0.44,1.84
2.4526290893554688,0.09,2.05,-0.61,2.14
2.4530868530273438,-0.15,1.91,-1.02,2.17
2.4628467559814453,-0.42,1.37,-1.27,1.91
2.4729480743408203,-0.64,0.47,-1.04,1.3
2.4828391075134277,-0.79,-0.53,-0.31,1.0
2.5028438568115234,-0.81,-1.51,0.48,1.77
2.503298759460449,-0.69,-2.34,0.91,2.6
2.512922763824463,-0.47,-2.87,1.14,3.12
2.522772789001465,-0.26,-3.21,1.15,3.41
2.532844066619873,-0.21,-3.39,0.92,3.51
2.5528719425201416,-0.22,-3.41,0.72,3.49
2.553323984146118,-0.18,-3.25,0.63,3.31
2.5628318786621094,-0.24,-3.02,0.61,3.09
2.5727977752685547,-0.28,-2.76,0.62,2.84
2.5828969478607178,-0.31,-2.55,0.73,2.67
2.602904796600342,-0.27,-2.36,0.71,2.47
2.6033599376678467,-0.18,-2.16,0.8,2.31
2.6129119396209717,-0.05,-1.96,0.88,2.14
2.6228537559509277,0.07,-1.92,0.99,2.16
2.6329498291015625,0.21,-1.94,1.07,2.22
2.6526639461517334,0.32,-1.92,1.2,2.28
2.6531059741973877,0.41,-1.78,1.34,2.26
2.662919044494629,0.49,-1.51,1.43,2.13
2.6727569103240967,0.49,-1.02,1.33,1.74
2.6830410957336426,0.5,-0.38,1.12,1.28
2.702836036682129,0.49,0.39,0.96,1.14
2.7032737731933594,0.55,1.13,0.89,1.53
2.71293306350708,0.55,1.56,0.7,1.79
2.7228050231933594,0.48,1.72,0.1,1.78
2.7329978942871094,0.47,1.95,-0.32,2.03
2.7530927658081055,0.63,2.45,0.01,2.52
2.7535400390625,0.97,3.02,0.87,3.28
2.7628989219665527,1.16,3.58,1.68,4.12
2.7728328704833984,1.06,4.12,2.05,4.72
2.7829859256744385,0.83,4.28,1.91,4.75
2.8036439418792725,0.3,4.05,1.01,4.18
2.8041019439697266,-0.24,3.79,-0.49,3.82
2.812980890274048,-0.49,3.68,-1.86,4.15
2.82289981842041,-0.69,3.27,-2.96,4.46
2.8331217765808105,-0.98,2.34,-3.66,4.45
2.853893756866455,-1.2,1.59,-3.38,3.92
2.8543500900268555,-1.34,0.94,-2.51,2.99
2.8629889488220215,-1.35,0.36,-1.47,2.02
2.8729567527770996,-1.39,-0.1,-0.65,1.53
2.8831610679626465,-1.39,-0.27,-0.12,1.42
2.9032998085021973,-1.29,-0.09,0.12,1.29
2.9037349224090576,-1.18,0.08,-0.02,1.18
2.9130468368530273,-1.12,0.28,-0.44,1.23
2.9229540824890137,-0.93,0.51,-0.65,1.24
2.933067798614502,-0.73,0.7,-0.55,1.15
2.953723907470703,-0.47,0.83,-0.45,1.05
2.9541797637939453,-0.13,0.65,-0.59,0.88
2.9630470275878906,0.07,0.08,-0.69,0.69
2.9730868339538574,0.21,-0.6,-0.59,0.86
2.983125925064087,0.23,-1.28,-0.36,1.34
3.003671884536743,0.08,-2.01,-0.09,2.01
3.004117012023926,-0.17,-2.66,0.18,2.67
3.013029098510742,-0.27,-3.1,0.31,3.12
3.023179054260254,-0.37,-3.37,0.12,3.39
3.033174991607666,-0.42,-3.5,-0.18,3.52
3.053745985031128,-0.48,-3.5,-0.17,3.53
3.0542008876800537,-0.44,-3.43,0.05,3.45
3.063016891479492,-0.4,-3.27,0.27,3.3
3.0732507705688477,-0.35,-3.08,0.33,3.11
3.083077907562256,-0.33,-2.95,0.49,3.0
3.104341983795166,-0.41,-2.77,0.66,2.87
3.1048049926757812,-0.51,-2.69,0.7,2.82
3.113068103790283,-0.54,-2.62,0.74,2.77
3.1233699321746826,-0.65,-2.42,0.77,2.62
3.133117914199829,-0.72,-2.23,0.9,2.51
3.153923988342285,-0.81,-1.91,1.23,2.41
3.154359817504883,-0.81,-1.48,1.44,2.21
3.1630067825317383,-0.79,-1.06,1.27,1.83
3.173358917236328,-0.77,-0.71,0.9,1.38
3.1831040382385254,-0.82,-0.3,0.66,1.09
3.204394817352295,-0.86,0.3,0.72,1.16
3.2048377990722656,-0.9,1.01,1.04,1.7
3.2130489349365234,-0.84,1.58,1.09,2.09
3.223587989807129,-0.85,1.95,0.81,2.27
3.2332139015197754,-0.91,2.22,0.57,2.46
3.2545089721679688,-0.83,2.68,0.75,2.9
3.254957914352417,-0.66,3.38,1.43,3.72
3.2631330490112305,-0.41,4.01,2.35,4.66
3.27341890335083,-0.14,4.37,2.65,5.11
3.283212900161743,0.08,4.67,2.15,5.14
3.3042187690734863,0.31,4.88,1.33,5.06
3.304670810699463,0.5,4.48,0.3,4.51
3.3130669593811035,0.54,3.45,-1.36,3.74
3.3237669467926025,0.66,2.36,-2.96,3.84
3.3331708908081055,0.98,1.82,-3.53,4.09
3.354585886001587,1.53,1.54,-3.04,3.73
3.3550500869750977,2.01,0.89,-2.22,3.12
3.3631739616394043,2.27,0.01,-1.74,2.86
3.37373685836792,2.36,-0.82,-1.43,2.87
3.3832740783691406,2.31,-1.24,-0.98,2.79
3.4044909477233887,2.18,-1.21,-0.48,2.53
3.4049248695373535,1.94,-0.72,-0.26,2.08
3.413072109222412,1.55,0.21,-0.38,1.6
3.423752784729004,1.09,1.07,-0.42,1.58
3.433206081390381,0.61,1.56,-0.39,1.71
3.4540457725524902,0.13,1.87,-0.53,1.94
3.4544830322265625,-0.28,1.99,-0.93,2.21
3.4631459712982178,-0.61,1.7,-1.19,2.16
3.473031997680664,-0.89,0.93,-1.01,1.63
3.483253002166748,-1.13,-0.16,-0.52,1.25
3.503798007965088,-1.26,-1.32,0.11,1.82
3.504178047180176,-1.13,-2.32,0.59,2.64
3.513077974319458,-0.82,-3.03,0.75,3.22
3.5229930877685547,-0.55,-3.43,0.74,3.55
3.533106803894043,-0.34,-3.7,0.66,3.77
3.5534658432006836,-0.24,-3.7,0.6,3.75
3.5539119243621826,-0.19,-3.51,0.55,3.55
3.5630979537963867,-0.24,-3.3,0.41,3.33
3.5730080604553223,-0.29,-3.02,0.49,3.07
3.5831968784332275,-0.23,-2.72,0.82,2.85
3.603512763977051,-0.18,-2.54,0.96,2.72
3.603947877883911,-0.12,-2.46,0.93,2.63
3.6131138801574707,0.02,-2.33,1.06,2.55
3.6230039596557617,0.17,-2.06,1.21,2.39
3.633234977722168,0.32,-1.72,1.22,2.13
3.653826951980591,0.4,-1.47,1.33,2.02
3.654262065887451,0.46,-1.22,1.47,1.96
3.663105010986328,0.52,-0.99,1.42,1.8
3.673150062561035,0.6,-0.8,1.04,1.44
3.6832990646362305,0.55,-0.51,0.7,1.02
3.703917980194092,0.52,-0.03,0.53,0.74
3.704354763031006,0.56,0.58,0.5,0.94
3.7131919860839844,0.62,1.11,0.51,1.36
3.722993850708008,0.57,1.39,0.38,1.54
3.733150005340576,0.49,1.58,0.17,1.66
3.754249095916748,0.54,1.8,0.34,1.9
3.75467586517334,0.75,2.07,1.1,2.46
3.7631120681762695,0.97,2.45,1.98,3.29
3.773066997528076,1.11,3.09,2.44,4.09
3.7832508087158203,1.05,3.86,2.32,4.62
3.8041539192199707,0.73,4.23,1.71,4.62
3.8045830726623535,0.13,3.94,0.44,3.96
3.813148021697998,-0.49,3.57,-1.29,3.82
3.823194980621338,-1.03,3.28,-3.31,4.77
3.8333277702331543,-1.44,2.73,-4.4,5.37
3.854599952697754,-1.54,2.31,-4.35,5.16
3.8550519943237305,-1.33,2.45,-3.06,4.13
3.8632988929748535,-1.06,2.37,-1.49,2.99
3.873170852661133,-1.08,1.42,-0.75,1.93
3.883359909057617,-1.47,0.23,-0.62,1.61
3.905829906463623,-1.64,-0.36,-0.37,1.71
3.906280040740967,-1.58,-0.2,-0.07,1.59
3.913376808166504,-1.29,0.4,0.02,1.35
3.9231090545654297,-1.03,0.82,-0.1,1.32
3.9334259033203125,-0.62,1.08,-0.35,1.29
3.9548420906066895,-0.16,1.18,-0.58,1.32
3.9552907943725586,0.24,0.87,-0.78,1.19
3.9632887840270996,0.49,0.32,-0.83,1.01
3.9731950759887695,0.6,-0.32,-0.48,0.83
3.9833288192749023,0.53,-1.01,-0.01,1.14
4.0048699378967285,0.39,-1.73,0.37,1.81
4.0053019523620605,0.11,-2.41,0.53,2.47
4.00908899307251,0.11,-2.41,0.52,2.46
4.01927375793457,-0.16,-3.0,0.49,3.04
4.029423952102661,-0.38,-3.46,0.41,3.5
4.039350986480713,-0.48,-3.84,0.3,3.88
4.0543317794799805,-0.42,-4.07,0.16,4.09
4.05915093421936,-0.33,-4.16,0.13,4.17
4.069439888000488,-0.22,-4.04,0.31,4.05
4.079447984695435,-0.15,-3.81,0.62,3.86
4.089415073394775,-0.19,-3.52,0.86,3.62
4.105257034301758,-0.25,-3.22,1.03,3.38
4.1092848777771,-0.39,-2.96,1.1,3.18
4.119358062744141,-0.52,-2.61,1.04,2.85
4.129501819610596,-0.6,-2.18,1.03,2.48
4.139441967010498,-0.59,-1.64,1.07,2.04
4.154150009155273,-0.56,-1.02,1.09,1.59
4.159114837646484,-0.55,-0.52,0.95,1.21
4.169295787811279,-0.59,-0.13,0.73,0.94
4.179425954818726,-0.61,0.19,0.59,0.86
4.189956903457642,-0.7,0.4,0.51,0.95
4.2043137550354,-0.82,0.62,0.7,1.24
4.209166049957275,-0.82,0.91,0.94,1.54
4.219267845153809,-0.84,1.14,0.87,1.66
4.2294089794158936,-0.96,1.29,0.52,1.69
4.239407062530518,-1.07,1.64,0.27,1.97
4.255191802978516,-1.11,2.33,0.52,2.63
4.259398937225342,-0.99,3.12,1.11,3.45
4.269290924072266,-0.63,3.54,1.48,3.88
4.27953577041626,-0.23,3.61,1.39,3.87
4.289403915405273,0.1,3.93,1.27,4.13
4.305417060852051,0.4,4.06,1.06,4.21
4.309325933456421,0.56,3.64,0.13,3.68
4.319433927536011,0.5,2.74,-1.75,3.28
4.329591989517212,0.56,2.06,-3.71,4.28
4.339448928833008,0.9,1.92,-4.18,4.68
4.355526924133301,1.5,1.85,-3.38,4.13
4.359253883361816,1.84,1.21,-2.17,3.09
4.369309902191162,2.08,0.15,-1.17,2.39
4.379496097564697,2.28,-0.68,-0.65,2.46
4.389466762542725,2.1,-0.82,-0.62,2.33
4.411635875701904,1.42,0.52,-0.9,1.75
4.412868022918701,1.13,1.18,-0.88,1.85
4.422085762023926,0.8,1.68,-0.86,2.04
4.4322638511657715,0.63,2.12,-0.89,2.38
4.457604885101318,0.5,2.38,-0.85,2.57
4.458050966262817,0.22,1.98,-0.63,2.08
4.462120056152344,-0.24,0.97,-0.28,1.03
4.472012996673584,-0.56,-0.11,0.28,0.63
4.482270956039429,-0.87,-1.13,0.79,1.63
4.506558895111084,-1.07,-2.14,1.08,2.62
4.506999969482422,-1.21,-2.95,1.1,3.37
4.512181758880615,-1.12,-3.47,1.04,3.79
4.522087097167969,-0.96,-3.72,0.86,3.93
4.532238006591797,-0.79,-3.63,0.74,3.78
4.557167053222656,-0.6,-3.41,0.73,3.53
4.557617902755737,-0.41,-3.21,0.75,3.32
4.5620739459991455,-0.2,-3.04,0.75,3.13
4.572115898132324,-0.12,-2.86,0.76,2.96
4.582273960113525,-0.04,-2.61,0.83,2.73
4.607104778289795,0.02,-2.38,1.02,2.58
4.6075520515441895,0.0,-2.26,1.3,2.6
4.612191915512085,0.07,-2.19,1.39,2.59
4.622091770172119,0.14,-2.05,1.45,2.51
4.6322197914123535,0.21,-1.8,1.39,2.28
4.657067775726318,0.32,-1.46,1.17,1.89
4.657505989074707,0.39,-1.1,0.82,1.42
4.662167072296143,0.52,-0.7,0.27,0.91
4.672098875045776,0.73,-0.25,-0.09,0.77
4.682292938232422,0.63,0.26,0.09,0.68
4.7073798179626465,0.57,0.66,0.59,1.05
4.707798957824707,0.47,0.81,0.5,1.06
4.712217807769775,0.39,1.02,-0.13,1.09
4.722148895263672,0.62,1.59,-0.14,1.71
4.732335090637207,1.04,2.5,0.75,2.8
4.75738787651062,1.37,3.47,1.85,4.16
4.757812976837158,1.29,4.33,2.12,4.99
4.762142896652222,1.0,4.92,1.52,5.24
4.77219295501709,0.39,4.93,0.22,4.95
4.782381057739258,-0.37,4.57,-1.73,4.9
4.807466983795166,-0.84,4.01,-3.46,5.36
4.807897090911865,-1.12,3.3,-4.01,5.31
4.812179088592529,-1.11,2.99,-3.51,4.74
4.822135925292969,-0.88,2.77,-2.57,3.87
4.832343101501465,-0.85,1.96,-1.87,2.83
4.842118978500366,-1.17,0.9,-1.44,2.06
4.858046054840088,-1.52,0.07,-0.85,1.74
4.8622517585754395,-1.69,-0.36,-0.15,1.73
4.872193813323975,-1.63,-0.32,0.16,1.66
4.882325887680054,-1.36,0.05,0.04,1.36
4.892251968383789,-1.07,0.31,-0.18,1.12
4.908400058746338,-0.65,0.42,-0.33,0.84
4.9123687744140625,-0.24,0.41,-0.54,0.71
4.922146797180176,0.14,0.28,-0.61,0.68
4.932349920272827,0.36,0.02,-0.57,0.67
4.942309856414795,0.57,-0.33,-0.37,0.75
4.958241939544678,0.66,-0.87,-0.12,1.09
4.962337017059326,0.55,-1.55,0.09,1.64
4.972140789031982,0.4,-2.22,0.23,2.26
4.98236608505249,0.16,-2.8,0.3,2.82
4.992305755615234,0.03,-3.21,0.39,3.23
5.008163928985596,-0.1,-3.4,0.37,3.42
5.012314796447754,-0.08,-3.42,0.23,3.42
5.022112846374512,-0.12,-3.42,0.21,3.42
5.032321929931641,-0.11,-3.42,0.36,3.44
5.042191028594971,-0.11,-3.38,0.47,3.41
5.058488845825195,-0.12,-3.32,0.53,3.36
5.062182903289795,-0.13,-3.24,0.55,3.28
5.072267055511475,-0.17,-3.18,0.64,3.24
5.082306861877441,-0.26,-3.11,0.89,3.24
5.092230796813965,-0.26,-2.94,1.01,3.11
5.10832405090332,-0.32,-2.66,1.23,2.94
5.112422943115234,-0.4,-2.5,1.27,2.83
5.122229099273682,-0.5,-2.24,1.3,2.63
5.132412910461426,-0.59,-1.76,1.24,2.23
5.142305850982666,-0.69,-1.08,1.2,1.75
5.158361911773682,-0.78,-0.41,1.1,1.4
5.162130832672119,-0.76,0.31,1.14,1.4
5.172230958938599,-0.65,1.08,1.17,1.71
5.182226896286011,-0.59,1.65,0.96,1.99
5.192296981811523,-0.64,1.88,0.56,2.06
5.207566976547241,-0.86,2.02,0.26,2.21
5.212288856506348,-1.02,2.51,0.44,2.74
5.222157001495361,-0.97,3.39,1.21,3.72
5.232345104217529,-0.85,4.01,1.96,4.54
5.2423858642578125,-0.63,4.26,2.08,4.78
5.258254051208496,-0.3,4.77,1.61,5.04
5.262319087982178,0.15,5.03,0.81,5.09
5.272256851196289,0.3,4.4,-0.85,4.49
5.282426834106445,0.51,3.51,-2.78,4.5
5.292381763458252,0.79,2.86,-3.84,4.85
5.308115005493164,1.14,2.45,-4.02,4.84
5.312442779541016,1.52,1.94,-3.66,4.41
5.322268009185791,1.74,1.06,-2.9,3.54
5.332340955734253,1.81,-0.13,-1.67,2.46
5.342380046844482,1.9,-1.06,-0.41,2.21
5.358426094055176,1.92,-1.33,0.49,2.38
5.362294912338257,1.94,-0.89,0.56,2.2
5.372325897216797,1.72,-0.06,-0.08,1.72
5.3823158740997314,1.4,0.9,-0.59,1.76
5.3924150466918945,1.0,1.62,-0.76,2.04
5.408592939376831,0.64,2.07,-0.91,2.35
5.412378787994385,0.24,2.15,-1.22,2.48
5.4222869873046875,-0.19,1.81,-1.48,2.34
5.432368755340576,-0.65,1.11,-1.24,1.78
5.442440032958984,-1.03,0.21,-0.56,1.19
5.459323883056641,-1.27,-0.71,0.19,1.46
5.46235990524292,-1.37,-1.69,0.62,2.26
5.472554922103882,-1.33,-2.59,0.8,3.01
5.4823808670043945,-1.15,-3.28,0.96,3.6
5.492486000061035,-0.96,-3.67,1.08,3.94
5.508732795715332,-0.68,-3.87,1.12,4.08
5.512270927429199,-0.5,-3.88,1.04,4.04
5.522303104400635,-0.39,-3.75,1.03,3.9
5.532494068145752,-0.31,-3.63,1.12,3.81
5.5424559116363525,-0.28,-3.49,1.1,3.66
5.559014797210693,-0.24,-3.28,1.01,3.44
5.56249475479126,-0.16,-3.02,0.98,3.17
5.572419881820679,-0.04,-2.7,1.19,2.95
5.582602024078369,0.17,-2.34,1.33,2.69
5.592458963394165,0.34,-2.05,1.29,2.44
5.608872890472412,0.35,-1.86,1.06,2.16
5.612400054931641,0.34,-1.68,0.88,1.92
5.622313022613525,0.36,-1.38,0.79,1.63
5.632575988769531,0.39,-1.02,0.84,1.37
5.642435073852539,0.44,-0.53,0.99,1.2
5.659375905990601,0.37,-0.03,1.09,1.15
5.6622068881988525,0.35,0.31,0.93,1.04
5.672393798828125,0.29,0.61,0.49,0.83
5.682583808898926,0.31,1.23,0.15,1.27
5.692485809326172,0.57,2.11,0.55,2.25
5.709479808807373,0.79,3.04,1.31,3.4
5.712303876876831,0.91,4.03,1.63,4.44
5.723176956176758,1.02,5.04,1.57,5.37
5.732485771179199,0.74,5.47,0.85,5.58
5.7425360679626465,0.15,4.99,-0.8,5.05
5.759459018707275,-0.5,4.45,-2.64,5.19
5.76243782043457,-0.75,4.02,-3.42,5.33
5.77239990234375,-0.85,3.39,-3.05,4.63
5.782711982727051,-0.91,2.82,-2.23,3.7
5.792483806610107,-0.92,2.14,-1.69,2.87
5.809220790863037,-1.03,1.19,-1.43,2.12
5.8126068115234375,-1.34,0.32,-1.25,1.86
5.822467803955078,-1.6,-0.11,-0.97,1.87
5.832491874694824,-1.79,-0.11,-0.67,1.91
5.842526912689209,-1.78,0.12,-0.52,1.85
5.859560012817383,-1.72,0.47,-0.7,1.91
5.862436771392822,-1.57,0.88,-0.71,1.93
5.872550010681152,-1.29,1.19,-0.48,1.81
5.88246488571167,-0.99,1.3,-0.29,1.65
5.892546892166138,-0.61,1.19,-0.27,1.36
5.909358024597168,-0.28,0.89,-0.34,0.99
5.912539958953857,0.01,0.38,-0.28,0.47
5.922382831573486,0.22,-0.37,-0.13,0.44
5.932300090789795,0.16,-1.18,0.08,1.19
5.9425048828125,-0.01,-1.88,0.32,1.9
5.959445953369141,-0.15,-2.5,0.34,2.52
5.962377071380615,-0.32,-3.0,0.32,3.03
5.973243951797485,-0.42,-3.33,0.34,3.37
5.982310771942139,-0.46,-3.44,0.45,3.49
5.992630958557129,-0.44,-3.45,0.62,3.53
6.010118007659912,-0.42,-3.44,0.74,3.54
6.012439966201782,-0.41,-3.33,0.8,3.44
6.022465944290161,-0.44,-3.22,0.9,3.37
6.032561779022217,-0.46,-3.13,0.98,3.31
6.042543888092041,-0.51,-3.04,1.06,3.25
6.060030937194824,-0.57,-2.92,1.1,3.17
6.062335014343262,-0.72,-2.82,1.16,3.13
6.072494029998779,-0.81,-2.66,1.24,3.04
6.082596778869629,-0.87,-2.31,1.2,2.74
6.092497825622559,-0.82,-1.86,1.02,2.27
6.109472990036011,-0.75,-1.37,1.0,1.85
6.112401008605957,-0.69,-0.79,1.01,1.45
6.122550964355469,-0.67,-0.09,1.0,1.2
6.132497787475586,-0.71,0.66,1.16,1.51
6.142453908920288,-0.76,1.24,1.31,1.95
6.159597873687744,-0.88,1.54,1.23,2.15
6.162348985671997,-0.99,1.63,0.55,1.98
6.17263388633728,-1.04,1.76,-0.06,2.04
6.182568073272705,-0.94,2.24,0.24,2.44
6.192562103271484,-0.81,3.04,1.43,3.45
6.209718942642212,-0.68,3.76,2.18,4.39
6.212306022644043,-0.61,4.22,1.31,4.46
6.222541809082031,-0.19,4.63,0.36,4.64
6.232411861419678,0.11,4.42,-0.38,4.43
6.242499828338623,0.36,3.61,-2.14,4.21
6.259392976760864,0.75,2.97,-3.92,4.97
6.262321949005127,1.35,2.81,-4.39,5.38
6.272585868835449,2.11,2.58,-3.87,5.1
6.282632827758789,2.51,1.8,-3.16,4.41
6.29252290725708,2.6,0.64,-2.31,3.53
6.310086965560913,2.67,-0.24,-1.36,3.0
6.312417984008789,2.59,-0.57,-0.63,2.72
6.322606086730957,2.37,-0.5,-0.48,2.46
6.3325090408325195,1.92,-0.03,-1.03,2.17
6.342495918273926,1.39,0.83,-1.33,2.09
6.359452962875366,0.92,1.76,-1.1,2.27
6.362362861633301,0.53,2.46,-0.82,2.64
6.372625827789307,0.22,2.82,-0.71,2.91
6.382477760314941,-0.1,2.68,-0.78,2.79
6.392589092254639,-0.44,1.96,-0.7,2.12
6.409667015075684,-0.65,0.9,-0.17,1.12
6.412476062774658,-0.71,-0.21,0.56,0.92
6.422616958618164,-0.57,-1.28,1.08,1.76
6.432625770568848,-0.33,-2.21,1.19,2.53
6.442553997039795,-0.09,-2.91,1.12,3.11
6.460172891616821,0.15,-3.32,0.93,3.45
6.462556838989258,0.38,-3.36,0.78,3.47
6.472697973251343,0.4,-3.2,0.67,3.29
6.48252010345459,0.29,-3.0,0.63,3.07
6.492572784423828,0.19,-2.71,0.66,2.79
6.5104217529296875,0.13,-2.48,0.78,2.6
6.512601852416992,-0.05,-2.36,0.88,2.51
6.522634029388428,-0.07,-2.31,0.99,2.51
6.532526016235352,-0.05,-2.33,1.05,2.55
6.542542934417725,0.08,-2.37,1.08,2.6
6.560542106628418,0.16,-2.43,1.06,2.65
6.562644958496094,0.19,-2.55,1.07,2.77
6.572659015655518,0.24,-2.55,1.22,2.83
6.582533836364746,0.33,-2.31,1.25,2.64
6.592741966247559,0.37,-2.06,1.08,2.35
6.6109747886657715,0.38,-1.77,0.79,1.97
6.61286187171936,0.36,-1.31,0.8,1.57
6.62271785736084,0.37,-0.72,1.07,1.34
6.632579803466797,0.42,-0.23,1.29,1.37
6.642754077911377,0.23,0.0,1.12,1.14
6.660767078399658,0.03,0.27,0.52,0.58
6.662892818450928,0.05,0.92,0.29,0.96
6.672688961029053,0.39,1.96,0.84,2.16
6.682551860809326,0.86,3.15,1.63,3.64
6.692628860473633,1.17,4.45,1.92,4.98
6.710290908813477,1.37,5.61,1.66,6.0
6.713036060333252,1.09,5.8,0.84,5.96
6.722569942474365,0.49,5.18,-0.82,5.26
6.732667922973633,-0.17,4.52,-3.05,5.45
6.742778778076172,-0.6,3.89,-4.64,6.08
6.760964870452881,-0.85,3.28,-4.53,5.65
6.763067960739136,-1.03,2.88,-3.38,4.55
6.772771835327148,-1.11,2.11,-2.1,3.17
6.782524108886719,-1.26,1.02,-1.25,2.04
6.792756080627441,-1.47,0.11,-0.79,1.67
6.810496807098389,-1.52,-0.32,-0.45,1.61
6.813149929046631,-1.46,-0.27,-0.19,1.49
6.822772979736328,-1.39,0.23,-0.33,1.44
6.832583904266357,-1.18,0.84,-0.56,1.55
6.842679023742676,-0.94,1.29,-0.54,1.68
6.860897064208984,-0.67,1.57,-0.52,1.78
6.863235950469971,-0.42,1.59,-0.65,1.76
6.872813940048218,-0.19,1.27,-0.71,1.46
6.8826518058776855,0.04,0.69,-0.59,0.9
6.892682075500488,0.24,-0.08,-0.3,0.39
6.91117000579834,0.24,-1.05,0.13,1.08
6.913177967071533,0.13,-2.04,0.52,2.1
6.922699928283691,-0.02,-2.94,0.71,3.02
6.932685852050781,-0.29,-3.67,0.68,3.74
6.942671775817871,-0.46,-4.22,0.56,4.28
6.9614739418029785,-0.52,-4.47,0.36,4.51
6.962608814239502,-0.53,-4.41,0.21,4.44
6.97273588180542,-0.49,-4.17,0.27,4.2
6.9826459884643555,-0.46,-3.82,0.44,3.87
6.992642879486084,-0.46,-3.54,0.62,3.62
7.011213779449463,-0.48,-3.36,0.66,3.45
7.012595891952515,-0.48,-3.24,0.71,3.35
7.022761821746826,-0.52,-3.14,0.85,3.29
7.032679080963135,-0.59,-3.04,1.0,3.25
7.042759895324707,-0.62,-2.87,1.08,3.12
7.060934066772461,-0.69,-2.62,1.2,2.96
7.062608957290649,-0.75,-2.27,1.3,2.72
7.072915077209473,-0.67,-1.79,1.2,2.25
7.082596778869629,-0.59,-1.16,1.05,1.67
7.092750072479248,-0.57,-0.46,0.98,1.22
7.111392021179199,-0.65,0.18,0.92,1.14
7.112572908401489,-0.76,0.72,1.02,1.46
7.12281608581543,-0.87,1.2,1.1,1.84
7.132670879364014,-1.02,1.53,1.01,2.09
7.142781972885132,-1.12,1.75,0.75,2.2
7.161650896072388,-1.2,2.14,0.63,2.53
7.162682056427002,-1.17,2.84,1.09,3.25
7.172834873199463,-1.0,3.86,1.91,4.42
7.182647943496704,-0.76,4.96,2.39,5.55
7.192800045013428,-0.41,5.78,2.28,6.22
7.211774826049805,0.03,6.13,1.69,6.35
7.2127227783203125,0.44,5.62,0.21,5.64
7.222766876220703,0.6,4.42,-2.0,4.88
7.232639789581299,0.65,3.2,-3.83,5.03
7.242763996124268,0.79,2.54,-4.11,4.89
7.262146949768066,1.22,2.05,-3.12,3.92
7.262626886367798,1.64,1.08,-1.99,2.79
7.272922039031982,1.93,-0.15,-1.26,2.3
7.2827019691467285,2.19,-1.01,-0.8,2.54
7.292799949645996,2.4,-1.28,-0.52,2.76
7.3118767738342285,2.43,-1.03,-0.48,2.68
7.312635898590088,2.25,-0.34,-0.84,2.42
7.3228631019592285,1.79,0.46,-0.99,2.09
7.332726955413818,1.37,1.23,-0.78,1.99
7.3428449630737305,0.99,1.76,-0.63,2.11
7.361950874328613,0.65,1.96,-0.86,2.23
7.362602949142456,0.27,1.69,-1.25,2.11
7.372957944869995,-0.17,1.14,-1.3,1.73
7.382912874221802,-0.47,0.35,-0.9,1.07
7.392896890640259,-0.67,-0.61,-0.26,0.94
7.411986827850342,-0.77,-1.61,0.34,1.81
7.41272497177124,-0.76,-2.49,0.76,2.71
7.422940969467163,-0.62,-3.12,1.03,3.34
7.432768821716309,-0.46,-3.6,1.14,3.8
7.442796945571899,-0.37,-3.91,1.11,4.08
7.462018013000488,-0.21,-3.99,0.99,4.11
7.4626898765563965,-0.11,-3.79,0.89,3.89
7.472923755645752,-0.11,-3.45,0.91,3.56
7.482743978500366,-0.1,-3.03,0.98,3.18
7.492928981781006,-0.03,-2.61,0.94,2.77
7.511979103088379,-0.01,-2.27,0.86,2.42
7.512752056121826,0.04,-2.15,0.96,2.35
7.522932052612305,0.11,-2.06,1.17,2.37
7.532827854156494,0.26,-1.98,1.44,2.46
7.542831897735596,0.39,-1.9,1.6,2.51
7.562469959259033,0.41,-1.82,1.59,2.45
7.562849044799805,0.37,-1.72,1.45,2.27
7.572845935821533,0.34,-1.49,1.2,1.94
7.582777976989746,0.37,-1.17,0.97,1.56
7.592920780181885,0.31,-0.77,0.87,1.2
7.61234188079834,0.38,-0.21,0.86,0.96
7.612716913223267,0.56,0.29,0.96,1.14
7.622828006744385,0.56,0.64,0.86,1.2
7.63285493850708,0.44,0.93,0.38,1.09
7.642982006072998,0.45,1.33,-0.15,1.41
7.662065029144287,0.56,1.95,0.08,2.03
7.662713050842285,0.77,2.89,0.8,3.09
7.6729607582092285,1.03,4.26,1.61,4.66
7.682835102081299,1.25,5.72,1.99,6.18
7.69297981262207,1.05,6.37,0.85,6.51
7.711721897125244,0.32,5.99,-1.78,6.25
7.712774753570557,-0.27,5.19,-4.37,6.79
7.722902774810791,-0.54,4.25,-5.23,6.76
7.732875823974609,-0.61,3.57,-4.06,5.44
7.742891788482666,-0.7,3.0,-2.56,4.0
7.762156963348389,-0.78,2.03,-1.43,2.6
7.7627058029174805,-1.05,0.89,-0.68,1.53
7.772964954376221,-1.44,0.11,-0.4,1.49
7.7828898429870605,-1.62,-0.11,-0.44,1.68
7.792963981628418,-1.48,0.12,-0.69,1.63
7.811621904373169,-1.29,0.55,-1.05,1.75
7.81279182434082,-1.05,0.88,-1.21,1.82
7.822923898696899,-0.79,1.11,-1.07,1.73
7.832818031311035,-0.54,1.1,-0.87,1.5
7.842926979064941,-0.32,0.86,-0.7,1.15
7.861845016479492,-0.09,0.51,-0.6,0.79
7.8627259731292725,0.02,0.01,-0.47,0.47
7.872950077056885,0.06,-0.7,-0.22,0.73
7.8828630447387695,-0.06,-1.45,0.06,1.45
7.892966985702515,-0.25,-2.23,0.28,2.26
7.9120259284973145,-0.44,-3.02,0.48,3.08
7.912765026092529,-0.6,-3.66,0.51,3.74
7.923011779785156,-0.57,-4.08,0.28,4.12
7.933021068572998,-0.53,-4.25,0.05,4.28
7.942937850952148,-0.49,-4.24,0.04,4.26
7.962613105773926,-0.4,-4.1,0.2,4.12
7.962998867034912,-0.24,-3.79,0.4,3.81
7.973002910614014,-0.19,-3.53,0.5,3.57
7.982930898666382,-0.17,-3.33,0.58,3.38
7.993043899536133,-0.14,-3.14,0.68,3.21
8.012337923049927,-0.13,-2.93,0.74,3.02
8.012648105621338,-0.15,-2.93,0.75,3.02
8.0201997756958,-0.16,-2.77,0.82,2.89
8.030334949493408,-0.25,-2.61,0.94,2.78
8.044863939285278,-0.35,-2.42,1.03,2.65
8.0503568649292,-0.43,-2.15,0.99,2.4
8.060152053833008,-0.5,-1.77,1.03,2.1
8.070456981658936,-0.51,-1.25,0.89,1.61
8.080327033996582,-0.59,-0.59,0.95,1.26
8.095018863677979,-0.74,0.04,1.14,1.35
8.100369930267334,-0.74,0.62,1.3,1.61
8.110351085662842,-0.96,1.06,1.14,1.82
8.12032699584961,-1.1,1.25,0.7,1.8
8.13036298751831,-1.37,1.53,0.27,2.07
8.145719051361084,-1.53,2.13,0.24,2.63
8.150268077850342,-1.57,3.0,1.11,3.56
8.160240888595581,-1.42,4.01,2.35,4.85
8.170389890670776,-0.91,4.78,2.92,5.67
8.180327892303467,-0.29,5.3,2.35,5.8
8.196278095245361,0.32,5.7,1.49,5.9
8.200255870819092,0.69,5.36,0.46,5.42
8.210278034210205,0.79,4.17,-1.43,4.47
8.220348834991455,0.78,3.01,-3.48,4.66
8.230353832244873,0.99,2.56,-4.46,5.23
8.24652099609375,1.52,2.29,-4.29,5.09
8.250292778015137,1.98,1.64,-3.58,4.4
8.260339975357056,2.33,0.52,-2.53,3.47
8.270485877990723,2.52,-0.57,-1.34,2.91
8.28032898902893,2.67,-1.15,-0.29,2.92
8.2965087890625,2.65,-1.11,0.1,2.87
8.30042290687561,2.39,-0.59,-0.32,2.48
8.310458898544312,1.93,0.1,-0.78,2.08
8.320434093475342,1.43,0.83,-0.85,1.85
8.330434799194336,0.97,1.43,-0.68,1.85
8.347510814666748,0.44,1.69,-0.62,1.85
8.350278854370117,0.05,1.65,-0.75,1.81
8.360383033752441,-0.35,1.22,-0.82,1.51
8.370450019836426,-0.66,0.51,-0.54,0.99
8.380466938018799,-0.9,-0.4,0.02,0.98
8.396821022033691,-1.05,-1.41,0.42,1.8
8.400753021240234,-0.96,-2.3,0.7,2.58
8.411967754364014,-0.5,-3.41,0.92,3.56
8.421936988830566,-0.22,-3.67,0.79,3.76
8.431851863861084,-0.02,-3.76,0.65,3.81
8.448455810546875,0.06,-3.68,0.6,3.72
8.451972007751465,0.13,-3.48,0.68,3.54
8.461837768554688,0.12,-3.24,0.81,3.34
8.471874952316284,0.07,-2.92,0.85,3.04
8.481879949569702,-0.01,-2.6,0.94,2.76
8.498748779296875,-0.01,-2.31,1.06,2.54
8.501779079437256,0.02,-2.11,1.1,2.37
8.511863946914673,0.15,-1.9,1.18,2.24
8.521854877471924,0.34,-1.67,1.25,2.11
8.531877994537354,0.48,-1.46,1.22,1.96
8.548985004425049,0.58,-1.25,1.13,1.78
8.551808834075928,0.61,-0.86,1.07,1.5
8.561923027038574,0.57,-0.42,0.95,1.18
8.571866035461426,0.4,-0.03,0.78,0.87
8.581829071044922,0.29,0.32,0.57,0.71
8.598975896835327,0.19,0.58,0.35,0.7
8.601938962936401,0.17,0.67,0.1,0.69
8.611916065216064,0.27,0.86,-0.18,0.91
8.621923923492432,0.52,1.29,0.04,1.39
8.631893873214722,0.96,1.9,0.99,2.34
8.648674011230469,1.43,2.8,2.17,3.82
8.651969909667969,1.62,4.12,2.8,5.23
8.66182279586792,1.5,5.18,2.54,5.96
8.671969890594482,1.01,5.32,1.16,5.53
8.681879997253418,0.18,4.81,-1.19,4.95
8.698137760162354,-0.55,4.27,-3.35,5.45
8.701966762542725,-1.02,3.73,-4.14,5.66
8.711864948272705,-1.37,3.12,-3.69,5.02
8.72192096710205,-1.54,2.67,-3.04,4.32
8.732006072998047,-1.6,2.09,-2.37,3.54
8.748589992523193,-1.63,1.3,-1.75,2.72
8.751885890960693,-1.76,0.63,-1.14,2.18
8.761849880218506,-1.78,0.18,-0.59,1.88
8.772103786468506,-1.74,0.05,-0.17,1.74
8.781924962997437,-1.52,0.33,-0.19,1.56
8.798449039459229,-1.19,0.76,-0.43,1.47
8.802002906799316,-0.9,1.05,-0.68,1.54
8.81184697151184,-0.49,1.09,-0.93,1.51
8.821988105773926,-0.2,0.85,-0.95,1.29
8.832005977630615,0.05,0.34,-0.73,0.8
8.848140954971313,0.27,-0.31,-0.44,0.6
8.85202407836914,0.37,-1.12,-0.26,1.2
8.861883878707886,0.32,-2.02,-0.12,2.04
8.872098922729492,0.13,-2.9,0.02,2.9
8.881968021392822,-0.08,-3.65,0.15,3.65
8.898122787475586,-0.26,-4.24,0.2,4.25
8.901901960372925,-0.36,-4.57,0.13,4.58
8.911977767944336,-0.4,-4.61,0.01,4.62
8.921988010406494,-0.35,-4.38,0.0,4.39
8.932043075561523,-0.24,-4.03,0.16,4.04
8.948888778686523,-0.18,-3.67,0.43,3.69
8.952091932296753,-0.12,-3.39,0.67,3.45
8.961915016174316,-0.12,-3.15,0.8,3.25
8.972203969955444,-0.16,-2.88,0.83,3.0
8.981921911239624,-0.18,-2.63,0.84,2.76
8.99822187423706,-0.28,-2.3,0.88,2.47
9.002014875411987,-0.43,-2.0,1.06,2.3
9.011957883834839,-0.53,-1.76,1.11,2.14
9.022060871124268,-0.58,-1.4,1.04,1.83
9.032047986984253,-0.61,-0.98,1.0,1.52
9.04882287979126,-0.61,-0.5,1.01,1.28
9.052006959915161,-0.77,-0.12,1.09,1.33
9.061851024627686,-0.93,0.2,1.23,1.55
9.072075843811035,-1.01,0.54,1.33,1.75
9.08204698562622,-1.05,0.9,1.29,1.89
9.098972797393799,-1.08,1.23,1.15,2.0
9.102059841156006,-1.07,1.47,0.97,2.06
9.111944913864136,-1.13,1.81,0.79,2.27
9.12205982208252,-1.16,2.3,1.05,2.78
9.132046937942505,-1.09,3.12,1.8,3.76
9.148318767547607,-0.95,4.07,2.49,4.86
9.152118921279907,-0.67,4.93,2.62,5.62
9.16195297241211,-0.25,5.61,2.14,6.0
9.172122955322266,0.12,5.62,1.18,5.74
9.182015895843506,0.33,4.75,-0.54,4.79
9.198404788970947,0.49,3.5,-2.58,4.37
9.202001094818115,0.66,2.64,-3.59,4.5
9.212025880813599,0.93,2.22,-3.41,4.17
9.221986770629883,1.36,1.68,-2.81,3.54
9.23196792602539,1.71,0.82,-2.35,3.01
9.24805498123169,1.94,-0.17,-1.91,2.72
9.251955032348633,2.21,-0.89,-1.37,2.74
9.261987924575806,2.37,-1.13,-0.69,2.71
9.27214789390564,2.32,-0.9,-0.23,2.49
9.281997919082642,2.1,-0.34,-0.28,2.14
9.29859209060669,1.79,0.37,-0.55,1.9
9.301934957504272,1.38,1.01,-0.53,1.79
9.312132835388184,1.02,1.56,-0.39,1.9
9.322102069854736,0.65,2.0,-0.45,2.15
9.332124948501587,0.19,2.13,-0.69,2.24
9.348867893218994,-0.32,1.7,-0.76,1.88
9.352049827575684,-0.7,0.87,-0.51,1.22
9.362063884735107,-0.97,-0.13,-0.11,0.98
9.372139930725098,-1.1,-1.2,0.24,1.64
9.38209581375122,-1.04,-2.18,0.52,2.47
9.398859024047852,-0.82,-3.01,0.74,3.2
9.401953935623169,-0.56,-3.72,0.68,3.82
9.412100791931152,-0.44,-4.14,0.56,4.2
9.422128915786743,-0.42,-4.32,0.7,4.39
9.432061910629272,-0.34,-4.3,0.91,4.4
9.448966979980469,-0.29,-4.16,0.99,4.28
9.452075004577637,-0.23,-3.95,0.93,4.06
9.462094783782959,-0.15,-3.71,0.82,3.8
9.472161769866943,-0.14,-3.46,0.78,3.54
9.482104778289795,-0.07,-3.2,0.87,3.31
9.498727798461914,0.07,-2.87,1.13,3.08
9.502039909362793,0.22,-2.42,1.42,2.81
9.51208209991455,0.42,-1.96,1.57,2.54
9.522161960601807,0.64,-1.55,1.6,2.31
9.532135009765625,0.75,-1.12,1.53,2.03
9.548611879348755,0.78,-0.71,1.35,1.71
9.552011013031006,0.77,-0.3,1.08,1.35
9.562077045440674,0.72,0.14,0.72,1.02
9.57221508026123,0.67,0.7,0.43,1.06
9.582108974456787,0.6,1.3,0.42,1.49
9.598960876464844,0.56,1.84,0.59,2.01
9.602005958557129,0.46,2.25,0.34,2.32
9.612160921096802,0.42,2.35,-0.01,2.38
9.622092962265015,0.6,2.48,0.41,2.58
9.632153034210205,0.84,3.19,1.27,3.53
9.648583889007568,1.09,4.41,1.92,4.93
9.652026891708374,1.2,5.38,1.82,5.8
9.662086009979248,0.88,5.3,0.56,5.4
9.672297954559326,0.06,4.32,-1.94,4.73
9.68212080001831,-0.75,3.38,-4.17,5.41
9.698667049407959,-1.23,2.77,-4.5,5.42
9.70199990272522,-1.53,2.55,-3.59,4.66
9.712147951126099,-1.71,2.38,-2.62,3.93
9.722063064575195,-1.83,1.79,-1.83,3.14
9.732187986373901,-1.92,1.14,-1.2,2.53
9.748907089233398,-1.99,0.77,-0.92,2.32
9.752077102661133,-1.92,0.78,-0.62,2.16
9.762099981307983,-1.69,1.07,-0.33,2.02
9.772325992584229,-1.45,1.45,-0.14,2.05
9.782166957855225,-1.11,1.62,-0.16,1.97
9.798923015594482,-0.69,1.46,-0.34,1.65
9.8020498752594,-0.36,1.05,-0.42,1.18
9.81217908859253,-0.1,0.6,-0.4,0.72
9.822074890136719,0.07,0.16,-0.35,0.39
9.832205772399902,0.21,-0.45,-0.22,0.54
9.849103927612305,0.23,-1.15,0.02,1.17
9.85205602645874,0.07,-1.92,0.21,1.93
9.862238883972168,-0.12,-2.66,0.33,2.68
9.872384071350098,-0.27,-3.38,0.34,3.4
9.882203102111816,-0.42,-3.93,0.3,3.96
9.899050951004028,-0.51,-4.22,0.17,4.25
9.902050018310547,-0.48,-4.33,0.02,4.35
9.91231107711792,-0.46,-4.27,0.16,4.29
9.922149896621704,-0.35,-4.1,0.46,4.14
9.932288885116577,-0.32,-3.9,0.71,3.97
9.949691772460938,-0.37,-3.78,0.91,3.9
9.95221996307373,-0.39,-3.63,0.95,3.77
9.962320804595947,-0.41,-3.46,0.97,3.61
9.97217082977295,-0.43,-3.31,1.0,3.48
9.982219934463501,-0.53,-3.14,1.01,3.34
10.000016927719116,-0.57,-2.91,1.09,3.15
10.002223014831543,-0.56,-2.55,1.17,2.86
10.012383937835693,-0.57,-2.05,1.22,2.45
10.022369861602783,-0.66,-1.44,1.21,1.99
10.03224492073059,-0.7,-0.84,1.09,1.54
10.049152851104736,-0.75,-0.27,0.88,1.18
10.052457809448242,-0.78,0.36,0.78,1.16
10.062457084655762,-0.86,1.03,0.76,1.54
10.0723237991333,-0.86,1.64,0.68,1.97
10.082218885421753,-0.83,2.15,0.48,2.35
10.099740982055664,-0.93,2.67,0.46,2.86
10.102396011352539,-1.0,3.42,1.06,3.71
10.112427949905396,-0.89,4.22,2.17,4.82
10.122217893600464,-0.66,4.85,2.77,5.62
10.132304906845093,-0.4,5.39,2.54,5.97
10.150197982788086,-0.04,5.81,1.96,6.13
10.152540922164917,0.34,5.57,0.57,5.6
10.162294864654541,0.64,4.49,-2.01,4.96
10.17222785949707,0.94,3.34,-4.4,5.6
10.182267904281616,1.26,2.74,-4.8,5.66
10.200362920761108,1.85,2.4,-3.63,4.72
10.202599048614502,2.37,1.64,-2.3,3.68
10.21247386932373,2.59,0.4,-1.61,3.07
10.222202777862549,2.65,-0.75,-1.17,2.99
10.2322359085083,2.65,-1.38,-0.68,3.06
10.250106811523438,2.51,-1.41,-0.42,2.9
10.252777099609375,2.22,-0.85,-0.59,2.44
10.262434005737305,1.76,0.02,-0.81,1.93
10.272263050079346,1.25,0.81,-0.69,1.64
10.282264947891235,0.8,1.45,-0.45,1.71
10.300457954406738,0.47,1.93,-0.41,2.02
10.302870988845825,0.15,2.15,-0.68,2.25
10.31255578994751,-0.18,1.9,-1.07,2.18
10.322320938110352,-0.46,1.23,-1.13,1.73
10.332417964935303,-0.62,0.29,-0.73,1.0
10.350673913955688,-0.78,-0.8,-0.03,1.11
10.35298776626587,-0.8,-1.77,0.69,2.06
10.362383842468262,-0.68,-2.5,1.18,2.84
10.37231993675232,-0.45,-3.07,1.35,3.38
10.382333755493164,-0.24,-3.53,1.24,3.74
10.40068793296814,-0.03,-3.95,0.99,4.07
10.402297019958496,0.02,-4.16,0.72,4.22
10.412446975708008,0.09,-4.1,0.59,4.14
10.422342777252197,0.12,-3.81,0.73,3.88
10.432390928268433,0.09,-3.46,0.85,3.56
10.451182842254639,0.09,-3.15,1.03,3.31
10.452287912368774,0.13,-2.83,1.13,3.05
10.462372779846191,0.22,-2.53,1.16,2.79
10.472433090209961,0.26,-2.27,1.24,2.59
10.482340812683105,0.3,-2.02,1.34,2.44
10.500901937484741,0.32,-1.75,1.37,2.24
10.502264976501465,0.43,-1.52,1.36,2.08
10.51247501373291,0.49,-1.34,1.23,1.88
10.522260904312134,0.48,-1.07,1.03,1.56
10.53239107131958,0.5,-0.68,0.86,1.2
10.551208019256592,0.6,-0.15,0.94,1.12
10.55222487449646,0.61,0.36,1.02,1.24
10.562434911727905,0.48,0.7,0.76,1.13
10.57237696647644,0.31,1.01,0.19,1.07
10.582421779632568,0.32,1.52,-0.07,1.55
10.601112842559814,0.46,2.22,0.48,2.31
10.602316856384277,0.86,3.12,1.53,3.57
10.612488985061646,1.22,4.42,2.38,5.16
10.622312068939209,1.29,5.77,2.39,6.37
10.632438898086548,1.01,6.18,1.05,6.34
10.65096378326416,0.37,5.49,-1.5,5.7
10.652362823486328,-0.38,4.49,-4.49,6.36
10.662430763244629,-0.83,3.62,-5.61,6.72
10.672384977340698,-1.14,3.25,-4.41,5.59
10.682478904724121,-1.34,3.19,-2.7,4.38
10.700829029083252,-1.48,2.71,-1.83,3.58
10.702379941940308,-1.83,1.75,-1.61,3.0
10.712494850158691,-2.19,0.96,-1.36,2.75
10.722311973571777,-2.36,0.58,-0.94,2.6
10.732513904571533,-2.36,0.51,-0.63,2.49
10.750956058502197,-2.24,0.77,-0.67,2.46
10.75242805480957,-1.84,1.15,-0.63,2.25
10.762467861175537,-1.29,1.39,-0.52,1.96
10.772381782531738,-0.77,1.31,-0.37,1.56
10.782485961914062,-0.37,0.91,-0.2,1.0
10.800816059112549,-0.08,0.36,0.0,0.36
10.802268028259277,0.0,-0.3,0.27,0.4
10.81249189376831,0.03,-1.03,0.56,1.17
10.822412967681885,-0.1,-1.92,0.68,2.03
10.832584857940674,-0.3,-2.8,0.64,2.88
10.850888967514038,-0.44,-3.55,0.4,3.59
10.852341890335083,-0.47,-4.11,0.09,4.13
10.862456798553467,-0.4,-4.49,-0.03,4.5
10.872428894042969,-0.36,-4.6,-0.03,4.61
10.882458925247192,-0.21,-4.53,0.16,4.53
10.901190757751465,-0.05,-4.3,0.49,4.32
10.902291774749756,0.05,-4.04,0.72,4.1
10.912535905838013,0.03,-3.8,0.87,3.89
10.922363758087158,-0.04,-3.53,0.92,3.64
10.932492971420288,-0.12,-3.3,1.01,3.45
10.95145297050476,-0.32,-3.11,1.06,3.3
10.952446937561035,-0.51,-2.99,1.09,3.22
10.962501049041748,-0.65,-2.79,1.13,3.07
10.972491979598999,-0.73,-2.37,1.19,2.75
10.982388973236084,-0.82,-1.86,1.19,2.35
11.001491069793701,-0.87,-1.3,1.08,1.9
11.002331972122192,-0.88,-0.61,0.83,1.35
11.012572765350342,-0.93,0.07,0.76,1.2
11.02248477935791,-0.98,0.61,0.87,1.44
11.032526016235352,-1.07,1.05,0.98,1.79
11.051503896713257,-1.14,1.43,1.03,2.09
11.05234694480896,-1.18,1.78,0.85,2.29
11.062525987625122,-1.27,1.95,0.58,2.39
11.072453022003174,-1.35,2.25,0.63,2.69
11.082508087158203,-1.31,2.91,1.21,3.41
11.101600885391235,-1.02,3.91,1.81,4.42
11.102385997772217,-0.63,5.06,2.17,5.54
11.112564086914062,-0.14,6.04,2.22,6.43
11.122416019439697,0.25,6.15,1.01,6.23
11.13255500793457,0.62,5.13,-1.77,5.46
11.152158975601196,0.84,3.82,-4.25,5.77
11.152538776397705,1.14,3.26,-4.55,5.71
11.16258192062378,1.49,2.75,-3.5,4.69
11.172614097595215,1.9,1.52,-2.57,3.53
11.182543754577637,2.2,-0.05,-1.96,2.94
11.201851844787598,2.44,-1.28,-1.21,3.0
11.202411890029907,2.59,-1.8,-0.52,3.19
11.212618827819824,2.56,-1.63,-0.23,3.04
11.222434997558594,2.17,-1.01,-0.52,2.44
11.232615947723389,1.58,-0.19,-1.0,1.87
11.251564979553223,1.02,0.59,-1.16,1.65
11.252405881881714,0.53,1.47,-1.1,1.91
11.262550830841064,0.26,2.31,-1.04,2.54
11.272615909576416,0.08,2.79,-1.08,2.99
11.28251600265503,-0.25,2.54,-0.97,2.73
11.301610946655273,-0.56,1.69,-0.51,1.85
11.302414894104004,-0.66,0.61,0.12,0.9
11.312603950500488,-0.68,-0.47,0.58,1.0
11.322534084320068,-0.53,-1.49,0.86,1.8
11.332619905471802,-0.29,-2.31,0.92,2.5
11.351798057556152,-0.09,-2.96,0.99,3.12
11.35247802734375,-0.01,-3.44,1.04,3.59
11.362588882446289,0.04,-3.77,0.99,3.89
11.372536897659302,0.03,-3.92,0.86,4.01
11.382616996765137,-0.04,-3.85,0.69,3.91
11.402084827423096,-0.16,-3.64,0.63,3.69
11.402545928955078,-0.14,-3.29,0.69,3.36
11.412652015686035,-0.11,-2.89,0.74,2.98
11.422528982162476,-0.06,-2.6,0.9,2.75
11.43264389038086,0.01,-2.34,1.15,2.6
11.45232892036438,0.15,-2.1,1.37,2.51
11.452706813812256,0.29,-1.87,1.5,2.41
11.462677955627441,0.28,-1.74,1.51,2.32
11.472563982009888,0.31,-1.61,1.45,2.18
11.482630968093872,0.33,-1.34,1.19,1.82
11.502258777618408,0.29,-0.96,0.89,1.34
11.50264596939087,0.28,-0.52,0.55,0.8
11.51271104812622,0.32,0.06,0.44,0.54
11.522559881210327,0.41,0.67,0.41,0.88
11.53268575668335,0.46,1.03,0.47,1.22
11.552433967590332,0.43,1.07,0.22,1.17
11.55280876159668,0.35,1.14,-0.21,1.21
11.562684059143066,0.37,1.41,-0.12,1.46
11.572613954544067,0.63,2.05,0.66,2.24
11.582656860351562,0.86,2.94,1.6,3.45
11.602190971374512,0.99,3.85,1.98,4.44
11.602573871612549,0.93,4.47,1.43,4.78
11.612744808197021,0.49,4.45,-0.17,4.48
11.622591018676758,-0.2,4.03,-2.34,4.66
11.632773876190186,-0.7,3.71,-3.84,5.38
11.652263879776001,-1.04,3.33,-3.9,5.23
11.652639865875244,-1.23,3.01,-3.37,4.68
11.662757873535156,-1.29,2.73,-2.52,3.93
11.67269492149353,-1.38,2.11,-1.61,2.99
11.682694911956787,-1.48,1.34,-1.05,2.25
11.702763080596924,-1.51,0.8,-0.55,1.79
11.703149795532227,-1.4,0.61,-0.05,1.52
11.712792873382568,-1.14,0.87,0.22,1.45
11.722673892974854,-0.83,1.21,0.2,1.48
11.732789039611816,-0.46,1.32,-0.18,1.4
11.752670764923096,-0.09,1.19,-0.74,1.4
11.7530517578125,0.14,0.83,-0.98,1.29
11.762767791748047,0.26,0.24,-0.78,0.85
11.772686004638672,0.27,-0.39,-0.33,0.57
11.782768964767456,0.21,-1.12,0.07,1.14
11.802374839782715,0.09,-1.96,0.32,1.98
11.80276894569397,-0.11,-2.77,0.45,2.8
11.81288480758667,-0.31,-3.45,0.44,3.49
11.822706937789917,-0.39,-3.9,0.29,3.93
11.832903861999512,-0.43,-4.02,0.14,4.04
11.852722883224487,-0.39,-3.98,0.06,3.99
11.853090763092041,-0.23,-3.92,-0.11,3.92
11.862818956375122,-0.25,-3.77,0.08,3.77
11.87273097038269,-0.21,-3.56,0.55,3.6
11.882803916931152,-0.17,-3.36,0.83,3.46
11.902240753173828,-0.16,-3.22,0.84,3.33
11.902570962905884,-0.16,-3.09,0.76,3.18
11.91296100616455,-0.2,-2.83,0.83,2.95
11.922754764556885,-0.31,-2.49,0.95,2.68
11.932867050170898,-0.45,-2.11,1.13,2.43
11.953179836273193,-0.66,-1.75,1.2,2.22
11.953557014465332,-0.82,-1.37,1.28,2.04
11.962910890579224,-0.91,-0.89,1.26,1.79
11.972783088684082,-0.96,-0.39,1.17,1.56
11.982740879058838,-0.99,0.01,1.05,1.44
12.002593040466309,-1.06,0.42,0.94,1.47
12.002954006195068,-1.0,0.84,0.78,1.52
12.011276960372925,-0.99,0.84,0.77,1.5
12.021350860595703,-0.9,1.29,0.69,1.71
12.031449794769287,-0.94,1.5,0.66,1.88
12.05263376235962,-1.03,1.62,0.52,1.98
12.052987098693848,-1.08,1.84,0.5,2.19
12.061370849609375,-1.09,2.28,0.99,2.71
12.07145881652832,-0.91,2.85,1.87,3.52
12.081389904022217,-0.51,3.5,2.36,4.25
12.103298902511597,-0.1,4.13,2.11,4.63
12.103669881820679,0.31,4.7,1.57,4.96
12.111405849456787,0.6,4.76,0.29,4.8
12.121337890625,0.63,3.96,-2.01,4.48
12.13142204284668,0.67,2.94,-3.94,4.96
12.15241003036499,0.97,2.45,-4.28,5.02
12.152766942977905,1.46,1.99,-3.51,4.29
12.16142988204956,1.78,1.0,-2.55,3.26
12.171355962753296,1.96,-0.2,-1.7,2.6
12.18145489692688,2.2,-1.03,-1.01,2.63
12.202574968338013,2.44,-1.23,-0.49,2.77
12.202939987182617,2.54,-0.77,-0.09,2.65
12.211469888687134,2.29,0.1,-0.38,2.32
12.221335887908936,1.85,1.0,-0.85,2.26
12.23137903213501,1.39,1.77,-0.84,2.4
12.253267765045166,0.9,2.41,-0.6,2.64
12.253626823425293,0.47,2.82,-0.65,2.93
12.261852979660034,0.0,2.78,-0.86,2.9
12.271378993988037,-0.47,2.27,-1.02,2.53
12.281531810760498,-0.89,1.35,-0.8,1.8
12.30402398109436,-1.07,0.25,-0.29,1.13
12.304490089416504,-1.1,-0.83,0.25,1.4
12.311631917953491,-0.95,-1.81,0.67,2.15
12.321509838104248,-0.69,-2.63,1.01,2.9
12.331645965576172,-0.43,-3.3,1.15,3.52
12.354547023773193,-0.28,-3.82,1.02,3.96
12.354979991912842,-0.2,-4.19,0.94,4.29
12.361467838287354,-0.18,-4.31,0.92,4.41
12.371408939361572,-0.2,-4.14,0.87,4.23
12.38145399093628,-0.17,-3.75,0.82,3.84
12.404318809509277,-0.09,-3.31,0.75,3.39
12.405272960662842,0.06,-2.48,0.73,2.58
12.415551900863647,0.18,-2.33,0.91,2.5
12.425306797027588,0.25,-2.32,0.97,2.52
12.435389041900635,0.3,-2.29,0.95,2.49
12.454867839813232,0.4,-2.13,0.94,2.36
12.45528507232666,0.44,-1.87,1.02,2.17
12.4655179977417,0.42,-1.51,1.04,1.88
12.475317001342773,0.44,-1.05,0.9,1.45
12.485389947891235,0.44,-0.44,0.8,1.01
12.504247903823853,0.51,0.2,0.82,0.98
12.50533390045166,0.58,0.71,0.65,1.12
12.515515804290771,0.49,1.07,0.26,1.2
12.525309085845947,0.5,1.35,0.31,1.47
12.535522937774658,0.68,1.74,0.92,2.08
12.554388046264648,1.03,2.29,1.69,3.02
12.555247783660889,1.23,3.1,2.12,3.95
12.565446853637695,1.34,4.39,2.27,5.12
12.575336933135986,1.28,5.53,1.81,5.95
12.585428953170776,0.65,5.47,0.26,5.51
12.6039137840271,-0.17,4.71,-2.07,5.14
12.605288028717041,-0.73,3.93,-3.98,5.64
12.615508079528809,-1.05,3.39,-4.47,5.7
12.625346899032593,-1.3,3.08,-3.8,5.06
12.635495901107788,-1.49,2.49,-2.57,3.87
12.654021978378296,-1.67,1.53,-1.62,2.78
12.65540599822998,-1.87,0.71,-1.04,2.25
12.665605068206787,-1.92,0.28,-0.67,2.05
12.675520896911621,-1.85,0.13,-0.26,1.87
12.685444831848145,-1.66,0.23,-0.1,1.67
12.704620838165283,-1.44,0.61,-0.11,1.56
12.705392837524414,-1.13,0.84,-0.1,1.41
12.715531826019287,-0.76,0.8,-0.17,1.11
12.725400924682617,-0.31,0.6,-0.4,0.78
12.735549926757812,0.05,0.28,-0.61,0.67
12.754431962966919,0.33,-0.12,-0.7,0.78
12.755352973937988,0.53,-0.59,-0.57,0.97
12.765583038330078,0.53,-1.2,-0.25,1.33
12.775573968887329,0.33,-1.89,0.11,1.92
12.785476922988892,0.04,-2.66,0.38,2.68
12.803891897201538,-0.28,-3.33,0.42,3.36
12.805314064025879,-0.51,-3.79,0.22,3.83
12.815531969070435,-0.52,-4.04,-0.04,4.07
12.825317859649658,-0.57,-4.04,-0.14,4.08
12.835521936416626,-0.5,-3.8,-0.01,3.83
12.854601860046387,-0.39,-3.46,0.25,3.49
12.855379104614258,-0.42,-3.24,0.5,3.3
12.865478038787842,-0.4,-3.13,0.7,3.23
12.875633955001831,-0.38,-2.97,0.73,3.08
12.88546895980835,-0.41,-2.8,0.76,2.93
12.9043869972229,-0.49,-2.61,0.86,2.79
12.905327796936035,-0.6,-2.39,0.98,2.65
12.915585041046143,-0.76,-2.1,1.16,2.51
12.925551891326904,-0.87,-1.76,1.23,2.31
12.935566902160645,-0.94,-1.38,1.27,2.09
12.954843997955322,-1.03,-0.98,1.13,1.81
12.95540475845337,-1.14,-0.64,1.01,1.65
12.965528011322021,-1.21,-0.19,1.04,1.6
12.975624084472656,-1.16,0.42,1.02,1.6
12.98557996749878,-1.09,0.98,0.91,1.72
13.004910945892334,-1.0,1.37,0.78,1.86
13.00541090965271,-0.96,1.7,0.63,2.05
13.015570878982544,-0.87,2.1,0.67,2.36
13.025413036346436,-0.69,2.74,1.13,3.04
13.035636901855469,-0.43,3.61,1.79,4.05
13.055118083953857,-0.17,4.65,2.16,5.13
13.05547285079956,0.06,5.59,2.16,5.99
13.0657057762146,0.34,6.01,1.41,6.18
13.075527906417847,0.64,5.48,-0.82,5.57
13.085515975952148,0.83,4.31,-3.51,5.62
13.105109930038452,1.07,3.39,-4.58,5.79
13.105491876602173,1.47,2.74,-3.62,4.77
13.115647792816162,1.9,1.76,-2.39,3.52
13.125473976135254,2.16,0.26,-1.65,2.73
13.135602951049805,2.39,-1.1,-1.1,2.85
13.155706882476807,2.54,-1.81,-0.81,3.22
13.156075954437256,2.47,-1.79,-0.63,3.11
13.165601968765259,2.17,-1.28,-0.54,2.57
13.17556381225586,1.67,-0.62,-0.66,1.89
13.18559980392456,1.13,0.2,-0.89,1.45
13.205206871032715,0.72,1.02,-0.77,1.46
13.205585956573486,0.41,1.75,-0.5,1.86
13.215645790100098,0.19,2.24,-0.53,2.3
13.225419998168945,-0.03,2.38,-0.87,2.53
13.235674858093262,-0.22,2.08,-0.99,2.31
13.255556106567383,-0.33,1.35,-0.61,1.51
13.255931854248047,-0.36,0.34,0.1,0.5
13.265641927719116,-0.34,-0.8,0.72,1.12
13.275600910186768,-0.18,-1.82,0.98,2.07
13.285626888275146,0.01,-2.63,1.0,2.81
13.305237770080566,0.12,-3.25,0.98,3.39
13.305607795715332,0.13,-3.63,0.97,3.75
13.315693855285645,0.2,-3.87,0.95,3.98
13.325511932373047,0.19,-3.86,0.65,3.91
13.335658073425293,0.03,-3.74,0.56,3.78
13.355279922485352,0.04,-3.44,0.76,3.52
13.355638980865479,0.13,-2.97,0.87,3.09
13.365676879882812,0.16,-2.55,0.97,2.73
13.375593900680542,0.15,-2.24,1.09,2.49
13.385766983032227,0.12,-2.04,1.21,2.37
13.405558109283447,0.2,-1.94,1.39,2.39
13.405931949615479,0.23,-1.96,1.37,2.4
13.41562795639038,0.33,-1.94,1.19,2.29
13.425642013549805,0.44,-1.74,1.08,2.09
13.435659885406494,0.51,-1.25,1.18,1.79
13.455529928207397,0.6,-0.67,1.22,1.51
13.455906867980957,0.73,-0.19,1.1,1.33
13.465781927108765,0.71,0.17,1.0,1.23
13.475627899169922,0.56,0.51,0.79,1.09
13.485689878463745,0.39,0.73,0.28,0.87
13.505599975585938,0.28,0.96,-0.08,1.0
13.505969047546387,0.44,1.33,0.29,1.43
13.515774965286255,0.93,1.86,1.37,2.49
13.525557041168213,1.43,2.67,2.3,3.8
13.535675048828125,1.73,3.74,2.3,4.71
13.556188106536865,1.61,4.67,1.59,5.18
13.556575775146484,1.11,4.96,0.01,5.08
13.565713882446289,0.35,4.77,-2.45,5.37
13.57564091682434,-0.24,4.41,-4.57,6.35
13.585712909698486,-0.69,3.9,-5.03,6.4
13.6056649684906,-1.07,3.61,-4.05,5.52
13.606036901473999,-1.4,3.22,-2.72,4.44
13.615813970565796,-1.74,2.24,-1.81,3.36
13.625603914260864,-2.05,1.03,-1.3,2.63
13.63582992553711,-2.2,0.25,-0.92,2.39
13.656099796295166,-2.05,-0.02,-0.57,2.12
13.656476020812988,-1.74,0.24,-0.37,1.79
13.665825843811035,-1.33,0.72,-0.34,1.55
13.675666809082031,-0.96,1.03,-0.39,1.46
13.685874938964844,-0.46,1.25,-0.3,1.36
13.70654582977295,-0.06,1.5,-0.23,1.51
13.70690393447876,0.1,1.47,-0.14,1.48
13.715816020965576,0.17,1.09,-0.05,1.1
13.725605010986328,0.18,0.52,0.13,0.56
13.735948085784912,0.01,-0.35,0.29,0.45
13.756825923919678,-0.13,-1.36,0.44,1.43
13.757181882858276,-0.18,-2.25,0.44,2.29
13.765783786773682,-0.28,-2.98,0.34,3.01
13.775698900222778,-0.29,-3.46,0.28,3.48
13.785862922668457,-0.16,-3.71,0.27,3.72
13.806699752807617,-0.09,-3.77,0.26,3.78
13.80707597732544,-0.08,-3.76,0.35,3.77
13.815797805786133,-0.09,-3.76,0.53,3.79
13.825726985931396,-0.13,-3.8,0.7,3.86
13.835931777954102,-0.17,-3.81,0.9,3.91
13.856557846069336,-0.2,-3.74,1.09,3.9
13.856919765472412,-0.26,-3.63,1.25,3.84
13.865834951400757,-0.25,-3.5,1.21,3.71
13.875906944274902,-0.31,-3.38,1.11,3.57
13.885932922363281,-0.36,-3.14,1.06,3.33
13.906378984451294,-0.43,-2.73,1.09,2.97
13.906746864318848,-0.49,-2.17,1.18,2.51
13.915895938873291,-0.55,-1.59,1.12,2.02
13.925970077514648,-0.67,-0.98,0.82,1.44
13.936019897460938,-0.71,-0.3,0.93,1.2
13.956267833709717,-0.7,0.6,1.02,1.37
13.956628799438477,-0.82,1.3,0.86,1.76
13.96583604812622,-0.86,1.68,0.68,2.0
13.976062774658203,-0.87,2.05,0.45,2.27
13.985743045806885,-0.87,2.43,0.26,2.59
14.00662899017334,-0.97,2.83,0.59,3.04
14.006985902786255,-1.06,3.32,1.42,3.76
14.015761852264404,-0.94,3.77,2.29,4.51
14.026097774505615,-0.74,4.08,2.31,4.74
14.035905838012695,-0.48,4.34,1.73,4.69
14.056793928146362,-0.09,4.47,0.95,4.57
14.057156085968018,0.25,4.23,-0.31,4.24
14.065799951553345,0.5,3.62,-2.03,4.18
14.076303958892822,0.62,2.86,-3.37,4.46
14.085813999176025,0.85,2.28,-3.65,4.38
14.10707688331604,1.23,1.78,-3.31,3.95
14.107431888580322,1.52,0.98,-2.67,3.22
14.115859031677246,1.7,-0.03,-1.76,2.44
14.126277923583984,1.91,-0.82,-0.84,2.24
14.136015892028809,2.03,-1.03,-0.28,2.29
14.156919956207275,2.02,-0.67,-0.19,2.13
14.157279014587402,1.8,0.0,-0.47,1.86
14.166031837463379,1.56,0.89,-0.76,1.95
14.176368951797485,1.25,1.66,-0.73,2.2
14.185825824737549,0.89,2.1,-0.65,2.37
14.206644058227539,0.62,2.35,-0.52,2.48
14.207004070281982,0.37,2.32,-0.44,2.39
14.21585488319397,0.02,1.77,-0.37,1.8
14.225741863250732,-0.34,0.73,-0.14,0.81
14.235882759094238,-0.69,-0.57,0.26,0.93
14.257184028625488,-0.97,-1.86,0.61,2.18
14.257550954818726,-1.05,-2.92,0.79,3.2
14.265915870666504,-0.95,-3.67,0.93,3.9
14.275814056396484,-0.88,-4.05,0.93,4.24
14.28583288192749,-0.61,-4.15,0.89,4.28
14.307418823242188,-0.38,-4.12,0.93,4.24
14.307785987854004,-0.23,-4.1,0.94,4.21
14.3158860206604,-0.1,-3.94,0.77,4.01
14.32593297958374,-0.05,-3.64,0.68,3.7
14.335999011993408,0.01,-3.23,0.72,3.3
14.357631921768188,0.08,-2.74,0.83,2.86
14.357994079589844,0.1,-2.39,1.07,2.62
14.366096019744873,0.14,-2.08,1.32,2.46
14.376151084899902,0.32,-1.72,1.48,2.29
14.386229991912842,0.41,-1.42,1.55,2.14
14.407228946685791,0.44,-1.26,1.49,2.0
14.407562971115112,0.44,-1.06,1.25,1.69
14.416056871414185,0.46,-0.76,1.0,1.33
14.426056861877441,0.47,-0.32,0.78,0.96
14.436107873916626,0.5,0.26,0.72,0.91
14.457798957824707,0.45,0.91,0.7,1.23
14.458157062530518,0.4,1.33,0.66,1.53
14.466033935546875,0.2,1.48,0.33,1.52
14.475966930389404,0.08,1.55,0.23,1.56
14.485963821411133,0.1,1.84,0.61,1.94
14.508182048797607,0.25,2.48,1.12,2.73
14.508546829223633,0.39,3.61,1.43,3.9
14.51596188545227,0.6,5.05,1.51,5.3
14.525924921035767,0.56,5.7,0.66,5.76
14.536046981811523,-0.04,5.2,-1.55,5.42
14.558273792266846,-0.81,4.27,-3.88,5.82
14.558648109436035,-1.25,3.56,-4.43,5.81
14.565937995910645,-1.45,3.08,-3.45,4.84
14.576035022735596,-1.7,2.37,-2.28,3.7
14.58606481552124,-1.8,1.27,-1.32,2.56
14.608242988586426,-1.87,0.29,-0.82,2.06
14.608620882034302,-1.94,-0.2,-0.65,2.05
14.616150856018066,-1.95,-0.11,-0.29,1.97
14.62599492073059,-1.75,0.54,-0.09,1.83
14.636122941970825,-1.49,1.24,-0.13,1.94
14.658327102661133,-1.16,1.67,-0.29,2.05
14.658683776855469,-0.72,1.79,-0.54,2.0
14.666085958480835,-0.36,1.62,-0.68,1.79
14.676044940948486,-0.1,1.28,-0.67,1.44
14.686133861541748,0.15,0.79,-0.58,0.99
14.708724975585938,0.25,0.01,-0.33,0.41
14.709096908569336,0.18,-0.94,0.03,0.95
14.716056823730469,-0.01,-1.91,0.36,1.94
14.725974082946777,-0.31,-2.84,0.53,2.9
14.736089944839478,-0.6,-3.6,0.46,3.67
14.758617877960205,-0.8,-4.06,0.3,4.14
14.758996963500977,-0.81,-4.23,0.16,4.3
14.766098022460938,-0.63,-4.17,0.08,4.21
14.776076793670654,-0.5,-4.05,0.06,4.08
14.786080837249756,-0.4,-3.84,0.17,3.86
14.80843210220337,-0.3,-3.66,0.47,3.7
14.808798789978027,-0.25,-3.57,0.78,3.66
14.816137790679932,-0.26,-3.46,0.85,3.57
14.826044082641602,-0.36,-3.34,0.84,3.46
14.836164951324463,-0.54,-3.17,0.88,3.33
14.858463764190674,-0.69,-2.9,1.06,3.16
14.858829975128174,-0.74,-2.56,1.12,2.89
14.866045951843262,-0.81,-2.15,1.14,2.56
14.876011848449707,-0.73,-1.59,1.02,2.02
14.88616394996643,-0.63,-0.89,0.8,1.35
14.908413887023926,-0.56,-0.19,0.63,0.86
14.908776760101318,-0.6,0.5,0.56,0.96
14.91617202758789,-0.69,1.14,0.65,1.48
14.92601490020752,-0.8,1.63,0.73,1.95
14.936237812042236,-0.9,1.91,0.6,2.19
14.95804500579834,-1.0,2.1,0.3,2.34
14.958409786224365,-1.1,2.38,0.59,2.68
14.966115951538086,-0.95,3.03,1.65,3.57
14.976126909255981,-0.67,3.96,2.33,4.64
14.986126899719238,-0.41,4.71,2.1,5.17
15.008917808532715,-0.14,5.21,1.56,5.44
15.009277820587158,0.3,5.43,0.34,5.44
15.016158103942871,0.47,4.91,-1.8,5.25
15.026093006134033,0.44,3.76,-3.75,5.32
15.036249876022339,0.59,2.82,-4.45,5.3
15.059370994567871,1.1,2.07,-3.64,4.32
15.05973196029663,1.76,1.0,-2.31,3.07
15.066154956817627,2.28,-0.25,-1.19,2.58
15.076090812683105,2.63,-1.14,-0.57,2.92
15.086136817932129,2.81,-1.35,-0.43,3.14
15.10868501663208,2.61,-0.98,-0.62,2.85
15.109042882919312,2.1,-0.17,-1.07,2.36
15.116127967834473,1.47,0.81,-1.26,2.09
15.126043796539307,0.99,1.74,-1.07,2.26
15.13622498512268,0.61,2.61,-0.71,2.77
15.158435821533203,0.36,3.11,-0.51,3.17
15.15879201889038,0.08,2.97,-0.65,3.04
15.166124820709229,-0.28,2.25,-0.72,2.37
15.176147937774658,-0.54,1.11,-0.3,1.27
15.186213970184326,-0.64,-0.13,0.4,0.76
15.208913803100586,-0.58,-1.3,0.89,1.67
15.209232807159424,-0.36,-2.25,1.04,2.5
15.216140985488892,-0.19,-3.04,0.89,3.17
15.225974082946777,-0.08,-3.71,0.64,3.76
15.236094951629639,-0.09,-4.22,0.56,4.25
15.259219884872437,-0.21,-4.47,0.45,4.49
15.259545803070068,-0.26,-4.47,0.59,4.51
15.266170024871826,-0.32,-4.2,0.75,4.27
15.276135921478271,-0.26,-3.83,0.67,3.89
15.286251068115234,-0.26,-3.46,0.6,3.52
15.309504985809326,-0.23,-3.1,0.74,3.19
15.309873104095459,-0.13,-2.79,0.86,2.92
15.316225051879883,0.03,-2.59,0.97,2.76
15.326083898544312,0.22,-2.44,1.14,2.7
15.336238861083984,0.42,-2.2,1.24,2.56
15.359256982803345,0.46,-1.94,1.24,2.34
15.35962200164795,0.51,-1.64,1.2,2.09
15.366219997406006,0.48,-1.15,1.06,1.63
15.37614393234253,0.41,-0.59,0.91,1.15
15.386230945587158,0.36,-0.08,0.83,0.9
15.409868955612183,0.39,0.43,0.85,1.02
15.410225868225098,0.48,0.9,0.82,1.3
15.416295051574707,0.51,1.21,0.58,1.43
15.42616081237793,0.49,1.44,0.17,1.53
15.43632197380066,0.57,1.76,0.07,1.85
15.460059881210327,0.81,2.15,0.85,2.44
15.46041989326477,1.17,2.73,1.91,3.53
15.466250896453857,1.36,3.58,2.36,4.49
15.476154804229736,1.43,4.59,2.07,5.23
15.486217021942139,1.21,5.41,0.99,5.63
15.510141849517822,0.65,5.65,-0.88,5.75
15.510508060455322,0.06,5.42,-2.93,6.16
15.516252040863037,-0.45,4.66,-4.43,6.44
15.526165962219238,-0.93,3.77,-4.7,6.09
15.536341905593872,-1.36,3.21,-3.71,5.09
15.560245037078857,-1.51,2.51,-2.15,3.63
15.560598850250244,-1.65,1.52,-1.03,2.46
15.566077947616577,-1.81,0.68,-0.53,2.0
15.576173782348633,-1.77,0.26,-0.22,1.8
15.586281776428223,-1.57,0.19,-0.01,1.58
15.610438823699951,-1.28,0.42,-0.12,1.35
15.610765933990479,-1.01,0.65,-0.12,1.2
15.616204977035522,-0.59,0.65,-0.12,0.88
15.626258850097656,-0.18,0.41,-0.35,0.56
15.636345863342285,0.1,0.02,-0.56,0.56
15.660384893417358,0.32,-0.41,-0.64,0.82
15.660741806030273,0.43,-0.84,-0.52,1.07
15.666225910186768,0.39,-1.4,-0.21,1.46
15.676313877105713,0.2,-2.07,0.07,2.08
15.686317920684814,-0.07,-2.68,0.1,2.68
15.710516929626465,-0.31,-3.16,-0.05,3.17
15.710885047912598,-0.48,-3.47,-0.18,3.5
15.716296911239624,-0.52,-3.61,-0.04,3.64
15.726207971572876,-0.56,-3.61,0.15,3.65
15.73631477355957,-0.48,-3.55,0.31,3.59
15.761032104492188,-0.4,-3.45,0.34,3.48
15.761383056640625,-0.35,-3.43,0.39,3.46
15.766318798065186,-0.34,-3.34,0.51,3.39
15.776258945465088,-0.36,-3.11,0.57,3.18
15.786388874053955,-0.46,-2.9,0.78,3.03
15.811017036437988,-0.59,-2.76,1.01,2.99
15.81138277053833,-0.65,-2.62,1.18,2.94
15.816370010375977,-0.72,-2.39,1.13,2.73
15.82624888420105,-0.83,-2.14,1.01,2.5
15.83639907836914,-0.92,-1.86,0.91,2.26
15.861473083496094,-1.04,-1.54,0.99,2.1
15.861849784851074,-1.19,-1.14,1.15,2.0
15.866314888000488,-1.29,-0.69,1.26,1.93
15.876218795776367,-1.25,-0.19,1.26,1.78
15.886367797851562,-1.17,0.26,1.04,1.58
15.911556959152222,-0.95,0.71,0.87,1.47
15.911923885345459,-0.8,1.08,0.69,1.51
15.9164879322052,-0.85,1.53,0.6,1.85
15.926232814788818,-0.95,2.02,0.78,2.36
15.936401844024658,-0.92,2.57,1.29,3.01
15.96155595779419,-0.75,3.09,2.09,3.8
15.961918830871582,-0.43,3.57,2.49,4.37
15.966402053833008,-0.09,4.14,2.18,4.67
15.976306915283203,0.21,4.84,1.75,5.15
15.986324787139893,0.52,5.28,1.14,5.42
16.010552883148193,0.73,4.84,-0.72,4.94
16.010883808135986,0.73,3.67,-3.3,4.98
16.012090921401978,0.73,3.67,-3.3,4.98
16.022401809692383,0.84,2.81,-4.48,5.35
16.032296895980835,1.28,2.29,-3.84,4.65
16.04242992401123,1.9,1.61,-2.53,3.55
16.060170888900757,2.3,0.41,-1.53,2.79
16.06238079071045,2.64,-0.74,-0.82,2.86
16.07245898246765,2.83,-1.27,-0.42,3.13
16.08250379562378,2.77,-1.06,-0.2,2.97
16.092541933059692,2.45,-0.33,-0.49,2.52
16.11075782775879,1.94,0.46,-0.95,2.2
16.1122989654541,1.35,1.17,-0.9,2.0
16.12251591682434,0.84,1.87,-0.51,2.11
16.13257884979248,0.51,2.5,-0.37,2.57
16.14245080947876,0.12,2.77,-0.57,2.83
16.160531997680664,-0.35,2.47,-0.81,2.62
16.162357807159424,-0.8,1.58,-0.8,1.94
16.172448873519897,-1.1,0.38,-0.43,1.24
16.182353973388672,-1.2,-0.83,0.09,1.46
16.19246196746826,-1.13,-1.88,0.52,2.25
16.210632801055908,-0.89,-2.73,0.8,2.98
16.21227788925171,-0.59,-3.4,0.97,3.58
16.22249984741211,-0.38,-3.94,1.1,4.1
16.23227310180664,-0.24,-4.34,1.13,4.49
16.242466926574707,-0.13,-4.58,1.04,4.69
16.261166095733643,-0.08,-4.53,0.9,4.61
16.262685775756836,-0.06,-4.25,0.86,4.33
16.272618770599365,-0.04,-3.83,0.82,3.91
16.28239393234253,0.01,-3.29,0.71,3.36
16.292548894882202,0.07,-2.81,0.75,2.9
16.31132984161377,0.19,-2.37,0.85,2.52
16.312338829040527,0.35,-2.02,0.94,2.25
16.3226637840271,0.39,-1.79,1.08,2.12
16.332525968551636,0.48,-1.65,1.26,2.13
16.342517852783203,0.49,-1.47,1.36,2.06
16.361466884613037,0.48,-1.15,1.31,1.8
16.362329959869385,0.47,-0.78,1.16,1.47
16.37262988090515,0.55,-0.25,0.92,1.1
16.382534980773926,0.66,0.43,0.68,1.04
16.39249086380005,0.78,1.01,0.58,1.4
16.415173053741455,0.69,1.51,0.11,1.66
16.416318893432617,0.6,1.69,0.03,1.79
16.426466941833496,0.64,1.92,0.62,2.11
16.436502933502197,0.91,2.49,1.62,3.1
16.446448802947998,1.11,3.51,2.24,4.3
16.462390899658203,1.22,4.59,2.06,5.17
16.466437816619873,0.9,5.13,0.94,5.29
16.476342916488647,0.24,4.91,-1.28,5.07
16.48659896850586,-0.39,4.51,-3.73,5.86
16.49654483795166,-0.76,4.07,-4.73,6.28
16.512272834777832,-1.22,3.67,-4.01,5.57
16.516584873199463,-1.53,3.45,-3.0,4.82
16.526540756225586,-1.78,2.87,-2.13,3.99
16.536605834960938,-1.99,2.03,-1.49,3.2
16.546365976333618,-2.11,1.4,-1.1,2.76
16.562352895736694,-2.04,1.1,-0.61,2.39
16.566588878631592,-1.85,1.11,-0.3,2.17
16.576461791992188,-1.5,1.4,-0.28,2.07
16.586500883102417,-1.11,1.53,-0.25,1.9
16.596539974212646,-0.67,1.38,-0.3,1.56
16.61160707473755,-0.23,1.01,-0.44,1.12
16.61640977859497,0.06,0.47,-0.51,0.69
16.626373767852783,0.17,-0.24,-0.44,0.52
16.636591911315918,0.26,-0.94,-0.26,1.0
16.64655876159668,0.24,-1.63,0.0,1.64
16.662869930267334,0.03,-2.4,0.18,2.4
16.666497945785522,-0.22,-3.14,0.21,3.15
16.6764178276062,-0.44,-3.78,0.14,3.8
16.68653106689453,-0.57,-4.19,0.0,4.22
16.696619033813477,-0.59,-4.33,-0.1,4.37
16.71322202682495,-0.6,-4.3,-0.1,4.34
16.716644763946533,-0.51,-4.19,0.06,4.22
16.726561069488525,-0.43,-4.02,0.26,4.05
16.73689889907837,-0.37,-3.93,0.38,3.96
16.746495962142944,-0.37,-3.89,0.43,3.93
16.76323175430298,-0.34,-3.82,0.57,3.87
16.766589879989624,-0.33,-3.63,0.75,3.72
16.77641987800598,-0.42,-3.37,0.87,3.5
16.786629915237427,-0.52,-3.13,1.13,3.36
16.796544075012207,-0.59,-2.74,1.32,3.09
16.813336849212646,-0.71,-2.26,1.25,2.67
16.816648960113525,-0.87,-1.89,1.2,2.4
16.82651996612549,-1.0,-1.54,1.2,2.19
16.836656093597412,-1.13,-1.06,1.12,1.91
16.84656000137329,-1.25,-0.49,1.08,1.72
16.863490104675293,-1.27,0.11,1.05,1.65
16.866435050964355,-1.31,0.74,1.09,1.85
16.876522064208984,-1.37,1.28,1.19,2.22
16.88662576675415,-1.33,1.7,1.29,2.51
16.896668910980225,-1.17,2.02,1.31,2.67
16.913249969482422,-0.99,2.38,1.25,2.86
16.916450023651123,-0.77,2.95,1.45,3.37
16.926517009735107,-0.44,3.65,1.89,4.13
16.936668872833252,-0.19,4.57,2.08,5.02
16.946582794189453,0.05,5.46,1.94,5.79
16.963211059570312,0.26,5.73,1.3,5.88
16.966500759124756,0.43,5.12,-0.5,5.16
16.97665309906006,0.51,3.9,-3.03,4.96
16.987315893173218,0.57,2.9,-4.42,5.31
16.99664306640625,0.86,2.43,-3.9,4.67
17.013253927230835,1.42,1.77,-2.76,3.57
17.016594886779785,1.89,0.61,-2.01,2.82
17.026548862457275,2.36,-0.47,-1.44,2.8
17.036725997924805,2.73,-1.09,-0.86,3.06
17.046655893325806,2.87,-1.13,-0.43,3.11
17.06391477584839,2.73,-0.62,-0.44,2.83
17.066568851470947,2.35,0.12,-0.88,2.51
17.076618909835815,1.8,0.85,-1.2,2.32
17.086684942245483,1.16,1.48,-1.15,2.2
17.096631050109863,0.67,2.17,-0.93,2.45
17.113430976867676,0.28,2.67,-0.96,2.85
17.11652708053589,-0.1,2.66,-1.14,2.89
17.126576900482178,-0.45,2.11,-1.09,2.41
17.136719942092896,-0.64,1.11,-0.63,1.42
17.146636962890625,-0.64,-0.02,0.02,0.64
17.16344404220581,-0.57,-1.12,0.54,1.36
17.166568756103516,-0.29,-2.05,0.89,2.25
17.176639080047607,-0.11,-2.66,1.07,2.86
17.186625957489014,0.0,-3.14,1.07,3.31
17.19666290283203,0.05,-3.44,1.05,3.59
17.21387481689453,0.11,-3.45,1.01,3.59
17.216559886932373,0.15,-3.26,0.89,3.38
17.22658109664917,0.16,-3.22,0.78,3.31
17.236783981323242,0.12,-3.31,0.75,3.39
17.246702909469604,0.07,-3.18,0.81,3.28
17.264348030090332,0.08,-2.93,0.92,3.07
17.266535758972168,0.12,-2.81,1.05,3.0
17.276631832122803,0.15,-2.75,1.18,2.99
17.286747932434082,0.22,-2.69,1.33,3.0
17.296758890151978,0.29,-2.58,1.47,2.98
17.31359887123108,0.38,-2.45,1.59,2.94
17.316661834716797,0.52,-2.19,1.57,2.74
17.326680898666382,0.58,-1.76,1.37,2.3
17.336638927459717,0.59,-1.22,1.13,1.76
17.346630096435547,0.59,-0.63,0.93,1.26
17.363504886627197,0.62,0.08,0.81,1.02
17.366568088531494,0.61,0.82,0.82,1.31
17.376680850982666,0.62,1.3,0.73,1.61
17.386610984802246,0.54,1.55,0.31,1.67
17.396742820739746,0.41,1.8,0.05,1.84
17.414248943328857,0.39,2.12,0.43,2.19
17.416604042053223,0.68,2.42,1.31,2.83
17.42676877975464,1.06,3.0,1.87,3.69
17.4367618560791,1.36,4.04,1.7,4.58
17.446735858917236,1.49,5.07,1.28,5.43
17.46380376815796,1.11,5.28,-0.26,5.4
17.466690063476562,0.15,4.6,-2.92,5.45
17.47688889503479,-0.65,3.76,-4.79,6.12
17.486674785614014,-1.05,3.32,-4.8,5.93
17.49690008163452,-1.26,3.49,-3.62,5.18
17.51417303085327,-1.41,3.09,-2.22,4.05
17.516769886016846,-1.65,1.66,-1.41,2.73
17.52684783935547,-1.96,0.06,-0.99,2.19
17.536664962768555,-2.03,-0.79,-0.38,2.21
17.54670810699463,-1.73,-0.69,0.2,1.87
17.564252853393555,-1.39,-0.04,0.29,1.42
17.566822052001953,-1.08,0.57,0.02,1.22
17.57688808441162,-0.75,0.94,-0.41,1.27
17.586559772491455,-0.43,1.1,-0.76,1.4
17.59679889678955,-0.17,1.24,-1.02,1.61
17.61465883255005,0.05,1.28,-0.99,1.61
17.616880893707275,0.19,1.1,-0.85,1.4
17.626821994781494,0.23,0.55,-0.64,0.87
17.636873960494995,0.18,-0.24,-0.26,0.39
17.64679479598999,0.06,-1.16,0.11,1.16
17.665369033813477,-0.06,-2.09,0.34,2.11
17.667029857635498,-0.23,-2.92,0.48,2.96
17.676867961883545,-0.25,-3.5,0.48,3.54
17.68694305419922,-0.33,-3.81,0.53,3.86
17.696868896484375,-0.37,-4.02,0.61,4.08
17.71538496017456,-0.37,-4.05,0.68,4.12
17.71725082397461,-0.35,-3.92,0.7,3.99
17.72688388824463,-0.38,-3.76,0.78,3.85
17.737014770507812,-0.37,-3.57,0.88,3.69
17.746829986572266,-0.39,-3.41,1.06,3.59
17.76505708694458,-0.47,-3.26,1.27,3.53
17.76735782623291,-0.49,-3.03,1.42,3.38
17.776972770690918,-0.52,-2.81,1.49,3.22
17.786776065826416,-0.55,-2.61,1.34,2.98
17.796946048736572,-0.57,-2.4,1.15,2.72
17.814339876174927,-0.65,-2.14,1.02,2.45
17.817344903945923,-0.7,-1.75,0.99,2.12
17.826963901519775,-0.82,-1.12,1.09,1.76
17.836901903152466,-0.84,-0.45,1.42,1.71
17.846842765808105,-0.88,0.24,1.67,1.9
17.86419677734375,-0.82,0.81,1.55,1.93
17.86740493774414,-0.74,1.16,1.21,1.83
17.87689781188965,-0.66,1.49,0.77,1.8
17.88686990737915,-0.68,1.87,0.29,2.01
17.896947860717773,-0.68,2.38,0.19,2.48
17.9141788482666,-0.6,2.98,0.56,3.09
17.916842937469482,-0.38,3.66,1.24,3.88
17.926846981048584,-0.07,4.65,1.61,4.92
17.936874866485596,0.18,5.46,1.76,5.73
17.946754932403564,0.56,5.31,1.01,5.43
17.964250087738037,0.75,4.37,-1.4,4.64
17.9667067527771,0.9,3.53,-4.06,5.45
17.976881980895996,1.24,3.19,-5.11,6.15
17.986862897872925,1.89,2.95,-4.36,5.59
17.996855974197388,2.48,2.33,-3.31,4.74
18.015801906585693,2.72,1.08,-2.42,3.79
18.016881942749023,2.86,-0.13,-1.29,3.14
18.02686309814453,2.87,-0.58,-0.2,2.93
18.036905765533447,2.71,-0.36,0.14,2.73
18.04679775238037,2.32,0.08,-0.51,2.37
18.066004753112793,1.7,0.63,-1.29,2.22
18.066829919815063,1.08,1.33,-1.6,2.34
18.076880931854248,0.58,2.07,-1.51,2.62
18.086745977401733,0.12,2.58,-1.25,2.86
18.09692096710205,-0.31,2.55,-1.03,2.76
18.115901947021484,-0.68,2.05,-0.86,2.32
18.116766929626465,-0.9,1.3,-0.54,1.67
18.126959800720215,-1.04,0.3,0.14,1.09
18.13680410385132,-1.01,-0.78,0.74,1.47
18.146885871887207,-0.81,-1.78,1.06,2.22
18.165045976638794,-0.46,-2.64,1.19,2.93
18.166778087615967,-0.18,-3.35,1.27,3.58
18.176776885986328,0.12,-3.89,1.27,4.09
18.18684196472168,0.23,-4.14,1.2,4.31
18.19694709777832,0.27,-4.21,1.08,4.35
18.215351104736328,0.2,-4.09,1.05,4.22
18.216928958892822,0.18,-3.8,1.08,3.95
18.226881980895996,0.16,-3.44,1.01,3.58
18.236876010894775,0.19,-3.1,1.02,3.26
18.246946811676025,0.27,-2.9,1.2,3.15
18.26706600189209,0.37,-2.79,1.31,3.1
18.267427921295166,0.4,-2.76,1.24,3.05
18.277050971984863,0.43,-2.7,1.07,2.93
18.286890983581543,0.43,-2.48,1.01,2.71
18.29697299003601,0.42,-2.07,1.12,2.39
18.31666088104248,0.51,-1.46,1.25,1.98
18.31702494621277,0.63,-0.71,1.26,1.57
18.326982975006104,0.72,0.07,1.12,1.33
18.336992979049683,0.76,0.69,1.0,1.43
18.347006797790527,0.72,1.03,0.93,1.56
18.36571502685547,0.59,1.13,0.71,1.45
18.36685085296631,0.52,1.32,0.47,1.49
18.376970767974854,0.6,1.73,0.65,1.94
18.387003898620605,0.78,2.26,1.22,2.68
18.397073984146118,0.84,3.11,1.48,3.54
18.416245937347412,1.0,4.37,1.84,4.84
18.416841983795166,1.01,5.42,1.8,5.79
18.427056789398193,0.4,5.34,0.31,5.36
18.436948776245117,-0.36,4.68,-2.3,5.22
18.446979999542236,-0.86,4.12,-4.06,5.84
18.466403007507324,-1.17,3.56,-3.86,5.37
18.4668607711792,-1.47,3.14,-2.78,4.44
18.477017879486084,-1.67,2.51,-1.97,3.6
18.487015962600708,-1.81,1.37,-1.44,2.68
18.497098922729492,-1.93,0.34,-1.16,2.27
18.515750885009766,-1.91,-0.2,-0.85,2.1
18.51688003540039,-1.63,-0.25,-0.66,1.77
18.526960849761963,-1.28,0.02,-0.71,1.46
18.537013053894043,-0.92,0.36,-0.86,1.3
18.54703187942505,-0.57,0.59,-0.75,1.11
18.566459894180298,-0.22,0.68,-0.5,0.87
18.566818952560425,-0.01,0.62,-0.4,0.73
18.577111959457397,0.1,0.36,-0.41,0.55
18.586885929107666,0.24,0.1,-0.21,0.33
18.597112894058228,0.23,-0.22,-0.08,0.32
18.615872859954834,0.05,-0.8,0.04,0.8
18.61686086654663,-0.27,-1.55,0.08,1.57
18.627099990844727,-0.45,-2.3,0.07,2.34
18.63693904876709,-0.58,-2.95,-0.15,3.01
18.64707088470459,-0.63,-3.32,-0.1,3.38
18.667776107788086,-0.55,-3.41,0.19,3.45
18.668129920959473,-0.38,-3.33,0.34,3.36
18.677144050598145,-0.28,-3.19,0.41,3.22
18.68697190284729,-0.29,-3.09,0.65,3.17
18.697105884552002,-0.29,-2.93,0.84,3.06
18.717901945114136,-0.32,-2.82,0.95,2.99
18.718255043029785,-0.34,-2.83,1.02,3.02
18.727144956588745,-0.46,-2.75,1.08,2.99
18.73693084716797,-0.51,-2.55,1.18,2.85
18.747153759002686,-0.56,-2.38,1.31,2.77
18.767354011535645,-0.63,-2.15,1.39,2.63
18.76771306991577,-0.64,-1.91,1.47,2.49
18.777111053466797,-0.72,-1.68,1.45,2.33
18.786893844604492,-0.85,-1.53,1.31,2.18
18.797149896621704,-1.0,-1.3,1.21,2.03
18.8175368309021,-1.1,-0.93,1.17,1.85
18.817862033843994,-1.25,-0.52,1.17,1.78
18.827164888381958,-1.3,-0.09,1.38,1.89
18.8369619846344,-1.16,0.42,1.56,1.98
18.847312927246094,-0.96,0.87,1.32,1.84
18.867313861846924,-0.83,1.17,0.89,1.68
18.86769676208496,-0.63,1.52,0.6,1.75
18.877166986465454,-0.49,2.06,0.48,2.17
18.887016773223877,-0.34,2.63,0.85,2.78
18.897145986557007,-0.18,3.27,1.38,3.55
18.917969942092896,0.04,4.26,1.43,4.49
18.918341875076294,0.33,5.17,1.49,5.39
18.927133083343506,0.53,5.27,1.34,5.46
18.93700098991394,0.63,4.45,-0.73,4.55
18.947107791900635,0.92,3.57,-3.52,5.09
18.968031883239746,1.33,3.22,-4.56,5.73
18.968403816223145,1.88,2.91,-3.54,4.95
18.977169036865234,2.26,2.07,-2.33,3.84
18.987053871154785,2.41,0.71,-1.72,3.04
18.997334003448486,2.51,-0.63,-1.36,2.92
19.0175518989563,2.4,-1.36,-0.94,2.91
19.01791286468506,2.0,-1.34,-0.54,2.46
19.02741289138794,1.52,-0.76,-0.52,1.77
19.037169933319092,0.97,0.0,-0.78,1.24
19.047467947006226,0.58,1.0,-0.94,1.48
19.067522048950195,0.3,2.02,-0.91,2.23
19.067835807800293,-0.05,2.65,-0.72,2.74
19.077225923538208,-0.38,2.85,-0.76,2.97
19.086854934692383,-0.6,2.7,-0.85,2.89
19.09705877304077,-0.71,2.11,-0.63,2.31
19.11179208755493,-0.75,1.23,-0.06,1.44
19.116973876953125,-0.65,0.27,0.61,0.93
19.127001762390137,-0.51,-0.75,1.12,1.44
19.136956930160522,-0.32,-1.67,1.31,2.14
19.146898984909058,-0.2,-2.48,1.33,2.82
19.1616268157959,-0.13,-3.2,1.19,3.41
19.166923999786377,-0.12,-3.63,0.98,3.76
19.177055835723877,-0.12,-3.82,0.85,3.91
19.18689775466919,-0.1,-3.83,0.83,3.92
19.197123050689697,-0.08,-3.77,0.86,3.86
19.211700916290283,0.02,-3.57,0.91,3.68
19.217039108276367,0.05,-3.27,0.93,3.4
19.22693681716919,0.06,-3.03,1.04,3.2
19.23686981201172,0.09,-2.87,1.17,3.1
19.24697208404541,0.09,-2.78,1.25,3.04
19.2618727684021,0.02,-2.72,1.27,3.0
19.267029762268066,0.05,-2.73,1.34,3.04
19.27711296081543,0.13,-2.59,1.31,2.9
19.28841996192932,0.27,-2.22,1.16,2.51
19.29792308807373,0.45,-1.69,1.13,2.08
19.327395915985107,0.63,-1.05,1.16,1.68
19.328694820404053,0.7,-0.41,1.0,1.28
19.329243898391724,0.68,0.11,0.96,1.18
19.340105056762695,0.69,0.51,1.07,1.37
19.347424030303955,0.59,0.9,0.84,1.36
19.372416973114014,0.45,1.34,0.35,1.45
19.373461961746216,0.43,2.06,0.39,2.14
19.377193927764893,0.51,3.39,1.09,3.59
19.389623880386353,0.7,5.28,1.89,5.65
19.39751696586609,0.73,6.55,1.84,6.84
19.4214129447937,0.18,6.41,0.03,6.41
19.422502994537354,-0.51,5.67,-2.77,6.33
19.42731475830078,-0.74,5.05,-4.94,7.1
19.440862894058228,-0.8,4.49,-4.84,6.65
19.447345972061157,-0.95,3.93,-3.19,5.15
19.4698269367218,-1.15,2.92,-1.63,3.53
19.470890045166016,-1.41,1.48,-0.75,2.17
19.477407932281494,-1.68,0.24,-0.53,1.77
19.487497806549072,-1.78,-0.45,-0.56,1.91
19.497344970703125,-1.92,-0.59,-0.55,2.08
19.519115924835205,-1.81,-0.3,-0.64,1.94
19.51947784423828,-1.63,0.13,-0.71,1.78
19.52713394165039,-1.47,0.61,-0.55,1.68
19.53762197494507,-1.14,0.96,-0.41,1.54
19.547286987304688,-0.75,1.0,-0.46,1.33
19.569313049316406,-0.43,0.84,-0.52,1.07
19.56966996192932,-0.15,0.5,-0.45,0.68
19.577558994293213,0.08,-0.1,-0.19,0.22
19.587610960006714,0.13,-0.84,0.06,0.85
19.597563982009888,-0.01,-1.61,0.22,1.62
19.61812996864319,-0.22,-2.33,0.26,2.35
19.618485927581787,-0.43,-3.0,0.25,3.04
19.62735390663147,-0.62,-3.55,0.13,3.6
19.637696981430054,-0.62,-3.96,0.03,4.0
19.647350788116455,-0.6,-4.18,-0.03,4.22
19.66890597343445,-0.57,-4.16,0.16,4.2
19.66922378540039,-0.55,-3.93,0.34,3.98
19.677464962005615,-0.5,-3.7,0.42,3.75
19.687702894210815,-0.52,-3.56,0.52,3.63
19.69733691215515,-0.53,-3.36,0.61,3.45
19.718955993652344,-0.56,-3.18,0.78,3.32
19.719278812408447,-0.7,-3.03,1.02,3.27
19.727471828460693,-0.86,-2.93,1.28,3.31
19.7373628616333,-0.98,-2.84,1.37,3.3
19.751272916793823,-1.09,-2.68,1.29,3.16
19.75734806060791,-1.15,-2.32,1.28,2.88
19.76731586456299,-1.13,-1.84,1.29,2.51
19.777155876159668,-1.12,-1.17,1.23,2.03
19.787051916122437,-1.11,-0.38,1.05,1.57
19.797464847564697,-1.13,0.45,0.94,1.53
19.807252883911133,-1.11,1.24,1.04,1.96
19.817177772521973,-1.03,1.98,0.95,2.42
19.827168941497803,-1.12,2.35,0.77,2.71
19.837159872055054,-1.16,2.53,0.72,2.87
19.84731388092041,-1.12,2.95,1.0,3.31
19.857376098632812,-0.89,3.41,1.69,3.9
19.867324829101562,-0.57,3.86,2.25,4.5
19.877336978912354,-0.22,4.35,2.09,4.83
19.887064933776855,0.13,4.89,1.7,5.17
19.89738893508911,0.45,5.2,0.97,5.3
19.90713596343994,0.64,4.77,-1.27,4.97
19.917194843292236,0.7,3.73,-3.79,5.36
19.927396774291992,0.78,2.94,-4.91,5.77
19.937469005584717,1.32,2.43,-4.11,4.95
19.948545932769775,1.85,1.64,-2.72,3.67
19.957571983337402,2.24,0.4,-1.72,2.85
19.967956066131592,2.58,-0.73,-0.89,2.82
19.97749376296997,2.81,-1.14,-0.22,3.04
19.987445831298828,2.75,-0.88,-0.03,2.88
19.998174905776978,2.38,-0.13,-0.58,2.45
20.003303050994873,2.39,-0.13,-0.53,2.45
20.0134379863739,1.93,0.82,-1.03,2.33
20.02330780029297,1.48,1.81,-0.97,2.53
20.033257961273193,0.98,2.71,-0.57,2.93
20.04979395866394,0.54,3.22,-0.49,3.3
20.05327296257019,-0.03,3.23,-0.87,3.34
20.06336498260498,-0.6,2.62,-1.13,2.91
20.074140071868896,-1.14,1.59,-0.92,2.16
20.084223985671997,-1.38,0.4,-0.23,1.45
20.10377287864685,-1.35,-0.79,0.33,1.59
20.104187965393066,-1.18,-1.93,0.6,2.34
20.113554000854492,-0.89,-2.89,0.8,3.12
20.12356996536255,-0.54,-3.57,1.11,3.77
20.134103775024414,-0.3,-4.09,1.31,4.3
20.152574062347412,-0.12,-4.56,1.32,4.74
20.153271913528442,0.02,-4.9,1.14,5.03
20.163444995880127,0.01,-4.92,0.79,4.98
20.173736095428467,-0.05,-4.65,0.62,4.69
20.18393087387085,-0.08,-4.21,0.66,4.26
20.205348014831543,-0.1,-3.73,0.77,3.8
20.206154823303223,-0.11,-3.29,0.86,3.4
20.213300943374634,-0.04,-2.94,1.0,3.1
20.223228931427002,0.12,-2.57,1.04,2.77
20.233388900756836,0.18,-2.23,1.07,2.47
20.248283863067627,0.24,-1.9,1.12,2.21
20.253890991210938,0.31,-1.5,1.22,1.95
20.26335382461548,0.44,-0.96,1.21,1.6
20.274219036102295,0.42,-0.48,1.03,1.21
20.284246921539307,0.36,-0.01,0.69,0.77
20.299726963043213,0.27,0.43,0.44,0.67
20.303659915924072,0.37,0.84,0.23,0.94
20.313655853271484,0.42,1.11,0.03,1.18
20.323312759399414,0.45,1.32,-0.07,1.39
20.334282875061035,0.66,1.55,0.43,1.73
20.35193681716919,0.95,1.93,1.47,2.6
20.3533878326416,1.18,2.52,2.22,3.55
20.36343789100647,1.17,3.46,2.28,4.3
20.37348508834839,1.15,4.71,2.02,5.25
20.38427209854126,0.92,5.83,1.09,6.0
20.403464794158936,0.24,6.25,-0.99,6.33
20.403743982315063,-0.45,5.87,-3.19,6.69
20.413397789001465,-0.94,4.82,-4.57,6.7
20.423372983932495,-1.2,3.79,-4.69,6.14
20.434252977371216,-1.43,3.06,-3.62,4.95
20.452889919281006,-1.47,2.17,-1.92,3.24
20.45352292060852,-1.47,1.26,-0.67,2.04
20.46369695663452,-1.53,0.65,-0.03,1.66
20.47343397140503,-1.44,0.47,0.17,1.52
20.484384059906006,-1.27,0.56,-0.06,1.38
20.510902881622314,-1.07,0.71,-0.48,1.37
20.512041091918945,-0.93,0.8,-0.67,1.39
20.513747930526733,-0.68,0.76,-0.67,1.22
20.525784015655518,-0.45,0.65,-0.63,1.01
20.53404688835144,-0.12,0.48,-0.57,0.75
20.558234930038452,0.13,0.2,-0.59,0.63
20.559223890304565,0.41,-0.09,-0.6,0.73
20.563766956329346,0.48,-0.62,-0.43,0.89
20.575294971466064,0.27,-1.52,-0.2,1.55
20.583881855010986,-0.01,-2.5,-0.03,2.5
20.608011960983276,-0.3,-3.46,0.02,3.47
20.608436107635498,-0.48,-4.2,-0.06,4.22
20.613847970962524,-0.62,-4.69,-0.07,4.73
20.623619079589844,-0.54,-4.89,-0.01,4.91
20.63381004333496,-0.42,-4.72,0.1,4.73
20.656067848205566,-0.33,-4.34,0.23,4.35
20.657142877578735,-0.27,-3.88,0.37,3.9
20.663815021514893,-0.2,-3.51,0.5,3.55
20.673655033111572,-0.16,-3.23,0.64,3.29
20.68387794494629,-0.18,-3.0,0.7,3.08
20.70468807220459,-0.26,-2.8,0.78,2.91
20.705063819885254,-0.37,-2.59,0.97,2.79
20.71407699584961,-0.58,-2.35,1.12,2.66
20.723639965057373,-0.76,-2.03,1.19,2.47
20.734070777893066,-0.83,-1.69,1.14,2.2
20.754410982131958,-0.94,-1.27,1.06,1.9
20.75474500656128,-1.0,-0.82,1.01,1.64
20.763946056365967,-1.05,-0.39,0.96,1.47
20.773521900177002,-1.12,-0.05,0.95,1.46
20.783710956573486,-1.05,0.35,1.02,1.5
20.79923105239868,-1.01,0.8,1.06,1.66
20.805563926696777,-0.91,1.14,0.9,1.71
20.8136248588562,-0.9,1.34,0.55,1.7
20.823503971099854,-1.08,1.74,0.6,2.13
20.833950996398926,-1.15,2.57,1.31,3.1
20.853240966796875,-0.89,3.59,2.12,4.26
20.853700876235962,-0.48,4.31,2.38,4.94
20.863749980926514,-0.09,4.9,2.16,5.35
20.87358593940735,0.37,5.53,1.57,5.76
20.883858919143677,0.84,5.61,0.24,5.67
20.905616760253906,1.11,4.71,-1.99,5.23
20.906053066253662,1.12,3.43,-4.11,5.46
20.91392993927002,1.2,2.53,-4.67,5.44
20.924051761627197,1.68,1.81,-3.54,4.31
20.933735847473145,2.16,0.93,-2.18,3.2
20.95604395866394,2.54,-0.19,-1.38,2.89
20.956480979919434,2.73,-1.12,-0.92,3.09
20.964155912399292,2.69,-1.41,-0.55,3.08
20.974289894104004,2.52,-0.98,-0.53,2.75
20.983990907669067,2.18,0.02,-0.74,2.3
21.007503986358643,1.74,1.11,-0.71,2.18
21.00858497619629,1.17,2.12,-0.41,2.45
21.0139799118042,0.76,3.09,-0.17,3.18
21.029329776763916,0.39,3.82,-0.36,3.85
21.03383207321167,-0.24,3.79,-0.74,3.86
21.056370973587036,-0.86,2.8,-0.95,3.07
21.05675506591797,-1.26,1.28,-0.71,1.93
21.063832759857178,-1.45,-0.33,-0.12,1.49
21.07425594329834,-1.37,-1.8,0.57,2.33
21.083909034729004,-1.08,-2.94,1.02,3.29
21.105268001556396,-0.67,-3.63,1.13,3.86
21.10562801361084,-0.3,-4.08,0.99,4.2
21.113754987716675,-0.05,-4.39,0.69,4.44
21.12402892112732,-0.01,-4.43,0.41,4.44
21.133583068847656,0.01,-4.21,0.32,4.22
21.156376838684082,0.0,-3.91,0.35,3.92
21.1567440032959,-0.06,-3.65,0.52,3.68
21.16382884979248,-0.02,-3.35,0.73,3.42
21.17374610900879,-0.04,-3.11,0.78,3.2
21.183889865875244,0.09,-2.9,0.92,3.04
21.20579481124878,0.15,-2.74,1.13,2.96
21.206153869628906,0.23,-2.64,1.21,2.91
21.21379590034485,0.26,-2.53,1.17,2.79
21.223691940307617,0.32,-2.25,1.06,2.5
21.233859062194824,0.36,-1.88,0.91,2.11
21.2554030418396,0.36,-1.42,0.82,1.67
21.25572896003723,0.36,-0.88,0.75,1.21
21.26377296447754,0.54,-0.25,0.69,0.91
21.273802757263184,0.68,0.37,0.76,1.08
21.283910989761353,0.85,0.79,0.78,1.39
21.306063890457153,0.81,0.91,0.58,1.34
21.306418895721436,0.65,0.95,0.32,1.19
21.313750982284546,0.54,1.27,0.47,1.45
21.323814868927002,0.66,1.72,1.16,2.17
21.333888053894043,0.86,2.25,1.94,3.09
21.356022834777832,0.94,3.02,2.44,3.99
21.356376886367798,1.05,4.13,2.5,4.94
21.363781929016113,0.92,5.21,1.72,5.56
21.373866081237793,0.46,5.91,-0.02,5.92
21.383931875228882,-0.09,6.05,-2.12,6.41
21.40546989440918,-0.43,5.45,-3.6,6.54
21.40583086013794,-0.7,4.34,-4.08,5.99
21.41374897956848,-1.0,3.41,-3.59,5.05
21.423823833465576,-1.15,2.44,-2.41,3.61
21.43395495414734,-1.27,1.36,-1.2,2.21
21.456253051757812,-1.3,0.54,-0.54,1.5
21.45661687850952,-1.32,0.12,-0.32,1.36
21.463747024536133,-1.25,0.16,-0.34,1.3
21.474117755889893,-1.17,0.38,-0.38,1.28
21.484050989151,-1.13,0.65,-0.42,1.36
21.50606894493103,-0.95,0.9,-0.24,1.33
21.506438970565796,-0.76,1.04,-0.08,1.29
21.51384997367859,-0.52,0.9,-0.15,1.05
21.523905754089355,-0.25,0.5,-0.32,0.64
21.533907890319824,0.05,0.0,-0.44,0.44
21.55590009689331,0.24,-0.55,-0.41,0.72
21.556253910064697,0.33,-1.24,-0.2,1.29
21.563910007476807,0.2,-2.03,0.01,2.03
21.57393789291382,-0.08,-2.82,0.11,2.82
21.58404779434204,-0.34,-3.5,0.01,3.51
21.606925010681152,-0.56,-3.96,-0.13,4.0
21.607308864593506,-0.63,-4.17,-0.19,4.22
21.614036083221436,-0.63,-4.18,-0.2,4.23
21.62395691871643,-0.55,-4.0,-0.14,4.04
21.63404607772827,-0.42,-3.72,0.05,3.74
21.658196926116943,-0.43,-3.41,0.28,3.44
21.65924882888794,-0.43,-3.22,0.48,3.28
21.664000034332275,-0.45,-3.1,0.64,3.19
21.67394495010376,-0.48,-3.03,0.91,3.19
21.684056758880615,-0.53,-2.94,1.07,3.17
21.708343982696533,-0.62,-2.76,1.13,3.04
21.70944094657898,-0.68,-2.54,1.22,2.89
21.714009761810303,-0.67,-2.22,1.19,2.6
21.7239408493042,-0.75,-1.81,0.98,2.19
21.73425006866455,-0.87,-1.29,0.87,1.78
21.757200956344604,-0.94,-0.73,0.86,1.46
21.757561922073364,-0.9,-0.14,0.82,1.22
21.763962984085083,-0.97,0.34,0.89,1.35
21.77385377883911,-1.01,0.84,1.12,1.72
21.784027099609375,-0.98,1.32,1.1,1.97
21.80608296394348,-0.99,1.69,0.88,2.14
21.80643606185913,-1.0,2.07,0.75,2.41
21.813926935195923,-1.0,2.6,1.1,2.99
21.823853969573975,-0.82,3.24,1.83,3.81
21.834227085113525,-0.45,3.87,2.47,4.61
21.854794025421143,-0.03,4.18,2.61,4.92
21.855116844177246,0.35,4.46,2.15,4.96
21.864011764526367,0.57,4.88,1.58,5.16
21.873985767364502,0.72,5.01,0.46,5.08
21.883960962295532,0.66,4.23,-2.04,4.74
21.902709007263184,0.48,3.01,-4.45,5.39
21.903748035430908,0.56,2.31,-5.12,5.64
21.914258003234863,1.2,2.15,-4.11,4.79
21.924019813537598,1.8,1.65,-2.56,3.53
21.933993816375732,2.14,0.46,-1.26,2.52
21.95781397819519,2.53,-0.69,-0.43,2.65
21.95818591117859,2.71,-1.17,-0.18,2.95
21.964056968688965,2.47,-0.97,-0.56,2.71
21.97402000427246,2.04,-0.07,-1.18,2.35
21.984132766723633,1.63,1.06,-1.54,2.48
22.00773787498474,1.15,2.0,-1.41,2.7
22.008107900619507,0.75,2.74,-0.94,2.99
22.0140380859375,0.31,3.11,-0.54,3.17
22.02412700653076,-0.17,2.91,-0.34,2.93
22.034095764160156,-0.69,2.09,-0.18,2.2
22.0576229095459,-1.06,0.79,0.11,1.32
22.057995796203613,-1.32,-0.72,0.42,1.56
22.064055919647217,-1.42,-2.08,0.61,2.59
22.073973894119263,-1.27,-3.14,0.76,3.47
22.084131956100464,-1.05,-3.87,0.77,4.08
22.109134912490845,-0.74,-4.31,0.7,4.42
22.110167980194092,-0.47,-4.48,0.67,4.55
22.114036083221436,-0.18,-4.45,0.61,4.49
22.124120950698853,-0.07,-4.29,0.62,4.33
22.134140014648438,0.05,-3.98,0.74,4.04
22.158768892288208,0.12,-3.57,0.8,3.66
22.159893035888672,0.21,-3.16,0.71,3.24
22.164047956466675,0.22,-2.89,0.71,2.98
22.174123764038086,0.17,-2.77,0.88,2.91
22.184242963790894,0.23,-2.66,1.07,2.87
22.20846390724182,0.32,-2.51,1.18,2.79
22.20883083343506,0.47,-2.26,1.21,2.6
22.21407985687256,0.55,-1.84,1.26,2.29
22.22405695915222,0.61,-1.35,1.27,1.95
22.2342529296875,0.67,-0.88,1.1,1.55
22.257986068725586,0.62,-0.38,0.76,1.05
22.258359909057617,0.55,0.2,0.48,0.75
22.264080047607422,0.48,0.77,0.38,0.98
22.273905754089355,0.36,1.14,0.3,1.23
22.28418493270874,0.24,1.23,0.08,1.25
22.308228015899658,0.26,1.36,0.0,1.38
22.308589935302734,0.43,1.71,0.57,1.85
22.3141028881073,0.68,2.23,1.63,2.84
22.324049949645996,0.88,3.04,2.28,3.9
22.334171772003174,0.8,3.87,2.27,4.55
22.35695505142212,0.57,4.68,1.61,4.98
22.35731291770935,0.22,5.37,0.1,5.37
22.364104986190796,-0.28,5.64,-1.86,5.94
22.374075889587402,-0.75,5.29,-3.32,6.29
22.384248971939087,-1.09,4.34,-3.89,5.92
22.4078049659729,-1.36,3.29,-3.5,4.99
22.40816593170166,-1.53,2.24,-2.27,3.53
22.41411781311035,-1.53,1.16,-1.04,2.18
22.424100875854492,-1.46,0.26,-0.55,1.58
22.43421697616577,-1.36,-0.22,-0.46,1.45
22.457453966140747,-1.28,-0.14,-0.29,1.31
22.457814931869507,-1.15,0.29,-0.2,1.2
22.464067935943604,-1.15,0.63,-0.25,1.33
22.474158763885498,-1.13,0.88,-0.18,1.44
22.484281063079834,-0.91,1.15,-0.11,1.47
22.507835865020752,-0.67,1.22,-0.08,1.39
22.50819683074951,-0.36,0.95,-0.11,1.02
22.514128923416138,0.01,0.57,-0.27,0.63
22.524183988571167,0.26,0.07,-0.28,0.38
22.534276008605957,0.31,-0.7,-0.09,0.77
22.558408975601196,0.17,-1.67,0.11,1.68
22.558770895004272,-0.06,-2.65,0.17,2.65
22.56427788734436,-0.29,-3.49,0.11,3.5
22.574105978012085,-0.47,-4.15,0.0,4.17
22.584362030029297,-0.56,-4.58,-0.07,4.61
22.608558893203735,-0.51,-4.67,-0.11,4.69
22.60891890525818,-0.52,-4.55,0.02,4.57
22.61419987678528,-0.5,-4.35,0.21,4.38
22.624073028564453,-0.5,-4.09,0.35,4.13
22.63437509536743,-0.45,-3.84,0.39,3.88
22.659010887145996,-0.44,-3.53,0.42,3.58
22.659374952316284,-0.43,-3.2,0.53,3.27
22.66416597366333,-0.42,-2.91,0.65,3.01
22.674138069152832,-0.43,-2.66,0.87,2.83
22.684319019317627,-0.46,-2.46,1.08,2.72
22.70807695388794,-0.49,-2.3,1.1,2.59
22.708448886871338,-0.5,-2.08,1.04,2.37
22.714215755462646,-0.52,-1.66,0.93,1.97
22.724169969558716,-0.6,-1.03,1.04,1.58
22.734333038330078,-0.74,-0.45,1.14,1.43
22.7584228515625,-0.76,0.23,1.07,1.33
22.758790016174316,-1.16,0.92,1.17,1.88
22.764214992523193,-1.25,1.41,1.41,2.35
22.774223804473877,-1.29,1.93,1.08,2.56
22.784364938735962,-1.29,2.21,0.73,2.66
22.809207916259766,-1.13,2.73,0.99,3.11
22.809563875198364,-0.89,3.5,1.81,4.03
22.81429100036621,-0.48,4.14,2.66,4.94
22.824227809906006,0.03,4.69,2.76,5.44
22.834290027618408,0.46,5.37,2.32,5.86
22.85870885848999,0.88,5.89,1.59,6.16
22.859070777893066,1.08,5.49,-0.64,5.63
22.86433506011963,1.04,4.29,-3.54,5.65
22.874223947525024,1.07,3.47,-5.08,6.24
22.884352922439575,1.37,3.03,-4.52,5.61
22.909584999084473,1.85,2.31,-3.17,4.33
22.90994095802307,2.25,0.9,-2.29,3.33
22.914374828338623,2.64,-0.53,-1.6,3.13
22.92426300048828,2.9,-1.35,-0.84,3.3
22.934322834014893,2.97,-1.25,-0.14,3.22
22.9588680267334,2.74,-0.45,-0.33,2.79
22.959228038787842,2.21,0.48,-1.12,2.52
22.96413803100586,1.62,1.32,-1.34,2.48
22.974327087402344,1.09,2.25,-0.89,2.65
22.984304904937744,0.64,3.03,-0.3,3.11
23.009124755859375,0.2,3.24,-0.09,3.24
23.009483814239502,-0.3,2.82,-0.24,2.84
23.01427388191223,-0.82,1.74,-0.31,1.94
23.02411699295044,-1.15,0.32,-0.11,1.19
23.034239768981934,-1.3,-1.06,0.24,1.69
23.05913496017456,-1.21,-2.22,0.6,2.59
23.059494972229004,-0.93,-3.09,0.8,3.32
23.06417989730835,-0.59,-3.74,0.83,3.87
23.074158906936646,-0.29,-4.24,0.76,4.31
23.084260940551758,-0.09,-4.55,0.61,4.59
23.108584880828857,0.04,-4.6,0.52,4.62
23.108935832977295,0.14,-4.42,0.51,4.45
23.114271879196167,0.2,-4.13,0.59,4.17
23.124292850494385,0.23,-3.75,0.64,3.81
23.134320974349976,0.21,-3.4,0.56,3.45
23.14423394203186,0.18,-3.14,0.56,3.19
23.15883779525757,0.23,-2.99,0.57,3.05
23.164237022399902,0.3,-2.82,0.76,2.93
23.17430591583252,0.39,-2.58,1.14,2.84
23.184491872787476,0.54,-2.25,1.3,2.65
23.19432497024536,0.57,-2.0,1.18,2.39
23.209057807922363,0.5,-1.8,1.05,2.14
23.214163780212402,0.38,-1.36,0.96,1.7
23.22421097755432,0.31,-0.68,0.76,1.06
23.23439884185791,0.29,-0.01,0.69,0.74
23.244379997253418,0.33,0.55,0.67,0.92
23.26090908050537,0.29,0.78,0.51,0.97
23.264286994934082,0.13,0.78,0.01,0.79
23.27434492111206,0.21,0.89,-0.13,0.92
23.284579753875732,0.7,1.3,0.81,1.68
23.29441785812378,1.31,1.96,2.19,3.21
23.309782028198242,1.56,2.88,2.64,4.2
23.31438899040222,1.47,4.16,2.35,4.99
23.324291944503784,1.16,5.85,2.16,6.34
23.334396839141846,0.58,7.26,0.99,7.35
23.344337940216064,-0.35,7.42,-1.62,7.6
23.359165906906128,-1.18,6.43,-4.33,7.84
23.36445188522339,-1.58,5.19,-5.66,7.84
23.374327898025513,-1.75,4.49,-4.98,6.92
23.384489059448242,-1.81,3.69,-2.88,5.01
23.394388914108276,-1.83,2.16,-0.89,2.96
23.409132957458496,-1.78,0.62,0.01,1.88
23.41433596611023,-1.7,-0.4,0.3,1.77
23.424327850341797,-1.59,-0.73,0.32,1.77
23.43450403213501,-1.46,-0.46,-0.01,1.53
23.444357872009277,-1.25,0.01,-0.27,1.27
23.460351943969727,-0.98,0.33,-0.21,1.05
23.46441078186035,-0.61,0.48,-0.17,0.79
23.474421977996826,-0.27,0.47,-0.23,0.58
23.484446048736572,0.03,0.28,-0.43,0.51
23.49439287185669,0.28,-0.14,-0.62,0.69
23.510191917419434,0.44,-0.73,-0.64,1.06
23.51439094543457,0.48,-1.48,-0.45,1.61
23.5244460105896,0.36,-2.33,-0.16,2.36
23.534482955932617,0.16,-3.15,-0.01,3.15
23.544419765472412,-0.05,-3.83,-0.03,3.83
23.559666872024536,-0.31,-4.33,-0.02,4.34
23.564286947250366,-0.42,-4.53,0.02,4.54
23.574440002441406,-0.43,-4.48,0.02,4.5
23.584539890289307,-0.42,-4.3,0.04,4.32
23.594439029693604,-0.4,-4.04,0.12,4.06
23.611013889312744,-0.35,-3.77,0.3,3.79
23.61431884765625,-0.24,-3.47,0.54,3.51
23.62440586090088,-0.2,-3.1,0.71,3.18
23.634541034698486,-0.27,-2.71,0.84,2.85
23.64449691772461,-0.35,-2.34,1.02,2.57
23.660390853881836,-0.49,-2.06,1.19,2.42
23.664441108703613,-0.63,-1.83,1.19,2.27
23.674503803253174,-0.8,-1.66,1.14,2.16
23.684509754180908,-0.92,-1.48,1.1,2.06
23.694474935531616,-1.03,-1.16,0.91,1.79
23.710299968719482,-1.06,-0.78,0.79,1.53
23.714416027069092,-1.12,-0.35,0.83,1.43
23.724541902542114,-1.16,0.2,0.94,1.5
23.734556913375854,-1.18,0.81,1.0,1.74
23.744475841522217,-1.15,1.33,0.99,2.01
23.761032104492188,-1.05,1.69,0.75,2.12
23.764314889907837,-1.0,1.94,0.35,2.21
23.774510860443115,-1.09,2.4,0.36,2.66
23.784607887268066,-1.16,3.24,1.13,3.62
23.79451894760132,-1.08,4.14,2.13,4.77
23.810007095336914,-0.73,4.82,2.41,5.43
23.81448793411255,-0.21,5.29,2.09,5.69
23.824573040008545,0.45,5.43,1.24,5.58
23.834413051605225,0.97,4.88,-0.68,5.02
23.844510078430176,1.3,3.92,-2.93,5.06
23.861117839813232,1.54,3.26,-4.27,5.58
23.86442494392395,1.88,2.83,-4.16,5.37
23.874433040618896,2.27,2.17,-3.26,4.52
23.88453197479248,2.62,1.13,-2.41,3.73
23.89449977874756,2.82,0.0,-1.55,3.21
23.91080594062805,2.95,-0.69,-0.72,3.11
23.9145770072937,2.87,-0.72,-0.26,2.97
23.92463493347168,2.56,-0.17,-0.52,2.61
23.934569835662842,2.01,0.56,-1.15,2.38
23.94450807571411,1.43,1.27,-1.33,2.32
23.962055921554565,0.99,2.07,-1.06,2.52
23.96461582183838,0.76,2.84,-0.8,3.04
23.974621772766113,0.36,3.14,-0.79,3.25
23.984665870666504,-0.19,2.81,-1.01,2.99
23.994493007659912,-0.69,1.84,-0.86,2.14
24.011877059936523,-1.01,0.56,-0.48,1.25
24.01449489593506,-1.23,-0.73,-0.12,1.43
24.024643898010254,-1.22,-1.87,0.2,2.24
24.034608840942383,-1.02,-2.8,0.46,3.01
24.04457998275757,-0.78,-3.49,0.61,3.62
24.06155776977539,-0.62,-3.93,0.62,4.02
24.064414978027344,-0.34,-4.17,0.57,4.22
24.074591875076294,-0.13,-4.25,0.5,4.28
24.08467197418213,-0.1,-4.16,0.49,4.18
24.094639778137207,-0.01,-4.0,0.53,4.03
24.11152982711792,0.02,-3.79,0.54,3.82
24.11451005935669,0.07,-3.51,0.48,3.54
24.124552965164185,0.11,-3.21,0.51,3.25
24.13463592529297,0.18,-2.99,0.62,3.05
24.144607067108154,0.22,-2.83,0.83,2.95
24.1615788936615,0.31,-2.75,1.06,2.96
24.164413928985596,0.41,-2.7,1.17,2.97
24.174633979797363,0.46,-2.52,1.21,2.83
24.18470287322998,0.39,-2.12,1.14,2.43
24.195261001586914,0.38,-1.6,0.92,1.88
24.210998058319092,0.24,-1.16,0.78,1.41
24.214494943618774,0.15,-0.7,0.59,0.92
24.224430084228516,0.17,-0.25,0.52,0.6
24.234593868255615,0.25,0.17,0.56,0.63
24.244565963745117,0.3,0.5,0.41,0.71
24.26099395751953,0.33,0.86,0.04,0.92
24.264403820037842,0.4,1.26,-0.17,1.33
24.2746639251709,0.69,1.51,0.61,1.76
24.284614086151123,1.21,1.89,1.97,2.98
24.294692039489746,1.6,2.69,2.66,4.1
24.312406063079834,1.82,3.92,2.6,5.04
24.31449294090271,1.9,5.32,2.29,6.09
24.32471799850464,1.36,6.12,1.07,6.35
24.334573984146118,0.32,5.94,-1.29,6.08
24.344566822052002,-0.43,5.34,-3.75,6.53
24.361645936965942,-0.94,4.56,-5.08,6.89
24.36436700820923,-1.4,4.05,-4.66,6.33
24.37465476989746,-1.93,3.46,-3.09,5.02
24.384814977645874,-2.34,2.2,-1.47,3.53
24.39459800720215,-2.44,0.77,-0.43,2.59
24.41197109222412,-2.29,-0.27,0.21,2.31
24.414517879486084,-1.96,-0.72,0.34,2.11
24.424678802490234,-1.57,-0.62,-0.06,1.68
24.434815883636475,-1.11,-0.13,-0.42,1.19
24.444722890853882,-0.75,0.36,-0.44,0.94
24.46194887161255,-0.52,0.54,-0.45,0.87
24.464493989944458,-0.31,0.55,-0.5,0.8
24.474763870239258,-0.16,0.53,-0.77,0.94
24.48472785949707,0.0,0.45,-1.13,1.21
24.4949688911438,0.11,0.1,-1.23,1.23
24.512633800506592,0.13,-0.46,-1.01,1.11
24.514482975006104,0.13,-1.17,-0.61,1.32
24.524768829345703,0.09,-1.9,-0.19,1.91
24.534719944000244,0.02,-2.5,0.12,2.5
24.544586896896362,-0.07,-2.98,0.29,2.99
24.562411785125732,-0.12,-3.37,0.25,3.38
24.564551830291748,-0.23,-3.55,0.06,3.55
24.574694871902466,-0.34,-3.47,-0.1,3.48
24.58458709716797,-0.36,-3.22,-0.08,3.24
24.596162796020508,-0.31,-2.85,0.24,2.87
24.613505840301514,-0.22,-2.59,0.41,2.63
24.61601686477661,-0.12,-2.42,0.58,2.49
24.62610101699829,-0.11,-2.39,0.75,2.5
24.636183977127075,-0.24,-2.39,0.81,2.53
24.64604687690735,-0.47,-2.37,0.9,2.57
24.663256883621216,-0.75,-2.33,0.97,2.63
24.666003942489624,-1.03,-2.23,1.05,2.67
24.67619490623474,-1.19,-2.0,1.18,2.6
24.686165809631348,-1.24,-1.6,1.24,2.37
24.696172952651978,-1.29,-1.17,1.12,2.07
24.713218927383423,-1.23,-0.72,1.03,1.75
24.716114044189453,-1.1,-0.23,0.85,1.4
24.72655487060547,-0.99,0.25,0.76,1.27
24.736207008361816,-0.84,0.77,0.73,1.35
24.746153831481934,-0.6,1.21,0.45,1.42
24.762982845306396,-0.48,1.48,0.09,1.55
24.765981912612915,-0.7,1.84,0.22,1.98
24.77611780166626,-0.85,2.54,1.06,2.88
24.786176919937134,-0.81,3.26,2.0,3.9
24.79611587524414,-0.62,3.65,2.32,4.36
24.812169075012207,-0.28,4.04,2.15,4.58
24.8160719871521,0.3,4.44,1.72,4.77
24.82618284225464,0.73,4.36,0.38,4.43
24.83615493774414,1.09,3.75,-1.92,4.35
24.846134901046753,1.25,3.07,-3.89,5.11
24.86275291442871,1.51,2.61,-4.46,5.38
24.866127967834473,1.94,2.23,-3.86,4.86
24.876073837280273,2.2,1.45,-3.01,4.0
24.88616394996643,2.35,0.25,-2.11,3.16
24.896219968795776,2.44,-0.83,-1.34,2.9
24.912864923477173,2.42,-1.33,-0.77,2.86
24.916287899017334,2.19,-1.16,-0.69,2.57
24.926022052764893,1.84,-0.52,-1.09,2.2
24.936304092407227,1.37,0.51,-1.24,1.91
24.946194887161255,0.99,1.77,-0.95,2.23
24.96297597885132,0.85,2.96,-0.81,3.18
24.96608304977417,0.63,3.64,-1.22,3.89
24.976236820220947,0.22,3.77,-1.94,4.24
24.98619294166565,-0.26,3.47,-2.21,4.12
24.996243000030518,-0.63,2.51,-1.88,3.19
25.012896060943604,-0.88,1.16,-1.02,1.77
25.016140937805176,-0.86,-0.05,-0.16,0.87
25.02619504928589,-0.63,-0.96,0.28,1.18
25.03629207611084,-0.35,-1.66,0.47,1.76
25.046199798583984,-0.04,-2.13,0.49,2.18
25.063992023468018,0.14,-2.43,0.44,2.47
25.066081047058105,0.08,-2.65,0.14,2.65
25.076219081878662,0.01,-2.69,-0.1,2.69
25.086334943771362,-0.15,-2.64,-0.04,2.64
25.09618377685547,-0.23,-2.63,0.12,2.64
25.11374807357788,-0.19,-2.62,0.17,2.63
25.116182804107666,-0.11,-2.6,0.22,2.61
25.126282930374146,0.0,-2.58,0.26,2.59
25.136291980743408,0.07,-2.58,0.37,2.6
25.146278858184814,0.15,-2.65,0.55,2.71
25.163952827453613,0.21,-2.7,0.62,2.77
25.166014909744263,0.24,-2.8,0.48,2.85
25.17629384994507,0.27,-2.88,0.21,2.9
25.18630599975586,0.28,-2.89,0.05,2.9
25.196300983428955,0.26,-2.71,0.16,2.72
25.21356201171875,0.35,-2.32,0.47,2.39
25.216147899627686,0.44,-1.74,0.73,1.93
25.226218938827515,0.51,-1.11,0.9,1.51
25.236190795898438,0.56,-0.54,0.65,1.01
25.246330976486206,0.56,-0.17,0.28,0.64
25.26330804824829,0.53,-0.04,0.07,0.53
25.26618480682373,0.48,0.11,-0.45,0.66
25.2763569355011,0.51,0.49,-0.66,0.96
25.28620481491089,0.74,1.22,0.22,1.44
25.29637598991394,1.12,2.19,1.45,2.85
25.31308603286743,1.33,3.22,1.87,3.95
25.316353797912598,1.38,4.1,2.09,4.8
25.326332092285156,1.15,4.64,1.86,5.12
25.336289882659912,0.64,4.72,0.34,4.77
25.34633493423462,0.01,4.6,-1.56,4.85
25.364439010620117,-0.52,4.34,-2.81,5.19
25.36616277694702,-1.06,3.72,-3.11,4.96
25.376391887664795,-1.45,3.05,-2.92,4.46
25.386172771453857,-1.64,2.21,-2.54,3.74
25.39630699157715,-1.6,1.03,-2.17,2.88
25.414073944091797,-1.56,-0.16,-1.69,2.3
25.416200876235962,-1.44,-0.95,-1.05,2.01
25.42630910873413,-1.09,-1.07,-0.47,1.59
25.436316967010498,-0.71,-0.65,-0.35,1.02
25.446366786956787,-0.44,-0.06,-0.85,0.95
25.463499069213867,-0.32,0.52,-1.55,1.66
25.466186046600342,-0.25,1.11,-1.66,2.01
25.476380825042725,-0.08,1.67,-1.37,2.16
25.486286878585815,0.09,2.1,-1.15,2.39
25.496460914611816,0.37,2.2,-1.02,2.45
25.51337194442749,0.67,1.95,-0.98,2.28
25.516263008117676,0.9,1.47,-0.83,1.91
25.526216983795166,1.05,0.84,-0.43,1.41
25.536325931549072,0.95,0.03,-0.12,0.95
25.546348094940186,0.65,-0.97,-0.02,1.16
25.56406593322754,0.35,-1.79,-0.06,1.82
25.56636691093445,0.13,-2.36,-0.15,2.36
25.57636594772339,0.02,-2.68,-0.28,2.69
25.586287021636963,-0.02,-2.82,-0.47,2.85
25.596374034881592,-0.03,-2.8,-0.47,2.83
25.612921953201294,0.04,-2.61,-0.3,2.62
25.6164870262146,0.22,-2.3,-0.15,2.31
25.626375913619995,0.35,-1.99,-0.12,2.02
25.63620901107788,0.34,-1.88,-0.25,1.92
25.646333932876587,0.31,-1.85,-0.46,1.93
25.663251876831055,0.23,-1.85,-0.69,1.98
25.666416883468628,0.17,-1.79,-0.79,1.96
25.676434993743896,0.08,-1.64,-0.74,1.8
25.686284065246582,0.01,-1.43,-0.72,1.6
25.69636297225952,-0.05,-1.21,-0.7,1.39
25.71393585205078,-0.18,-1.07,-0.56,1.22
25.716681003570557,-0.21,-0.85,-0.51,1.01
25.726378917694092,-0.19,-0.47,-0.7,0.86
25.736370086669922,-0.07,-0.08,-0.78,0.78
25.746432781219482,0.07,0.32,-0.76,0.82
25.76409387588501,0.11,0.64,-0.47,0.8
25.766685962677002,0.18,0.77,-0.14,0.8
25.776465892791748,0.08,0.74,0.05,0.74
25.78635883331299,0.0,0.72,-0.05,0.72
25.796366930007935,0.01,0.71,-0.17,0.73
25.815381050109863,-0.06,0.53,-0.13,0.54
25.81668186187744,-0.18,0.34,0.03,0.38
25.826507091522217,-0.23,0.2,-0.03,0.3
25.83648109436035,-0.28,0.11,-0.3,0.42
25.846519947052002,-0.34,0.09,-0.36,0.5
25.864479064941406,-0.34,0.12,-0.42,0.55
25.866809844970703,-0.37,0.29,-0.63,0.78
25.876394987106323,-0.45,0.65,-0.55,0.96
25.886434078216553,-0.41,1.22,-0.07,1.28
25.896639823913574,-0.19,1.95,0.2,1.96
25.915302753448486,0.07,2.52,0.11,2.52
25.916226863861084,0.29,2.55,-0.11,2.56
25.926480770111084,0.78,2.18,-0.74,2.43
25.936575889587402,1.23,1.74,-1.64,2.68
25.9464750289917,1.54,1.27,-2.22,2.98
25.963759899139404,1.7,0.89,-2.23,2.94
25.96697998046875,1.78,0.28,-1.86,2.58
25.976431846618652,1.65,-0.35,-1.22,2.08
25.986418962478638,1.86,-0.89,-0.58,2.14
25.996585845947266,2.27,-1.24,-0.34,2.6
26.014352798461914,2.41,-1.11,-0.19,2.66
26.01639699935913,2.41,-0.82,-0.17,2.55
26.026544094085693,2.4,-0.33,-0.14,2.42
26.036406993865967,2.24,0.16,0.01,2.24
26.046446800231934,2.21,0.78,0.21,2.35
26.06492805480957,2.2,1.25,0.3,2.54
26.06644582748413,2.16,1.51,0.4,2.66
26.07651996612549,2.08,1.53,0.23,2.59
26.08643388748169,1.97,1.36,-0.08,2.39
26.096538066864014,1.93,1.17,-0.46,2.3
26.11579990386963,1.9,0.94,-0.69,2.22
26.116504907608032,1.87,0.69,-0.65,2.09
26.126550912857056,1.95,0.38,-0.44,2.03
26.13652801513672,1.89,0.17,-0.21,1.9
26.146514892578125,1.77,-0.01,0.14,1.77
26.166022777557373,1.58,-0.21,0.38,1.63
26.16639995574951,1.25,-0.5,0.18,1.35
26.176722049713135,0.82,-0.72,-0.32,1.13
26.186564922332764,0.68,-0.83,-0.77,1.32
26.19654607772827,0.77,-0.73,-1.1,1.52
26.21522283554077,0.97,-0.65,-0.98,1.52
26.21653985977173,1.21,-0.81,-0.49,1.53
26.226504802703857,1.48,-1.19,-0.02,1.89
26.236403942108154,1.4,-1.37,0.22,1.97
26.246612071990967,1.22,-1.28,0.33,1.79
26.265341758728027,1.07,-1.08,0.36,1.56
26.266310930252075,0.99,-0.9,0.83,1.57
26.276662826538086,0.98,-0.73,1.36,1.82
26.286396980285645,0.97,-0.74,1.77,2.14
26.296595096588135,0.95,-0.9,1.89,2.29
26.31407880783081,1.05,-0.95,1.79,2.28
26.316415786743164,1.19,-0.89,1.41,2.04
26.32655906677246,1.43,-0.76,0.94,1.87
26.33641791343689,1.64,-0.52,0.54,1.8
26.346570014953613,1.77,-0.26,0.31,1.81
26.364298820495605,1.7,0.03,0.33,1.73
26.366393089294434,1.56,0.32,0.47,1.66
26.376845836639404,1.29,0.47,0.55,1.47
26.38644790649414,1.1,0.57,0.66,1.4
26.39655089378357,0.98,0.64,0.76,1.39
26.41462802886963,1.1,0.77,0.48,1.42
26.416510105133057,1.19,0.88,-0.17,1.48
26.426634788513184,1.24,0.84,-0.74,1.67
26.436450958251953,1.13,0.83,-1.04,1.74
26.446660041809082,0.96,0.79,-0.98,1.58
26.464579105377197,0.76,0.62,-0.49,1.09
26.466510772705078,0.53,0.22,-0.15,0.59
26.476694107055664,0.31,-0.1,-0.3,0.44
26.486633777618408,0.09,-0.22,-0.67,0.71
26.49670696258545,-0.09,-0.24,-1.01,1.04
26.514700889587402,-0.21,-0.25,-1.22,1.26
26.516541957855225,-0.26,-0.24,-1.29,1.33
26.526511907577515,-0.11,-0.21,-1.56,1.57
26.536597967147827,0.16,-0.07,-1.5,1.51
26.54656195640564,0.35,0.03,-0.96,1.02
26.564963817596436,0.29,0.1,-0.58,0.65
26.56649398803711,0.14,0.09,-0.56,0.58
26.576586961746216,-0.06,0.06,-0.75,0.75
26.58658504486084,-0.11,-0.06,-0.72,0.73
26.596513986587524,-0.11,-0.21,-0.61,0.65
26.614810943603516,-0.15,-0.33,-0.56,0.66
26.616579055786133,-0.14,-0.42,-0.65,0.78
26.626529932022095,-0.15,-0.48,-0.94,1.06
26.636554956436157,-0.14,-0.58,-1.12,1.26
26.646517753601074,-0.12,-0.56,-1.26,1.38
26.66507577896118,-0.06,-0.38,-1.22,1.27
26.6664879322052,-0.07,-0.15,-1.03,1.04
26.676543951034546,-0.12,0.01,-0.86,0.86
26.686594009399414,-0.16,0.12,-0.64,0.67
26.696571826934814,-0.23,0.18,-0.43,0.51
26.715243816375732,-0.21,0.11,-0.36,0.43
26.71650791168213,-0.28,0.02,-0.39,0.48
26.726377964019775,-0.36,-0.01,-0.75,0.83
26.73656702041626,-0.33,0.07,-0.64,0.72
26.7466299533844,-0.37,0.03,-0.34,0.5
26.765061855316162,-0.37,-0.1,-0.3,0.48
26.76655101776123,-0.53,-0.2,-0.51,0.76
26.776551961898804,-0.57,-0.27,-0.77,0.99
26.786606788635254,-0.49,-0.25,-0.7,0.89
26.79670810699463,-0.43,-0.25,-0.47,0.68
26.81613779067993,-0.34,-0.26,-0.22,0.48
26.81658387184143,-0.33,-0.35,-0.09,0.48
26.826636791229248,-0.4,-0.04,-0.09,0.41
26.83677577972412,0.04,-0.05,-0.21,0.21
26.846846103668213,-0.45,-0.91,0.01,1.01
26.86600685119629,-0.41,-0.38,0.06,0.56
26.866534948349,0.05,0.12,0.04,0.13
26.876783847808838,0.04,-0.04,-0.35,0.35
26.88663387298584,0.6,0.3,-0.72,0.98
26.89684009552002,-0.03,0.17,0.0,0.17
26.916793823242188,-0.51,0.1,0.9,1.03
26.917160987854004,-0.02,-0.2,0.19,0.27
26.926832914352417,-0.24,-0.01,-0.14,0.27
26.936768054962158,0.11,0.17,-0.1,0.22
26.946845054626465,0.19,0.23,0.03,0.29
26.966546058654785,0.16,0.29,0.42,0.53
26.9669029712677,0.09,0.07,0.79,0.79
26.97682809829712,0.09,-0.37,0.98,1.05
26.98662495613098,-0.09,-0.54,1.15,1.27
26.99691104888916,-0.04,-0.48,1.07,1.17
27.01645278930664,0.0,-0.53,0.86,1.01
27.016815900802612,-0.05,-0.45,0.69,0.82
27.026736974716187,-0.08,-0.38,0.5,0.63
27.036643981933594,-0.01,-0.14,0.47,0.49
27.046717882156372,0.2,0.39,0.43,0.61
27.065913915634155,-0.25,0.03,0.46,0.52
27.066543102264404,-0.24,-0.08,0.57,0.62
27.076711893081665,-0.23,-0.19,0.76,0.81
27.086627960205078,-0.24,-0.23,0.55,0.64
27.096755027770996,-0.05,-0.18,0.21,0.28
27.115768909454346,0.13,-0.12,0.13,0.21
27.116748809814453,0.17,0.0,0.16,0.23
27.1268310546875,0.16,0.01,0.04,0.16
27.136696815490723,0.19,-0.15,-0.12,0.27
27.146894931793213,0.15,-0.19,-0.14,0.27
27.165949821472168,-0.09,-0.16,-0.17,0.25
27.166594982147217,-0.31,-0.34,-0.19,0.49
27.17683696746826,-0.48,-0.37,-0.37,0.71
27.18676495552063,-0.71,-0.31,-0.36,0.85
27.19693899154663,-0.7,-0.19,-0.1,0.73
27.21619987487793,-0.7,-0.04,-0.14,0.71
27.216683864593506,-0.48,-0.11,-0.29,0.57
27.22673797607422,-0.32,-0.3,-0.38,0.58
27.236939907073975,-0.36,0.08,-0.58,0.68
27.246964931488037,-0.17,0.12,-0.72,0.74
27.266894817352295,-0.3,-0.05,-0.71,0.77
27.26725196838379,-0.46,-0.38,-0.43,0.73
27.276941776275635,-0.55,-0.8,0.07,0.97
27.28801989555359,-0.49,-0.91,0.27,1.06
27.29680895805359,-0.51,-0.56,-0.07,0.76
27.316926956176758,-0.37,-0.06,-0.5,0.62
27.31729292869568,0.01,0.13,-0.9,0.9
27.326973915100098,0.27,0.07,-1.12,1.15
27.35352087020874,0.19,-0.46,-1.39,1.47
27.35498285293579,-0.33,-0.21,-0.77,0.86
27.35685396194458,-0.64,0.13,0.0,0.65
27.366744995117188,-0.3,-0.36,0.73,0.86
27.380521774291992,0.06,-0.3,1.08,1.12
27.386669874191284,-0.1,-0.08,0.92,0.92
27.39682698249817,-0.16,-0.03,0.76,0.77
27.413249969482422,0.02,0.12,0.58,0.59
27.416804790496826,0.12,0.24,0.43,0.5
27.42684507369995,0.33,0.21,0.53,0.65
27.436742782592773,0.5,0.35,0.55,0.82
27.44683289527893,0.53,0.51,0.16,0.75
27.46440601348877,0.49,0.49,-0.37,0.78
27.466795921325684,0.12,0.61,-0.36,0.71
27.476846933364868,0.0,0.56,0.09,0.56
27.486763954162598,0.06,0.49,0.17,0.52
27.496959924697876,0.3,0.69,0.24,0.78
27.51487898826599,0.46,0.93,0.28,1.07
27.516689777374268,0.32,0.81,0.31,0.92
27.526959896087646,0.22,0.65,0.29,0.74
27.536815881729126,0.19,0.64,-0.04,0.66
27.546955108642578,0.21,0.58,-0.55,0.82
27.566030979156494,0.13,0.63,-0.8,1.02
27.566710948944092,0.15,0.7,-0.84,1.1
27.576940059661865,0.04,0.37,-0.5,0.62
27.586705923080444,-0.07,0.25,0.1,0.27
27.59700107574463,-0.1,0.08,0.61,0.62
27.617321014404297,-0.1,-0.03,0.68,0.68
27.617673873901367,-0.2,0.1,0.41,0.46
27.626923084259033,0.05,-0.02,-0.2,0.2
27.636837005615234,0.2,0.09,-0.63,0.66
27.64700984954834,0.39,0.39,-0.79,0.96
27.667760848999023,0.66,0.58,-0.63,1.08
27.66811490058899,0.74,0.68,-0.06,1.0
27.677024841308594,0.78,0.56,0.64,1.15
27.686767101287842,0.98,0.23,1.2,1.56
27.697062969207764,1.23,0.02,1.39,1.85
27.718137979507446,1.42,0.11,1.19,1.85
27.718506813049316,1.48,0.16,0.83,1.7
27.726964950561523,1.3,0.12,0.38,1.35
27.73677897453308,0.9,0.04,-0.07,0.9
27.746891975402832,0.44,-0.17,-0.25,0.53
27.769104957580566,0.3,-0.24,-0.26,0.46
27.770065784454346,0.01,0.26,0.2,0.32
27.777105808258057,0.28,0.34,0.44,0.62
27.786927938461304,0.93,0.33,0.38,1.05
27.79714798927307,1.35,0.44,0.29,1.44
27.81846809387207,1.47,0.48,0.35,1.58
27.81882381439209,1.43,0.29,0.58,1.57
27.82698678970337,1.16,0.03,0.94,1.49
27.83678698539734,0.82,-0.09,1.18,1.43
27.846999883651733,0.58,-0.11,1.15,1.29
27.86787986755371,0.6,-0.1,0.83,1.02
27.86823296546936,0.75,-0.05,0.31,0.81
27.877027988433838,0.71,-0.01,-0.16,0.72
27.886899948120117,0.6,-0.03,-0.43,0.73
27.89708709716797,0.63,-0.01,-0.55,0.83
27.91775393486023,0.74,-0.05,-0.59,0.94
27.918107986450195,0.93,-0.09,-0.51,1.06
27.92702293395996,1.21,-0.12,-0.38,1.27
27.936984062194824,1.35,-0.06,-0.28,1.38
27.94716787338257,1.2,-0.06,-0.23,1.22
27.968255043029785,0.91,-0.22,-0.17,0.95
27.968614101409912,0.64,-0.31,-0.06,0.71
27.977036952972412,0.52,-0.38,0.1,0.65
27.98708200454712,0.49,-0.4,0.31,0.7
27.99716806411743,0.64,-0.43,0.46,0.89
28.01849889755249,0.79,-0.45,0.39,0.98
28.018857955932617,0.63,-0.36,0.29,0.78
28.026912927627563,0.29,-0.32,0.22,0.48
28.037209033966064,0.12,-0.4,0.13,0.43
28.04711389541626,0.1,-0.63,0.08,0.64
28.068227767944336,0.07,-0.83,0.08,0.83
28.068588972091675,0.35,-0.53,0.01,0.63
28.077022075653076,0.68,-0.38,-0.18,0.79
28.087976932525635,1.12,-0.02,-0.5,1.22
28.09702491760254,1.22,0.73,-1.04,1.76
28.118172883987427,1.13,0.69,-1.48,1.98
28.11853289604187,0.71,0.02,-1.63,1.77
28.127023935317993,0.12,-0.34,-1.46,1.5
28.137362003326416,-0.05,-0.44,-1.16,1.24
28.147088050842285,0.22,-0.7,-0.51,0.89
