time,ax,ay,az,atotal
0.024302005767822266,0.1,-0.05,0.44,0.45
0.025262832641601562,-0.08,-0.14,0.29,0.33
0.02710580825805664,-0.3,-0.12,0.16,0.36
0.04177093505859375,-0.32,-0.18,0.16,0.4
0.04712486267089844,-0.25,-0.13,0.14,0.31
0.06163597106933594,-0.26,-0.19,0.16,0.35
0.06728267669677734,-0.24,-0.17,0.19,0.35
0.0771489143371582,-0.62,-0.04,-0.13,0.63
0.08703780174255371,-0.12,0.14,-0.08,0.2
0.09718680381774902,0.21,-0.31,0.28,0.46
0.11259698867797852,-0.04,-0.28,0.17,0.33
0.1172938346862793,-0.03,-0.01,0.15,0.15
0.1272118091583252,-0.17,0.08,0.0,0.18
0.1372368335723877,-0.2,0.05,-0.06,0.21
0.14722180366516113,-0.49,0.15,-0.31,0.59
0.16326093673706055,-0.26,-0.02,0.47,0.53
0.16727185249328613,0.02,-0.2,0.41,0.45
0.17777490615844727,-0.19,-0.16,0.24,0.34
0.18719482421875,-0.23,0.02,0.2,0.3
0.1971437931060791,-0.16,-0.02,0.15,0.22
0.21385574340820312,-0.15,-0.01,0.04,0.15
0.21745777130126953,-0.19,0.05,-0.03,0.19
0.22752666473388672,-0.15,0.02,-0.01,0.15
0.23710298538208008,-0.16,0.0,0.02,0.16
0.24730682373046875,-0.2,0.0,0.07,0.21
0.26427173614501953,-0.23,0.04,0.04,0.23
0.2674837112426758,-0.33,-0.1,0.01,0.34
0.2771608829498291,0.01,-0.19,0.28,0.33
0.2873868942260742,-0.12,-0.19,0.03,0.22
0.2971057891845703,-0.18,0.05,-0.06,0.19
0.3145108222961426,-0.15,0.14,0.01,0.2
0.3308298587799072,-0.12,0.07,-0.01,0.13
0.33113884925842285,-0.1,-0.01,0.02,0.1
0.3369917869567871,-0.13,-0.03,0.08,0.15
0.3469657897949219,-0.15,-0.03,0.06,0.16
0.3613929748535156,-0.2,-0.06,0.06,0.21
0.36766982078552246,-0.19,-0.04,0.17,0.25
0.3771708011627197,-0.22,0.05,0.13,0.26
0.38703179359436035,-0.16,0.07,0.01,0.17
0.3970367908477783,-0.08,0.08,0.0,0.11
0.4115877151489258,-0.09,0.08,0.03,0.12
0.4284048080444336,-0.08,0.09,0.08,0.14
0.42865586280822754,-0.05,0.09,0.16,0.19
0.43715786933898926,-0.16,0.1,0.14,0.23
0.4470996856689453,-0.06,-0.01,0.06,0.08
0.46029090881347656,0.02,-0.2,0.07,0.21
0.4763767719268799,0.0,-0.27,0.17,0.31
0.47702598571777344,-0.03,-0.19,0.22,0.29
0.48732995986938477,-0.07,-0.15,0.18,0.24
0.4970698356628418,-0.06,-0.09,0.12,0.16
0.5094966888427734,-0.09,0.09,0.21,0.24
0.5173196792602539,-0.11,0.13,0.2,0.26
0.527066707611084,-0.11,0.08,0.04,0.14
0.5369658470153809,-0.04,0.03,-0.12,0.13
0.5471687316894531,-0.02,-0.01,-0.07,0.07
0.5606718063354492,-0.03,0.02,0.08,0.08
0.5673987865447998,-0.05,0.01,0.11,0.12
0.5771627426147461,-0.23,-0.05,0.38,0.44
0.5870277881622314,-0.12,0.06,0.33,0.35
0.5971307754516602,-0.18,0.03,0.16,0.24
0.6113309860229492,-0.1,0.01,0.11,0.14
0.6174359321594238,-0.06,-0.05,0.13,0.15
0.6271820068359375,0.0,-0.05,0.05,0.07
0.6451008319854736,0.08,-0.08,0.02,0.11
0.6471388339996338,0.05,-0.11,0.06,0.13
0.6606287956237793,-0.06,-0.05,0.04,0.08
0.6674268245697021,-0.08,-0.03,0.05,0.09
0.6771798133850098,-0.07,-0.02,0.13,0.14
0.6871418952941895,-0.09,0.03,0.13,0.16
0.6971127986907959,-0.11,0.04,0.13,0.17
0.7108807563781738,-0.09,-0.01,0.14,0.16
0.7173538208007812,-0.03,-0.07,0.16,0.17
0.7272548675537109,0.02,-0.11,0.09,0.14
0.7370388507843018,0.07,-0.1,0.08,0.14
0.7472198009490967,0.08,-0.11,0.12,0.18
0.7619400024414062,0.05,-0.16,0.21,0.26
0.7779018878936768,0.03,-0.2,0.31,0.37
0.7782087326049805,0.05,-0.21,0.4,0.45
0.7871108055114746,0.05,-0.16,0.49,0.51
0.7971796989440918,0.02,-0.1,0.34,0.35
0.810553789138794,0.02,-0.05,0.17,0.17
0.8173458576202393,0.01,-0.01,0.16,0.16
0.8273038864135742,0.06,0.03,0.18,0.19
0.8370866775512695,0.07,0.06,0.22,0.23
0.8472399711608887,0.05,0.02,0.26,0.26
0.8612699508666992,0.02,-0.06,0.25,0.25
0.8674607276916504,-0.01,0.0,0.22,0.22
0.8772916793823242,-0.01,0.02,0.17,0.17
0.8871469497680664,-0.02,0.03,0.12,0.12
0.8972578048706055,-0.08,0.0,0.11,0.13
0.9124588966369629,-0.07,-0.01,0.11,0.13
0.9173469543457031,-0.1,0.02,0.11,0.15
0.9272899627685547,-0.08,0.0,0.08,0.11
0.9373018741607666,-0.05,-0.03,0.09,0.1
0.9471938610076904,-0.06,-0.02,0.11,0.12
0.9633398056030273,-0.08,0.0,0.06,0.1
0.9674758911132812,-0.08,0.01,0.02,0.08
0.9773428440093994,-0.06,-0.03,0.02,0.06
0.9873089790344238,-0.04,-0.03,-0.01,0.05
0.9972918033599854,-0.06,0.0,-0.02,0.06
1.0145478248596191,-0.07,0.0,0.03,0.07
1.0174767971038818,-0.06,0.01,0.05,0.07
1.02734375,-0.07,0.03,0.03,0.08
1.0373497009277344,-0.06,0.05,0.03,0.08
1.0473477840423584,-0.06,0.04,0.06,0.09
1.0645437240600586,-0.08,0.01,0.05,0.09
1.0677146911621094,-0.06,-0.02,0.0,0.06
1.0773286819458008,-0.06,-0.03,0.03,0.07
1.0872387886047363,-0.03,-0.01,0.05,0.05
1.0973949432373047,0.0,0.0,0.08,0.08
1.1150627136230469,0.04,-0.02,0.11,0.11
1.1178789138793945,0.06,-0.04,0.16,0.17
1.1273818016052246,0.08,-0.07,0.23,0.25
1.137436866760254,0.12,-0.06,0.23,0.26
1.1474428176879883,0.14,-0.02,0.18,0.22
1.1651277542114258,0.13,-0.01,0.14,0.19
1.167813777923584,0.09,0.02,0.08,0.12
1.1773509979248047,0.1,0.05,0.08,0.13
1.187410831451416,0.12,0.05,0.12,0.17
1.1974117755889893,0.17,0.03,0.16,0.23
1.215146780014038,0.2,-0.01,0.13,0.23
1.2178139686584473,0.23,-0.03,0.16,0.28
1.2274017333984375,0.27,-0.04,0.21,0.34
1.237421989440918,0.3,-0.02,0.2,0.36
1.2474517822265625,0.28,0.03,0.14,0.31
1.265204906463623,0.29,0.06,0.08,0.3
1.2679028511047363,0.29,0.06,0.07,0.3
1.27734375,0.29,0.07,0.13,0.32
1.2874417304992676,0.26,0.0,0.17,0.31
1.2974457740783691,0.24,-0.07,0.09,0.26
1.3155689239501953,0.26,-0.04,0.2,0.33
1.3178987503051758,0.3,0.02,0.31,0.43
1.3273897171020508,0.34,-0.02,0.23,0.41
1.3374347686767578,0.4,-0.07,0.13,0.42
1.3474087715148926,0.41,-0.08,0.07,0.42
1.3655786514282227,0.39,-0.08,0.15,0.42
1.367790699005127,0.34,-0.03,0.26,0.42
1.3773348331451416,0.34,0.0,0.32,0.46
1.3984789848327637,0.38,0.02,0.35,0.51
1.400132656097412,0.37,0.01,0.28,0.46
1.4118719100952148,0.39,-0.01,0.22,0.44
1.4178047180175781,0.41,-0.03,0.2,0.45
1.427405834197998,0.44,-0.01,0.17,0.47
1.4372467994689941,0.44,0.0,0.14,0.46
1.4473328590393066,0.42,0.01,0.16,0.44
1.4619238376617432,0.4,0.03,0.15,0.42
1.4677786827087402,0.38,0.03,0.14,0.4
1.4772868156433105,0.38,0.0,0.17,0.41
1.4873666763305664,0.37,-0.04,0.2,0.42
1.497361660003662,0.35,-0.09,0.19,0.4
1.5132238864898682,0.34,-0.14,0.16,0.4
1.517807960510254,0.33,-0.14,0.1,0.37
1.5273900032043457,0.34,-0.19,0.09,0.39
1.5374107360839844,0.34,-0.17,0.1,0.39
1.54734468460083,0.33,-0.24,0.1,0.42
1.563828945159912,0.33,-0.28,0.1,0.44
1.5672638416290283,0.25,-0.33,0.01,0.41
1.577455997467041,0.2,-0.4,0.0,0.44
1.5874009132385254,0.17,-0.49,0.02,0.51
1.5973949432373047,0.13,-0.59,-0.02,0.6
1.6149797439575195,0.1,-0.67,-0.1,0.68
1.6172947883605957,0.04,-0.7,-0.14,0.71
1.6274487972259521,0.02,-0.71,-0.06,0.71
1.6375467777252197,0.01,-0.67,0.12,0.68
1.6473438739776611,-0.07,-0.43,0.3,0.52
1.664348840713501,-0.18,-0.15,0.46,0.51
1.6672639846801758,-0.28,0.08,0.65,0.71
1.6774649620056152,-0.37,0.25,0.78,0.89
1.6873207092285156,-0.4,0.39,0.76,0.94
1.6975107192993164,-0.47,0.5,0.66,0.95
1.715188980102539,-0.57,0.5,0.62,0.97
1.717289924621582,-0.66,0.48,0.59,1.0
1.727435827255249,-0.74,0.47,0.59,1.05
1.7374167442321777,-0.78,0.47,0.69,1.14
1.747541904449463,-0.79,0.44,0.83,1.22
1.7654199600219727,-0.82,0.45,0.94,1.32
1.7673048973083496,-0.96,0.43,1.14,1.55
1.7774908542633057,-0.93,0.5,1.12,1.53
1.787463665008545,-0.95,0.64,1.25,1.69
1.7974529266357422,-0.98,0.69,1.5,1.92
1.8157968521118164,-0.94,0.74,1.35,1.8
1.817295789718628,-0.85,0.69,0.97,1.46
1.8275246620178223,-0.75,0.42,1.01,1.32
1.8381807804107666,-0.66,0.18,0.92,1.14
1.847566843032837,-0.58,-0.22,0.77,0.98
1.8656377792358398,-0.47,-0.46,0.79,1.02
1.8673386573791504,-0.4,-0.68,0.89,1.18
1.8775687217712402,-0.34,-0.91,0.94,1.35
1.8876347541809082,-0.35,-1.09,0.88,1.44
1.8974318504333496,-0.39,-1.27,0.91,1.61
1.9156990051269531,-0.39,-1.37,0.96,1.71
1.9173569679260254,-0.34,-1.39,0.97,1.72
1.9275379180908203,-0.36,-1.32,1.0,1.69
1.937363862991333,-0.34,-1.21,1.05,1.63
1.947464942932129,-0.33,-1.14,1.03,1.57
1.9653840065002441,-0.33,-1.04,1.0,1.48
1.967296838760376,-0.38,-0.92,1.0,1.41
1.9775056838989258,-0.42,-0.79,1.0,1.34
1.9875106811523438,-0.44,-0.69,1.03,1.31
1.9975666999816895,-0.48,-0.59,1.14,1.37
2.015490770339966,-0.57,-0.48,1.25,1.45
2.017331838607788,-0.6,-0.42,1.35,1.53
2.0275487899780273,-0.62,-0.39,1.47,1.64
2.0375077724456787,-0.63,-0.34,1.56,1.71
2.0475587844848633,-0.63,-0.29,1.62,1.76
2.0654397010803223,-0.62,-0.24,1.62,1.75
2.0674638748168945,-0.63,-0.18,1.56,1.69
2.077504873275757,-0.59,-0.16,1.53,1.64
2.0874648094177246,-0.55,-0.21,1.53,1.63
2.097566843032837,-0.52,-0.25,1.59,1.69
2.1154909133911133,-0.58,-0.25,1.55,1.67
2.117461681365967,-0.61,-0.31,1.48,1.63
2.1275687217712402,-0.63,-0.32,1.66,1.8
2.1484909057617188,-0.62,-0.32,1.76,1.89
2.1501007080078125,-0.6,-0.46,1.64,1.8
2.162811756134033,-0.57,-0.6,1.51,1.72
2.167332887649536,-0.53,-0.56,1.45,1.64
2.177515983581543,-0.56,-0.45,1.57,1.72
2.1875498294830322,-0.58,-0.4,1.55,1.7
2.197460651397705,-0.58,-0.34,1.52,1.66
2.2132458686828613,-0.7,-0.2,1.59,1.74
2.217392921447754,-0.74,0.01,1.64,1.79
2.22750186920166,-0.83,0.1,1.67,1.86
2.237478733062744,-0.94,0.23,1.72,1.97
2.2474827766418457,-0.96,0.69,1.73,2.09
2.2639646530151367,-1.02,1.44,1.86,2.56
2.2674269676208496,-1.03,2.22,1.91,3.1
2.2775607109069824,-0.89,2.74,1.67,3.32
2.2875547409057617,-0.81,2.91,1.13,3.22
2.29750394821167,-0.76,3.04,0.63,3.19
2.314764976501465,-0.78,3.23,0.55,3.36
2.31742787361145,-0.8,3.5,0.56,3.63
2.3275787830352783,-0.82,3.49,0.4,3.6
2.3375449180603027,-0.95,3.16,0.01,3.29
2.3475148677825928,-0.84,2.87,-0.49,3.03
2.365187883377075,-0.8,2.56,-0.82,2.8
2.367572784423828,-0.73,2.23,-1.04,2.56
2.377589702606201,-0.6,1.84,-1.37,2.37
2.3875088691711426,-0.54,1.38,-1.71,2.26
2.397709846496582,-0.47,1.03,-2.04,2.33
2.4161996841430664,-0.47,0.64,-2.18,2.32
2.417409896850586,-0.32,0.26,-2.1,2.14
2.4275717735290527,-0.19,-0.17,-2.05,2.06
2.4375367164611816,-0.04,-0.65,-1.98,2.08
2.4476327896118164,0.09,-1.15,-1.93,2.24
2.4659018516540527,0.26,-1.52,-1.76,2.34
2.4675397872924805,0.29,-1.65,-1.37,2.16
2.477627754211426,0.31,-1.57,-0.91,1.84
2.4876937866210938,0.26,-1.39,-0.62,1.54
2.4976718425750732,0.22,-1.18,-0.57,1.32
2.515767812728882,0.22,-0.95,-0.57,1.12
2.517537832260132,0.27,-0.72,-0.52,0.92
2.5275959968566895,0.27,-0.48,-0.46,0.71
2.5376577377319336,0.29,-0.25,-0.42,0.56
2.547661781311035,0.3,-0.09,-0.33,0.45
2.5659098625183105,0.3,0.03,-0.11,0.32
2.567473888397217,0.3,0.08,0.12,0.33
2.577608823776245,0.37,0.0,0.24,0.44
2.587584972381592,0.44,-0.16,0.29,0.55
2.59765887260437,0.32,-0.35,0.35,0.58
2.61575984954834,0.25,-0.55,0.3,0.67
2.617443799972534,0.17,-0.72,0.26,0.78
2.627638816833496,0.12,-0.83,0.28,0.88
2.637586832046509,0.09,-0.99,0.35,1.05
2.647610664367676,0.09,-1.13,0.35,1.18
2.6657698154449463,0.09,-1.33,0.38,1.38
2.6675519943237305,0.06,-1.51,0.47,1.58
2.677698850631714,0.0,-1.62,0.52,1.7
2.6874377727508545,-0.07,-1.67,0.52,1.75
2.697643756866455,-0.13,-1.6,0.52,1.68
2.7157907485961914,-0.15,-1.56,0.58,1.67
2.717578887939453,-0.14,-1.52,0.61,1.64
2.7276549339294434,-0.03,-1.5,0.56,1.6
2.737482786178589,-0.15,-1.41,0.53,1.51
2.7476508617401123,-0.09,-1.14,0.68,1.33
2.7662949562072754,0.06,-1.26,0.6,1.39
2.767436981201172,0.16,-1.13,0.55,1.26
2.7776408195495605,0.21,-0.98,0.58,1.15
2.7876338958740234,0.36,-0.97,0.62,1.2
2.7977218627929688,0.43,-0.87,0.51,1.09
2.8163609504699707,0.5,-0.9,0.3,1.07
2.817478656768799,0.49,-0.88,0.18,1.02
2.827667713165283,0.54,-0.96,0.15,1.11
2.8375606536865234,0.46,-0.88,0.23,1.01
2.8477377891540527,0.44,-0.95,0.44,1.13
2.866250991821289,0.56,-0.93,0.55,1.21
2.8674516677856445,0.58,-0.8,0.67,1.19
2.877652883529663,0.59,-0.55,0.78,1.12
2.887579917907715,0.59,-0.2,0.77,0.99
2.8976807594299316,0.61,0.23,0.76,1.0
2.9161577224731445,0.55,0.65,0.64,1.06
2.9174447059631348,0.46,1.04,0.53,1.25
2.92763090133667,0.44,1.44,0.5,1.58
2.937541961669922,0.38,1.76,0.49,1.86
2.9476137161254883,0.31,1.86,0.39,1.92
2.966263771057129,0.44,1.75,0.5,1.87
2.9675958156585693,0.46,1.59,0.84,1.85
2.9776198863983154,0.43,1.4,1.14,1.85
2.99879789352417,0.34,1.37,1.4,1.98
3.000455856323242,0.27,1.54,1.69,2.3
3.013134002685547,0.14,1.95,1.95,2.76
3.017476797103882,-0.02,2.43,1.9,3.08
3.0276169776916504,0.13,3.08,1.31,3.34
3.037437915802002,-0.1,3.45,0.82,3.54
3.047501802444458,-0.1,3.82,0.52,3.85
3.063570976257324,-0.1,3.78,-0.14,3.78
3.0675387382507324,-0.43,3.55,-0.61,3.62
3.0775909423828125,-0.44,2.53,-0.81,2.69
3.0878818035125732,-0.38,1.8,-1.08,2.13
3.097632884979248,-0.52,1.32,-1.61,2.14
3.114198684692383,-0.63,0.79,-1.88,2.13
3.1176187992095947,-0.8,0.01,-1.91,2.07
3.1276438236236572,-0.9,-0.73,-1.9,2.22
3.1375489234924316,-1.02,-1.32,-1.93,2.55
3.1476197242736816,-1.09,-1.85,-1.83,2.82
3.1643309593200684,-0.33,-2.66,-1.21,2.94
3.167595863342285,-0.74,-2.63,-0.95,2.89
3.177724838256836,-1.75,-1.61,-0.87,2.53
3.18764066696167,-1.34,-0.87,-0.33,1.63
3.1976547241210938,-1.44,0.01,-0.03,1.44
3.215120792388916,-1.25,0.53,0.0,1.35
3.2175498008728027,-0.81,0.7,-0.29,1.1
3.2277207374572754,-0.69,0.8,-0.73,1.28
3.2375717163085938,-0.44,1.0,-1.0,1.48
3.24764084815979,-0.21,1.03,-0.83,1.33
3.264863967895508,-0.05,0.88,-0.45,0.98
3.267589807510376,0.17,0.5,-0.24,0.58
3.2777328491210938,0.27,-0.01,-0.09,0.28
3.288033962249756,0.27,-0.4,0.06,0.48
3.2976436614990234,0.15,-0.79,0.18,0.82
3.3150508403778076,0.06,-1.12,0.18,1.13
3.3175277709960938,0.0,-1.34,0.18,1.35
3.3277807235717773,-0.06,-1.56,0.28,1.58
3.3376736640930176,-0.11,-1.78,0.3,1.8
3.3477258682250977,-0.12,-1.93,0.27,1.95
3.3651957511901855,-0.08,-2.08,0.31,2.1
3.367593765258789,-0.03,-2.19,0.35,2.21
3.3776917457580566,0.04,-2.18,0.38,2.21
3.388723850250244,0.12,-2.1,0.41,2.14
3.3976879119873047,0.05,-1.96,0.5,2.02
3.415860652923584,-0.05,-1.78,0.54,1.86
3.417529821395874,-0.1,-1.68,0.57,1.77
3.4277267456054688,-0.16,-1.67,0.66,1.8
3.437727928161621,-0.27,-1.63,0.7,1.79
3.4477477073669434,-0.3,-1.51,0.65,1.67
3.4660439491271973,-0.35,-1.41,0.59,1.56
3.4675989151000977,-0.46,-1.4,0.59,1.58
3.4777417182922363,-0.55,-1.42,0.62,1.64
3.4986038208007812,-0.64,-1.41,0.55,1.64
3.500260829925537,-0.71,-1.44,0.45,1.66
3.5127696990966797,-0.73,-1.55,0.42,1.76
3.517587661743164,-0.78,-1.64,0.48,1.87
3.5276618003845215,-0.82,-1.68,0.68,1.98
3.537639856338501,-0.86,-1.61,0.98,2.07
3.547691822052002,-0.89,-1.35,1.24,2.03
3.5633158683776855,-0.91,-0.95,1.35,1.88
3.56765079498291,-0.92,-0.45,1.37,1.71
3.577725887298584,-0.89,0.17,1.36,1.63
3.58768892288208,-0.91,0.87,1.14,1.69
3.5977096557617188,-0.91,1.63,0.84,2.04
3.6145849227905273,-0.79,2.32,0.61,2.52
3.617661952972412,-0.76,2.67,0.36,2.79
3.6277389526367188,-0.61,2.65,0.19,2.72
3.637854814529419,-0.59,2.43,0.52,2.55
3.6477890014648438,-0.62,2.41,1.14,2.73
3.6652579307556152,-0.62,2.4,1.37,2.83
3.667611837387085,-0.55,2.4,1.44,2.85
3.677759885787964,-0.43,2.5,1.42,2.9
3.6878578662872314,-0.3,2.74,1.23,3.01
3.697758674621582,-0.2,3.13,0.84,3.24
3.71570086479187,-0.17,3.46,0.49,3.49
3.7177648544311523,-0.09,3.62,0.23,3.62
3.727834701538086,-0.09,3.44,-0.34,3.45
3.7376368045806885,-0.07,2.96,-1.21,3.19
3.74777889251709,0.1,2.36,-1.66,2.88
3.7659077644348145,0.01,1.89,-1.9,2.67
3.7677528858184814,0.13,1.44,-2.05,2.5
3.777845859527588,-0.02,0.85,-2.09,2.25
3.787627696990967,0.05,0.13,-1.95,1.95
3.797755718231201,0.29,-0.59,-1.73,1.85
3.8166728019714355,0.42,-1.15,-1.65,2.05
3.8177666664123535,0.59,-1.54,-1.59,2.29
3.8278698921203613,0.69,-1.52,-1.39,2.17
3.837697982788086,0.77,-1.15,-1.14,1.79
3.8477988243103027,0.69,-0.59,-0.96,1.32
3.8665318489074707,0.61,0.07,-0.88,1.07
3.8677728176116943,0.53,0.59,-0.56,0.97
3.877891778945923,0.5,0.86,-0.47,1.1
3.8876209259033203,0.44,0.89,-0.57,1.14
3.897775650024414,0.42,0.93,-0.72,1.24
3.91656494140625,0.46,0.78,-0.69,1.13
3.9176769256591797,0.55,0.47,-0.45,0.85
3.927889823913574,0.54,0.17,-0.23,0.61
3.937729835510254,0.46,-0.16,0.06,0.49
3.947732925415039,0.3,-0.49,0.31,0.65
3.966461658477783,0.25,-0.84,0.39,0.95
3.9677977561950684,0.15,-1.11,0.29,1.15
3.9779129028320312,0.04,-1.38,0.21,1.39
3.9876608848571777,-0.01,-1.58,0.19,1.59
3.9977927207946777,0.11,-1.66,0.13,1.66
4.016729831695557,0.18,-1.84,0.13,1.85
4.017668724060059,0.19,-2.08,0.18,2.09
4.027886867523193,0.39,-2.26,0.16,2.29
4.0377748012542725,0.49,-2.36,0.21,2.41
4.047825813293457,0.41,-2.4,0.32,2.45
4.066640853881836,0.33,-2.27,0.48,2.34
4.067701816558838,0.19,-2.11,0.58,2.19
4.077824831008911,0.11,-2.03,0.72,2.15
4.087893962860107,0.11,-1.98,0.81,2.14
4.097890853881836,0.1,-1.91,0.8,2.07
4.117586851119995,0.13,-1.74,0.76,1.9
4.1180267333984375,0.14,-1.5,0.66,1.64
4.127924919128418,0.24,-1.3,0.49,1.4
4.137800693511963,0.37,-1.22,0.31,1.31
4.1479387283325195,0.5,-1.34,0.15,1.43
4.167024850845337,0.65,-1.55,0.04,1.68
4.167722702026367,0.7,-1.71,-0.07,1.84
4.177907943725586,0.7,-1.63,-0.06,1.77
4.1877968311309814,0.67,-1.35,0.12,1.51
4.1979169845581055,0.68,-1.1,0.47,1.37
4.217641830444336,0.63,-0.8,0.76,1.27
4.21806788444519,0.56,-0.36,1.09,1.27
4.227946758270264,0.49,0.13,1.27,1.36
4.237813949584961,0.42,0.6,1.27,1.46
4.247890949249268,0.31,1.19,1.05,1.61
4.266989707946777,0.18,1.85,0.69,1.98
4.267766952514648,0.1,2.47,0.43,2.5
4.277997970581055,0.03,3.03,0.4,3.05
4.287839889526367,0.0,3.42,0.51,3.45
4.298028945922852,0.05,3.6,0.75,3.67
4.317836761474609,-0.01,3.69,1.07,3.84
4.318272829055786,-0.03,4.03,1.27,4.22
4.3280158042907715,-0.14,4.41,1.25,4.58
4.3378777503967285,-0.33,4.5,0.87,4.59
4.347915887832642,-0.39,4.3,0.24,4.32
4.366914749145508,-0.5,3.91,-0.37,3.95
4.367819786071777,-0.58,3.25,-1.06,3.46
4.377979755401611,-0.53,2.37,-1.77,3.0
4.387833833694458,-0.49,1.66,-2.19,2.79
4.397780895233154,-0.6,1.09,-2.3,2.61
4.417722702026367,-0.79,0.56,-2.45,2.63
4.418166875839233,-0.89,-0.12,-2.49,2.64
4.427931785583496,-0.94,-0.76,-2.44,2.72
4.437747955322266,-0.97,-1.35,-2.19,2.74
4.447852849960327,-1.01,-1.8,-1.82,2.75
4.467229843139648,-1.16,-1.93,-1.61,2.76
4.467728853225708,-1.31,-1.54,-1.12,2.31
4.477867841720581,-1.36,-0.85,-0.58,1.7
4.487675666809082,-1.3,-0.14,-0.53,1.41
4.497849941253662,-1.26,0.47,-0.51,1.43
4.517324924468994,-1.07,1.0,-0.63,1.59
4.517761707305908,-0.83,1.18,-0.79,1.64
4.528011798858643,-0.65,1.03,-0.89,1.5
4.537749767303467,-0.51,0.7,-0.83,1.19
4.548029899597168,-0.4,0.26,-0.54,0.72
4.5673089027404785,-0.33,-0.21,-0.33,0.51
4.567864894866943,-0.31,-0.63,-0.26,0.74
4.577998876571655,-0.2,-1.0,-0.19,1.03
4.587836742401123,-0.07,-1.31,-0.15,1.32
4.598007678985596,0.11,-1.59,-0.08,1.59
4.6173529624938965,0.18,-1.83,0.03,1.83
4.617795944213867,0.15,-1.94,0.07,1.94
4.627972841262817,0.08,-1.96,0.05,1.96
4.637767791748047,0.02,-2.08,0.14,2.08
4.648010730743408,0.0,-2.17,0.17,2.17
4.667336940765381,0.0,-2.26,0.14,2.26
4.667817831039429,0.03,-2.35,0.23,2.36
4.677867889404297,0.06,-2.35,0.32,2.37
4.687819957733154,0.05,-2.29,0.39,2.32
4.6979827880859375,0.0,-2.24,0.57,2.31
4.718113899230957,-0.09,-2.16,0.72,2.27
4.718540668487549,-0.22,-2.02,0.8,2.18
4.727953910827637,-0.34,-1.82,0.8,2.01
4.737810850143433,-0.45,-1.65,0.71,1.85
4.748040676116943,-0.61,-1.52,0.64,1.75
4.767851829528809,-0.64,-1.43,0.57,1.66
4.7682929039001465,-0.73,-1.42,0.53,1.68
4.778057813644409,-0.76,-1.48,0.38,1.7
4.787794828414917,-0.86,-1.47,0.27,1.72
4.798029899597168,-1.07,-1.39,0.37,1.79
4.818083763122559,-1.22,-1.21,0.64,1.83
4.818497657775879,-1.23,-0.94,0.98,1.83
4.828000783920288,-1.16,-0.51,1.31,1.82
4.837825775146484,-1.02,-0.06,1.32,1.66
4.848442792892456,-0.79,0.37,1.16,1.45
4.868441820144653,-0.66,0.93,0.93,1.47
4.868874788284302,-0.59,1.59,0.67,1.82
4.878058910369873,-0.52,2.07,0.51,2.19
4.887828826904297,-0.56,2.38,0.47,2.48
4.898002862930298,-0.57,2.4,0.47,2.51
4.918163776397705,-0.62,2.41,0.67,2.57
4.918595790863037,-0.79,2.53,1.03,2.84
4.928094863891602,-0.82,2.55,1.3,2.97
4.937795877456665,-0.75,2.71,1.37,3.12
4.947999954223633,-0.7,2.92,1.17,3.22
4.967950820922852,-0.6,3.14,0.9,3.32
4.968389987945557,-0.47,3.5,0.59,3.58
4.9779558181762695,-0.37,3.83,0.23,3.85
4.9878997802734375,-0.28,3.92,-0.18,3.93
4.998093843460083,-0.17,3.56,-0.75,3.64
5.018424987792969,-0.04,2.76,-1.39,3.09
5.018858909606934,0.04,2.08,-1.95,2.85
5.028074741363525,-0.01,1.59,-2.29,2.78
5.037883758544922,0.02,1.08,-2.29,2.53
5.047989845275879,-0.04,0.4,-2.33,2.36
5.0680999755859375,-0.05,-0.39,-2.27,2.3
5.068529844284058,0.04,-1.07,-1.99,2.25
5.078017711639404,0.17,-1.6,-1.76,2.38
5.087931871414185,0.41,-1.85,-1.59,2.47
5.0980918407440186,0.54,-1.81,-1.25,2.26
5.117856979370117,0.53,-1.44,-0.79,1.72
5.118294715881348,0.48,-0.77,-0.46,1.01
5.12798285484314,0.38,-0.02,-0.26,0.46
5.13789176940918,0.31,0.53,-0.07,0.61
5.148143768310547,0.29,0.73,-0.05,0.78
5.167933940887451,0.36,0.76,-0.31,0.89
5.168378829956055,0.48,0.69,-0.52,0.98
5.183166980743408,0.46,0.47,-0.51,0.83
5.1878767013549805,0.48,0.07,-0.35,0.59
5.197906970977783,0.44,-0.32,-0.13,0.55
5.215435981750488,0.36,-0.72,-0.03,0.8
5.2178428173065186,0.22,-1.15,-0.07,1.17
5.227989673614502,0.11,-1.41,-0.03,1.41
5.237880706787109,0.05,-1.56,0.07,1.56
5.248129844665527,0.04,-1.84,-0.07,1.84
5.266316890716553,0.07,-2.22,-0.22,2.23
5.267780780792236,0.1,-2.4,-0.1,2.4
5.278002738952637,0.05,-2.47,0.07,2.47
5.287877798080444,-0.01,-2.53,0.19,2.53
5.29800271987915,-0.03,-2.58,0.29,2.59
5.316630840301514,-0.02,-2.65,0.45,2.68
5.317885875701904,-0.08,-2.63,0.52,2.68
5.328020811080933,-0.1,-2.57,0.49,2.61
5.337845802307129,-0.14,-2.38,0.46,2.42
5.348773002624512,-0.17,-2.02,0.43,2.07
5.366898775100708,-0.11,-1.74,0.52,1.81
5.367917776107788,-0.08,-1.6,0.57,1.7
5.378026962280273,0.04,-1.44,0.49,1.52
5.387828826904297,0.11,-1.34,0.49,1.43
5.398047924041748,0.26,-1.3,0.29,1.35
5.4174089431762695,0.44,-1.33,0.1,1.4
5.4180426597595215,0.58,-1.28,0.0,1.4
5.432376861572266,0.64,-1.08,0.05,1.25
5.437840938568115,0.65,-0.83,0.42,1.13
5.447983741760254,0.65,-0.54,0.84,1.19
5.465144872665405,0.58,-0.22,1.07,1.23
5.46790075302124,0.56,0.08,1.13,1.26
5.477925777435303,0.5,0.43,1.1,1.28
5.4982757568359375,0.47,1.0,0.94,1.45
5.499744892120361,0.43,1.61,0.71,1.81
5.513110876083374,0.33,2.16,0.54,2.25
5.517922878265381,0.21,2.55,0.53,2.61
5.527943849563599,0.22,2.87,0.63,2.94
5.537791728973389,0.23,3.05,0.73,3.14
5.547966003417969,0.17,2.98,0.91,3.12
5.563904762268066,0.13,2.96,1.19,3.19
5.567915916442871,0.01,3.27,1.53,3.61
5.578019857406616,-0.06,3.82,1.62,4.14
5.587893962860107,-0.11,4.19,0.92,4.29
5.598144769668579,-0.31,4.09,0.61,4.14
5.615237712860107,-0.31,4.08,-0.06,4.09
5.61792778968811,-0.26,3.68,-0.93,3.8
5.628058910369873,-0.15,2.98,-1.87,3.52
5.6378138065338135,-0.23,2.07,-1.97,2.86
5.648017883300781,-0.14,1.63,-2.47,2.96
5.665974855422974,-0.4,1.13,-2.69,2.94
5.6679277420043945,-0.65,0.39,-2.55,2.66
5.678029775619507,-0.82,-0.39,-2.46,2.62
5.6879119873046875,-0.95,-1.1,-2.29,2.71
5.698085784912109,-0.94,-1.68,-1.89,2.69
5.716976881027222,-0.95,-1.94,-1.37,2.55
5.717791795730591,-1.05,-1.71,-0.8,2.16
5.72810173034668,-1.19,-0.96,-0.3,1.55
5.737890720367432,-1.38,-0.09,-0.06,1.38
5.748149871826172,-1.37,0.65,-0.08,1.51
5.7677388191223145,-1.18,1.11,-0.39,1.66
5.7681097984313965,-0.82,1.32,-0.93,1.81
5.778195858001709,-0.42,1.34,-1.36,1.95
5.7879438400268555,-0.07,1.19,-1.32,1.77
5.798120975494385,0.1,0.84,-0.93,1.25
5.817694664001465,0.2,0.27,-0.56,0.65
5.818073749542236,0.21,-0.43,-0.28,0.55
5.828205823898315,0.3,-1.12,-0.14,1.16
5.837947845458984,0.33,-1.6,-0.06,1.63
5.848142862319946,0.29,-1.94,-0.02,1.96
5.86733865737915,0.27,-2.19,0.0,2.2
5.867889881134033,0.2,-2.3,0.09,2.31
5.878210783004761,0.18,-2.36,0.16,2.37
5.887957811355591,0.16,-2.39,0.17,2.4
5.8981146812438965,0.15,-2.42,0.25,2.43
5.917352676391602,0.16,-2.39,0.42,2.43
5.917881965637207,0.08,-2.32,0.48,2.37
5.928150653839111,0.1,-2.27,0.46,2.31
5.937956809997559,0.06,-2.19,0.44,2.23
5.948123931884766,0.03,-2.07,0.52,2.13
5.967636823654175,0.01,-1.9,0.66,2.01
5.9680047035217285,-0.09,-1.66,0.64,1.78
5.978183746337891,-0.27,-1.54,0.88,1.79
5.988256931304932,-0.42,-1.48,0.88,1.77
5.998162746429443,-0.49,-1.44,0.56,1.62
6.017931938171387,-0.52,-1.45,0.42,1.59
6.018298864364624,-0.55,-1.48,0.49,1.65
6.0280938148498535,-0.57,-1.58,0.45,1.73
6.050811767578125,-0.67,-1.71,0.3,1.86
6.052411794662476,-0.9,-1.71,0.41,1.97
6.064789772033691,-1.04,-1.65,0.81,2.11
6.067859888076782,-1.19,-1.45,1.17,2.21
6.0781097412109375,-1.33,-0.98,1.3,2.1
6.088002681732178,-1.2,-0.43,1.34,1.84
6.098153829574585,-1.02,0.04,1.26,1.62
6.115189790725708,-0.74,0.6,1.1,1.45
6.117990970611572,-0.52,1.38,0.92,1.73
6.128054857254028,-0.36,2.12,0.69,2.25
6.137976884841919,-0.38,2.55,0.51,2.62
6.14811897277832,-0.51,2.67,0.44,2.75
6.166332721710205,-0.7,2.59,0.46,2.72
6.167901992797852,-0.89,2.43,0.72,2.68
6.178184986114502,-1.18,2.51,0.9,2.91
6.187980651855469,-1.17,2.54,1.05,2.98
6.198206901550293,-0.93,2.6,1.07,2.96
6.2170586585998535,-0.7,2.88,0.93,3.1
6.21789288520813,-0.45,3.33,0.65,3.42
6.2280378341674805,-0.26,3.83,0.48,3.86
6.250509738922119,-0.15,4.21,0.03,4.21
6.2521867752075195,-0.1,4.14,-0.7,4.19
6.2651238441467285,0.03,3.71,-1.51,4.0
6.267888784408569,0.24,3.01,-2.28,3.78
6.278109788894653,0.34,2.28,-2.7,3.55
6.2881457805633545,0.31,1.9,-3.01,3.57
6.298144817352295,0.21,1.34,-2.92,3.21
6.315422773361206,0.3,0.47,-2.54,2.6
6.318055868148804,0.45,-0.59,-2.34,2.45
6.328052997589111,0.52,-1.55,-2.19,2.73
6.338192939758301,0.61,-2.11,-1.93,2.92
6.348239898681641,0.56,-2.15,-1.3,2.57
6.366987705230713,0.5,-1.72,-0.59,1.88
6.368002891540527,0.34,-0.96,-0.13,1.02
6.378079891204834,0.29,-0.24,-0.04,0.37
6.388345718383789,0.19,0.19,-0.21,0.34
6.39810585975647,0.05,0.53,-0.42,0.67
6.4180779457092285,-0.01,0.86,-0.61,1.05
6.418450832366943,-0.05,0.94,-0.67,1.15
6.428248882293701,0.0,0.81,-0.59,1.0
6.4384589195251465,0.08,0.54,-0.48,0.72
6.448240756988525,0.21,0.11,-0.37,0.43
6.4685750007629395,0.3,-0.43,-0.26,0.58
6.4689788818359375,0.27,-0.97,-0.24,1.03
6.478242874145508,0.25,-1.46,-0.21,1.49
6.488546848297119,0.1,-1.9,-0.02,1.9
6.498175859451294,0.02,-2.25,0.19,2.25
6.518487930297852,0.03,-2.57,0.29,2.58
6.518850803375244,-0.05,-2.78,0.3,2.79
6.5282227993011475,-0.12,-2.87,0.37,2.89
6.538580894470215,-0.09,-2.92,0.4,2.94
6.548264980316162,-0.07,-2.97,0.38,2.99
6.568670749664307,-0.02,-2.94,0.39,2.96
6.569080829620361,-0.02,-2.7,0.42,2.73
6.578215837478638,-0.13,-2.38,0.41,2.41
6.588580846786499,-0.18,-1.98,0.41,2.02
6.598244667053223,-0.18,-1.61,0.4,1.66
6.619150876998901,-0.2,-1.43,0.37,1.49
6.61946177482605,-0.14,-1.43,0.43,1.49
6.628232955932617,-0.08,-1.48,0.49,1.56
6.638666868209839,0.0,-1.53,0.43,1.58
6.648309707641602,0.14,-1.59,0.25,1.61
6.668636798858643,0.23,-1.66,0.11,1.67
6.669012784957886,0.35,-1.65,0.12,1.69
6.678252696990967,0.4,-1.56,0.29,1.63
6.688699722290039,0.39,-1.35,0.62,1.53
6.698309898376465,0.38,-1.0,1.01,1.47
6.719121932983398,0.25,-0.5,1.23,1.35
6.719473838806152,0.15,0.0,1.27,1.27
6.728277683258057,0.04,0.57,1.19,1.32
6.738677978515625,0.01,1.24,1.02,1.6
6.748320817947388,0.03,1.85,0.94,2.07
6.7686567306518555,-0.07,2.38,0.83,2.52
6.769086837768555,-0.03,2.72,0.75,2.82
6.778226852416992,0.02,2.83,0.79,2.93
6.788762807846069,0.09,2.77,0.89,2.91
6.798244953155518,0.17,2.69,1.06,2.89
6.818449974060059,0.2,2.71,1.34,3.02
6.818819999694824,0.19,2.89,1.76,3.38
6.828267812728882,0.11,3.21,2.05,3.81
6.8387978076934814,-0.04,3.66,1.76,4.06
6.848252773284912,-0.26,4.01,1.13,4.17
6.868621826171875,-0.19,4.02,0.3,4.03
6.868997812271118,-0.07,3.76,-0.63,3.81
6.878288745880127,-0.11,2.98,-0.78,3.08
6.901455879211426,0.1,1.94,-1.2,2.28
6.903092861175537,0.13,1.03,-1.96,2.21
6.916078805923462,0.13,0.49,-2.49,2.54
6.918030738830566,-0.03,0.16,-2.64,2.64
6.928199768066406,-0.3,-0.19,-2.45,2.47
6.938756942749023,-0.55,-0.56,-2.22,2.35
6.948072910308838,-0.67,-0.98,-2.1,2.41
6.966006755828857,-0.83,-1.3,-2.0,2.52
6.9679648876190186,-1.07,-1.32,-1.74,2.43
6.978144884109497,-1.31,-0.99,-1.37,2.13
6.988748788833618,-1.48,-0.44,-0.98,1.82
6.998255729675293,-1.64,0.21,-0.81,1.84
7.0173468589782715,-1.77,0.93,-0.74,2.13
7.018069744110107,-1.6,1.53,-0.75,2.33
7.028228759765625,-1.27,1.66,-0.85,2.25
7.038684844970703,-0.87,1.37,-0.95,1.88
7.0483479499816895,-0.56,1.06,-0.84,1.46
7.068314790725708,-0.42,0.69,-0.52,0.96
7.068683862686157,-0.23,0.29,-0.18,0.41
7.078227996826172,-0.06,-0.08,0.01,0.1
7.08886194229126,0.14,-0.53,0.05,0.55
7.098355770111084,0.17,-0.91,0.03,0.92
7.118522882461548,0.23,-1.21,0.01,1.23
7.118891716003418,0.24,-1.46,-0.08,1.48
7.128222942352295,0.31,-1.75,-0.02,1.77
7.138237953186035,0.35,-2.03,-0.11,2.06
7.152736663818359,0.3,-2.31,-0.15,2.33
7.158346652984619,0.28,-2.65,0.01,2.66
7.1682398319244385,0.29,-2.92,0.14,2.93
7.178318977355957,0.27,-3.09,0.26,3.11
7.1883018016815186,0.25,-3.18,0.35,3.2
7.202518939971924,0.27,-3.16,0.42,3.19
7.208110809326172,0.21,-3.0,0.48,3.04
7.2181878089904785,0.07,-2.79,0.54,2.84
7.228432655334473,-0.09,-2.61,0.59,2.67
7.238279819488525,-0.21,-2.42,0.61,2.5
7.252975940704346,-0.34,-2.27,0.55,2.36
7.2582337856292725,-0.45,-2.13,0.37,2.2
7.268288850784302,-0.58,-1.97,0.14,2.05
7.278348922729492,-0.67,-1.84,-0.04,1.95
7.288277864456177,-0.75,-1.79,-0.04,1.94
7.303175926208496,-0.82,-1.77,0.16,1.95
7.308197975158691,-0.94,-1.62,0.49,1.93
7.31831169128418,-1.06,-1.3,0.89,1.89
7.328324794769287,-1.13,-0.84,1.16,1.82
7.338332653045654,-1.17,-0.35,1.31,1.79
7.353736877441406,-1.1,0.27,1.25,1.68
7.358167886734009,-1.0,0.98,1.01,1.72
7.36833381652832,-0.82,1.7,0.71,2.01
7.378379821777344,-0.69,2.39,0.47,2.53
7.388361930847168,-0.54,2.86,0.33,2.92
7.403703689575195,-0.5,3.08,0.32,3.13
7.408161878585815,-0.54,3.19,0.63,3.29
7.41832971572876,-0.65,3.24,0.87,3.41
7.428444862365723,-0.67,3.2,1.11,3.45
7.438373804092407,-0.65,3.38,1.32,3.68
7.453943729400635,-0.57,3.74,1.24,3.98
7.4582037925720215,-0.43,4.09,0.96,4.22
7.468292713165283,-0.25,4.38,0.51,4.41
7.478189945220947,-0.09,4.49,0.04,4.49
7.488370895385742,-0.02,4.22,-0.66,4.27
7.503854751586914,0.17,3.36,-1.6,3.72
7.508382797241211,0.14,2.48,-2.2,3.31
7.518365859985352,0.23,1.8,-2.4,3.0
7.528347969055176,0.3,1.03,-2.56,2.77
7.53826379776001,0.32,0.19,-2.62,2.64
7.5534467697143555,0.44,-0.68,-2.43,2.56
7.558352947235107,0.49,-1.56,-2.06,2.63
7.568181991577148,0.51,-2.25,-1.66,2.84
7.578239917755127,0.59,-2.47,-1.22,2.81
7.58817982673645,0.72,-2.14,-0.84,2.4
7.603567838668823,0.64,-1.31,-0.5,1.54
7.608087778091431,0.64,-0.35,-0.37,0.81
7.618169784545898,0.62,0.52,-0.34,0.87
7.628255844116211,0.61,1.2,-0.48,1.42
7.638183832168579,0.56,1.64,-0.8,1.9
7.653308868408203,0.58,1.65,-1.17,2.1
7.658256769180298,0.53,1.35,-1.29,1.94
7.6682188510894775,0.53,0.94,-1.05,1.5
7.678333759307861,0.46,0.5,-0.65,0.94
7.68824577331543,0.35,0.01,-0.33,0.48
7.703767776489258,0.19,-0.56,-0.08,0.59
7.708382844924927,0.08,-1.15,0.1,1.15
7.718305826187134,-0.08,-1.68,0.12,1.68
7.728243827819824,-0.16,-2.14,0.08,2.14
7.738371849060059,-0.18,-2.41,-0.04,2.41
7.754982948303223,-0.14,-2.58,-0.1,2.58
7.758327960968018,-0.05,-2.75,-0.03,2.75
7.7683539390563965,0.07,-2.83,0.05,2.83
7.778361797332764,0.09,-2.86,0.09,2.86
7.788309812545776,0.03,-2.83,0.2,2.83
7.803830862045288,-0.14,-2.67,0.36,2.69
7.808237791061401,-0.28,-2.49,0.53,2.56
7.818322658538818,-0.29,-2.34,0.67,2.45
7.828408718109131,-0.25,-2.1,0.65,2.21
7.838491916656494,-0.15,-1.74,0.58,1.84
7.8547539710998535,0.04,-1.42,0.49,1.5
7.8585357666015625,0.14,-1.19,0.23,1.22
7.86829686164856,0.3,-1.07,-0.01,1.11
7.878316879272461,0.48,-1.16,-0.08,1.25
7.888553857803345,0.59,-1.28,-0.09,1.41
7.905027866363525,0.63,-1.39,-0.07,1.52
7.908401966094971,0.69,-1.53,0.04,1.67
7.918392658233643,0.71,-1.7,0.22,1.85
7.928481817245483,0.74,-1.71,0.51,1.93
7.938386917114258,0.71,-1.6,0.85,1.94
7.953913688659668,0.66,-1.22,1.12,1.78
7.9583518505096436,0.63,-0.56,1.34,1.58
7.968277931213379,0.57,0.16,1.52,1.63
7.986219882965088,0.43,1.01,1.48,1.84
7.988248825073242,0.28,1.9,1.27,2.3
8.00135588645935,0.12,2.7,1.08,2.91
8.008428812026978,0.0,3.39,0.82,3.48
8.018358707427979,-0.05,3.82,0.59,3.86
8.033073902130127,0.02,3.82,0.67,3.87
8.03835391998291,0.04,3.83,0.96,3.94
8.049421787261963,0.02,3.92,1.17,4.09
8.058185815811157,0.19,3.91,1.35,4.14
8.068344831466675,0.27,3.82,1.26,4.03
8.07832384109497,0.25,3.84,1.05,3.98
8.088336944580078,0.15,3.99,0.82,4.07
8.100270748138428,0.05,3.86,0.35,3.87
8.108348846435547,0.03,3.44,-0.25,3.44
8.118396759033203,0.03,2.81,-0.97,2.97
8.128418922424316,-0.01,2.05,-1.69,2.65
8.138401985168457,-0.09,1.48,-2.29,2.72
8.151212692260742,-0.23,0.86,-2.68,2.82
8.158301830291748,-0.3,0.1,-2.78,2.79
8.168324947357178,-0.52,-0.62,-2.63,2.75
8.178433895111084,-0.66,-1.43,-2.45,2.91
8.188453674316406,-0.75,-2.2,-2.31,3.27
8.202587842941284,-0.94,-2.66,-1.97,3.44
8.20830488204956,-1.14,-2.5,-1.35,3.06
8.218393802642822,-1.35,-1.8,-0.71,2.35
8.228478908538818,-1.48,-0.86,-0.22,1.72
8.238433837890625,-1.48,0.03,0.11,1.48
8.253483772277832,-1.49,0.88,0.06,1.73
8.258420944213867,-1.19,1.53,-0.44,1.98
8.26849889755249,-0.87,1.8,-1.04,2.25
8.27848196029663,-0.52,1.76,-1.47,2.35
8.288495779037476,-0.24,1.46,-1.42,2.05
8.303912878036499,-0.15,0.84,-0.96,1.28
8.318429946899414,-0.12,0.22,-0.47,0.53
8.318777799606323,-0.09,-0.41,-0.15,0.44
8.328522682189941,-0.09,-0.95,0.03,0.95
8.338427782058716,-0.12,-1.4,0.12,1.41
8.351391792297363,-0.09,-1.7,0.17,1.71
8.358375787734985,-0.12,-1.83,0.16,1.84
8.368505954742432,-0.11,-1.92,0.17,1.93
8.378464698791504,-0.08,-2.05,0.1,2.05
8.388414859771729,-0.03,-2.24,0.09,2.24
8.402255773544312,0.01,-2.38,0.16,2.38
8.40825366973877,0.04,-2.5,0.23,2.51
8.418446779251099,0.01,-2.57,0.32,2.58
8.428445816040039,0.0,-2.55,0.42,2.58
8.438442707061768,-0.01,-2.43,0.53,2.48
8.452410697937012,-0.11,-2.28,0.57,2.35
8.458353996276855,-0.21,-2.13,0.69,2.24
8.468374729156494,-0.23,-1.95,0.68,2.07
8.478434801101685,-0.38,-1.8,0.61,1.93
8.488523960113525,-0.4,-1.58,0.63,1.74
8.502742767333984,-0.36,-1.52,0.65,1.69
8.508291721343994,-0.39,-1.61,0.32,1.68
8.518372774124146,-0.4,-1.76,0.03,1.8
8.528373718261719,-0.44,-1.78,0.03,1.83
8.538476943969727,-0.58,-1.69,0.15,1.79
8.553184986114502,-0.68,-1.65,0.42,1.83
8.558302879333496,-0.76,-1.54,0.74,1.86
8.568420886993408,-0.78,-1.27,1.0,1.79
8.578528881072998,-0.83,-0.85,1.13,1.63
8.588511943817139,-0.75,-0.33,1.19,1.44
8.603636741638184,-0.67,0.26,1.14,1.34
8.60838270187378,-0.65,1.0,0.98,1.54
8.618443965911865,-0.53,1.68,0.84,1.95
8.62857985496521,-0.44,2.18,0.66,2.31
8.638481855392456,-0.45,2.52,0.43,2.59
8.65385389328003,-0.43,2.51,0.37,2.57
8.658495903015137,-0.44,2.26,0.63,2.38
8.668524742126465,-0.51,2.3,1.08,2.59
8.678570747375488,-0.58,2.47,1.29,2.84
8.688575744628906,-0.51,2.65,1.31,2.99
8.70434284210205,-0.48,3.07,1.11,3.29
8.708577871322632,-0.39,3.61,0.92,3.74
8.71852970123291,-0.24,4.17,0.74,4.24
8.728541851043701,-0.07,4.43,0.33,4.44
8.738525867462158,0.07,4.26,-0.43,4.28
8.754164695739746,0.13,3.75,-1.28,3.96
8.758588790893555,0.16,2.96,-1.86,3.49
8.768541812896729,0.2,2.21,-2.23,3.14
8.778562784194946,0.16,1.69,-2.45,2.98
8.788542747497559,0.07,1.13,-2.53,2.77
8.804323673248291,0.13,0.25,-2.35,2.36
8.80837869644165,0.22,-0.68,-2.03,2.15
8.818615913391113,0.3,-1.37,-1.85,2.32
8.828661918640137,0.38,-1.73,-1.56,2.36
8.838546752929688,0.54,-1.76,-1.08,2.13
8.854442834854126,0.78,-1.29,-0.76,1.68
8.858534812927246,0.81,-0.54,-0.58,1.13
8.86857271194458,0.61,0.26,-0.35,0.74
8.878557682037354,0.61,0.74,-0.24,0.98
8.888701915740967,0.56,0.79,-0.45,1.06
8.904778957366943,0.43,0.72,-0.85,1.19
8.908449649810791,0.33,0.51,-0.96,1.13
8.918584823608398,0.26,0.1,-0.74,0.79
8.928610801696777,0.22,-0.32,-0.49,0.62
8.93860387802124,0.12,-0.65,-0.36,0.75
8.954486846923828,-0.03,-0.95,-0.27,0.98
8.958425998687744,-0.22,-1.22,-0.08,1.24
8.968591690063477,-0.26,-1.5,0.01,1.52
8.978594779968262,-0.29,-1.84,0.1,1.86
8.988680839538574,-0.33,-2.05,0.07,2.07
9.004568815231323,-0.25,-2.17,0.1,2.18
9.008594989776611,-0.17,-2.23,0.18,2.24
9.018566846847534,0.01,-2.19,0.18,2.19
9.02858281135559,0.07,-2.14,0.21,2.15
9.038527965545654,0.03,-2.08,0.29,2.1
9.05418586730957,-0.04,-2.0,0.34,2.02
9.058429718017578,-0.11,-2.01,0.46,2.06
9.068580865859985,-0.14,-2.01,0.55,2.08
9.078666687011719,-0.17,-1.91,0.57,2.0
9.088590860366821,-0.12,-1.74,0.55,1.82
9.10455584526062,-0.09,-1.61,0.56,1.7
9.108510971069336,-0.03,-1.49,0.59,1.6
9.118624687194824,0.09,-1.38,0.63,1.51
9.128551006317139,0.16,-1.3,0.58,1.43
9.138686656951904,0.27,-1.23,0.51,1.35
9.155094861984253,0.42,-1.18,0.38,1.3
9.158469676971436,0.48,-1.24,0.28,1.35
9.168824672698975,0.58,-1.32,0.17,1.45
9.187124729156494,0.62,-1.29,0.16,1.44
9.18838882446289,0.57,-1.14,0.32,1.31
9.201148986816406,0.5,-0.86,0.61,1.16
9.20836591720581,0.37,-0.47,0.9,1.08
9.218555927276611,0.21,-0.11,1.07,1.09
9.22858190536499,-0.02,0.34,1.08,1.13
9.238526821136475,-0.15,0.83,1.01,1.31
9.251340866088867,-0.17,1.32,0.86,1.58
9.25841474533081,-0.08,1.87,0.67,1.98
9.268601894378662,0.03,2.33,0.5,2.38
9.285007953643799,0.22,2.66,0.53,2.72
9.288533687591553,0.32,2.92,0.74,3.02
9.300565719604492,0.36,3.12,1.02,3.3
9.308372974395752,0.39,3.29,1.27,3.54
9.31856083869934,0.3,3.51,1.46,3.81
9.328581809997559,0.23,3.94,1.65,4.27
9.338519811630249,0.08,4.39,1.39,4.6
9.351038932800293,-0.14,4.57,0.83,4.64
9.358486652374268,-0.22,4.53,0.2,4.53
9.368552684783936,-0.25,4.04,-0.69,4.1
9.378596782684326,-0.18,2.98,-1.84,3.5
9.388571739196777,-0.18,1.89,-2.52,3.15
9.402422904968262,-0.17,1.25,-2.66,2.94
9.40846872329712,-0.17,0.62,-2.73,2.8
9.418585777282715,-0.34,-0.06,-2.67,2.69
9.428605794906616,-0.41,-0.73,-2.56,2.69
9.438646793365479,-0.48,-1.43,-2.36,2.8
9.453175783157349,-0.8,-1.99,-2.29,3.13
9.458603858947754,-1.03,-2.2,-1.87,3.06
9.468649864196777,-1.27,-2.09,-1.14,2.69
9.478663921356201,-1.46,-1.62,-0.55,2.24
9.488651752471924,-1.59,-0.91,-0.14,1.83
9.503809928894043,-1.6,-0.1,0.01,1.6
9.508566856384277,-1.44,0.64,-0.07,1.57
9.518677711486816,-1.14,1.11,-0.32,1.62
9.528727769851685,-0.76,1.37,-0.78,1.75
9.538661003112793,-0.42,1.46,-1.19,1.92
9.55423879623413,-0.12,1.34,-1.2,1.8
9.558510780334473,0.0,0.96,-0.83,1.26
9.568692684173584,0.21,0.27,-0.46,0.57
9.57870078086853,0.33,-0.44,-0.3,0.62
9.58864974975586,0.28,-0.97,-0.12,1.01
9.604138851165771,0.25,-1.38,0.08,1.4
9.619460821151733,0.17,-1.73,0.2,1.74
9.619781970977783,0.09,-1.94,0.27,1.96
9.628711700439453,0.03,-2.05,0.34,2.07
9.63855266571045,0.03,-2.13,0.3,2.15
9.651816844940186,0.06,-2.22,0.23,2.23
9.658585786819458,0.06,-2.28,0.28,2.29
9.668640851974487,0.1,-2.29,0.4,2.32
9.678632736206055,0.16,-2.39,0.53,2.45
9.688543796539307,0.16,-2.51,0.53,2.57
9.701929807662964,0.14,-2.54,0.59,2.61
9.708570957183838,0.11,-2.47,0.73,2.57
9.718689918518066,0.01,-2.37,0.79,2.49
9.72875165939331,-0.03,-2.28,0.78,2.4
9.738673686981201,-0.11,-2.19,0.74,2.31
9.752834796905518,-0.27,-2.12,0.61,2.22
9.76853084564209,-0.31,-2.02,0.49,2.1
9.7688570022583,-0.39,-1.93,0.37,2.0
9.778573989868164,-0.47,-1.83,0.31,1.91
9.78866195678711,-0.57,-1.67,0.46,1.82
9.800633907318115,-0.62,-1.38,0.75,1.68
9.808506965637207,-0.68,-0.93,1.01,1.53
9.818629741668701,-0.73,-0.47,1.22,1.49
9.828650951385498,-0.73,0.05,1.24,1.43
9.838602781295776,-0.71,0.65,1.11,1.46
9.85096287727356,-0.62,1.3,0.86,1.67
9.85846996307373,-0.51,1.91,0.58,2.06
9.868635654449463,-0.47,2.3,0.39,2.37
9.878660678863525,-0.5,2.56,0.28,2.62
9.888649940490723,-0.57,2.73,0.44,2.82
9.901758670806885,-0.62,2.97,0.75,3.12
9.908538818359375,-0.64,3.03,1.01,3.25
9.918640851974487,-0.65,2.99,1.02,3.22
9.928748846054077,-0.61,2.99,0.96,3.19
9.938675880432129,-0.56,3.28,0.83,3.42
9.952663898468018,-0.36,3.75,0.6,3.81
9.958565711975098,-0.4,4.22,0.18,4.24
9.968692779541016,-0.2,4.25,-0.27,4.26
9.978799819946289,-0.02,3.91,-1.09,4.05
9.98868465423584,0.05,3.27,-1.95,3.8
10.00336480140686,0.16,2.51,-2.49,3.53
10.008567810058594,0.11,1.9,-2.74,3.33
10.018738746643066,0.12,1.34,-2.87,3.16
10.028756856918335,0.25,0.59,-2.76,2.83
10.038638830184937,0.3,-0.36,-2.6,2.64
10.053857803344727,0.5,-1.31,-2.44,2.81
10.058623790740967,0.55,-2.11,-2.15,3.06
10.068727970123291,0.56,-2.37,-1.56,2.89
10.078731775283813,0.61,-2.01,-0.84,2.26
10.088679790496826,0.53,-1.32,-0.43,1.48
10.10417890548706,0.55,-0.42,-0.35,0.77
10.108442783355713,0.48,0.39,-0.35,0.71
10.118810653686523,0.36,0.85,-0.34,0.98
10.128774881362915,0.22,1.13,-0.55,1.27
10.1387939453125,0.09,1.22,-0.71,1.41
10.154387950897217,0.15,0.99,-0.55,1.14
10.158622741699219,0.24,0.58,-0.48,0.79
10.168742656707764,0.28,0.16,-0.54,0.62
10.178772926330566,0.22,-0.22,-0.27,0.41
10.1887788772583,0.23,-0.69,-0.16,0.74
10.204410791397095,0.17,-1.33,-0.43,1.4
10.208595752716064,0.0,-1.73,-0.47,1.79
10.218758821487427,-0.04,-1.97,-0.17,1.97
10.228801727294922,-0.15,-2.16,0.08,2.16
10.238762855529785,-0.13,-2.31,0.22,2.32
10.254458904266357,-0.12,-2.46,0.33,2.48
10.258634805679321,-0.07,-2.55,0.3,2.56
10.268844842910767,-0.03,-2.51,0.27,2.52
10.278800964355469,-0.11,-2.47,0.29,2.48
10.288793802261353,-0.12,-2.48,0.3,2.5
10.304442882537842,-0.16,-2.39,0.26,2.4
10.308612823486328,-0.17,-2.26,0.25,2.28
10.3187837600708,-0.16,-2.14,0.34,2.17
10.328859806060791,-0.13,-2.0,0.39,2.04
10.338805675506592,0.04,-1.77,0.35,1.8
10.354684829711914,0.11,-1.56,0.39,1.61
10.358656883239746,0.22,-1.48,0.4,1.54
10.368781805038452,0.37,-1.45,0.35,1.53
10.378775835037231,0.5,-1.44,0.25,1.54
10.38878870010376,0.59,-1.35,0.2,1.48
10.404531955718994,0.62,-1.2,0.16,1.36
10.408572673797607,0.62,-1.01,0.24,1.2
10.418745994567871,0.59,-0.8,0.47,1.09
10.428828716278076,0.54,-0.48,0.76,1.04
10.438845872879028,0.5,-0.15,0.92,1.05
10.454830884933472,0.43,0.21,1.01,1.11
10.458684921264648,0.4,0.7,1.01,1.29
10.468867778778076,0.34,1.22,0.87,1.53
10.47885274887085,0.31,1.75,0.7,1.91
10.488898754119873,0.37,2.14,0.58,2.24
10.504579782485962,0.28,2.44,0.35,2.48
10.508684873580933,0.37,2.65,0.19,2.68
10.518849849700928,0.41,2.67,0.36,2.72
10.528924942016602,0.42,2.4,0.66,2.52
10.53882884979248,0.58,2.06,0.95,2.34
10.555190801620483,0.64,2.1,1.19,2.49
10.558727741241455,0.53,2.52,1.38,2.92
10.568886756896973,0.3,3.06,1.47,3.4
10.57889175415039,0.14,3.71,1.29,3.93
10.588898658752441,-0.05,4.18,0.76,4.24
10.604994773864746,-0.12,4.25,-0.14,4.25
10.608728885650635,-0.07,3.95,-1.18,4.12
10.618923664093018,-0.02,3.21,-2.04,3.8
10.628846883773804,-0.03,2.25,-2.53,3.38
10.638927936553955,-0.1,1.56,-2.56,2.99
10.655480861663818,-0.23,0.89,-2.46,2.62
10.658589839935303,-0.42,0.08,-2.51,2.54
10.668805837631226,-0.59,-0.88,-2.43,2.65
10.678626775741577,-0.72,-1.64,-2.36,2.96
10.688892841339111,-0.93,-2.1,-2.25,3.21
10.70557689666748,-1.15,-2.26,-1.85,3.13
10.708574771881104,-1.33,-2.03,-1.18,2.69
10.718817710876465,-1.54,-1.41,-0.52,2.15
10.728660821914673,-1.57,-0.51,-0.19,1.66
10.738964796066284,-1.36,0.39,-0.15,1.42
10.755660772323608,-1.21,1.08,-0.26,1.64
10.77091383934021,-0.78,1.46,-0.52,1.73
10.771220684051514,-0.54,1.57,-0.79,1.83
10.778710842132568,-0.26,1.51,-0.82,1.73
10.78883695602417,0.07,1.23,-0.56,1.35
10.803031921386719,0.31,0.74,-0.4,0.89
10.808883666992188,0.48,0.13,-0.35,0.6
10.81888198852539,0.56,-0.5,-0.28,0.8
10.828560829162598,0.55,-1.09,-0.21,1.23
10.838825702667236,0.43,-1.47,-0.11,1.53
10.853039741516113,0.33,-1.74,-0.05,1.77
10.858796834945679,0.28,-2.01,0.02,2.02
10.868839740753174,0.13,-2.29,0.08,2.29
10.878891944885254,0.0,-2.46,0.13,2.46
10.888887882232666,0.06,-2.53,0.15,2.53
10.904447793960571,0.14,-2.63,0.25,2.64
10.908910751342773,0.19,-2.68,0.28,2.7
10.91887378692627,0.27,-2.57,0.33,2.6
10.92884087562561,0.31,-2.41,0.41,2.46
10.938914775848389,0.27,-2.3,0.53,2.37
10.954984664916992,0.18,-2.15,0.49,2.21
10.958902835845947,0.04,-2.06,0.35,2.08
10.968926906585693,-0.07,-1.83,0.34,1.86
10.978912830352783,-0.17,-1.59,0.43,1.65
10.988887786865234,-0.24,-1.54,0.35,1.59
11.005193710327148,-0.35,-1.56,0.26,1.61
11.008985996246338,-0.5,-1.47,0.44,1.61
11.018960952758789,-0.55,-1.46,0.56,1.65
11.02888298034668,-0.66,-1.51,0.63,1.76
11.039013862609863,-0.8,-1.47,0.73,1.82
11.055941820144653,-0.88,-1.2,0.9,1.73
11.058919906616211,-0.96,-0.84,1.12,1.69
11.068902969360352,-0.92,-0.46,1.13,1.52
11.07899785041809,-0.85,0.01,1.0,1.31
11.088910818099976,-0.76,0.51,0.89,1.27
11.105985879898071,-0.64,1.02,0.79,1.44
11.109169006347656,-0.54,1.5,0.72,1.74
11.118927955627441,-0.4,1.8,0.74,1.98
11.128756999969482,-0.46,1.82,0.73,2.01
11.138965845108032,-0.49,1.69,0.76,1.91
11.156669855117798,-0.55,1.47,0.86,1.78
11.159226894378662,-0.57,1.53,0.99,1.9
11.16890287399292,-0.62,1.86,1.21,2.3
11.178815841674805,-0.65,2.18,1.24,2.59
11.189004898071289,-0.55,2.46,1.13,2.76
11.206522941589355,-0.49,2.72,0.9,2.9
11.209312915802002,-0.43,3.16,0.57,3.23
11.21897578239441,-0.35,3.59,0.35,3.62
11.228771686553955,-0.28,3.95,0.12,3.96
11.238942861557007,-0.2,4.02,-0.4,4.04
11.256532669067383,-0.09,3.65,-1.12,3.81
11.259355783462524,0.1,2.98,-1.96,3.56
11.268924713134766,0.17,2.23,-2.33,3.22
11.278940677642822,0.34,1.51,-2.41,2.86
11.289015769958496,0.29,0.94,-2.38,2.57
11.30668592453003,0.33,0.24,-2.27,2.3
11.309379816055298,0.32,-0.51,-2.1,2.18
11.31897497177124,0.27,-1.08,-1.79,2.1
11.328853845596313,0.31,-1.43,-1.4,2.02
11.339057922363281,0.39,-1.56,-0.93,1.85
11.357065677642822,0.54,-1.39,-0.6,1.6
11.35946798324585,0.61,-0.91,-0.42,1.17
11.368999004364014,0.59,-0.29,-0.27,0.71
11.378804683685303,0.52,0.33,-0.19,0.64
11.388988971710205,0.31,0.79,-0.39,0.93
11.40699577331543,0.25,0.82,-0.66,1.08
11.408784866333008,0.26,0.6,-0.74,0.98
11.418968677520752,0.26,0.34,-0.83,0.93
11.429001808166504,0.21,0.08,-0.62,0.65
11.43907380104065,0.16,-0.13,-0.26,0.33
11.457151889801025,0.0,-0.38,-0.18,0.42
11.471807956695557,-0.08,-0.82,-0.13,0.83
11.47216796875,-0.13,-1.25,-0.07,1.25
11.478947877883911,-0.36,-1.61,0.02,1.64
11.48886489868164,-0.34,-1.83,0.04,1.86
11.503881931304932,-0.26,-2.03,0.1,2.04
11.50938892364502,-0.25,-2.16,0.1,2.17
11.518934726715088,-0.11,-2.25,0.16,2.25
11.528867721557617,-0.08,-2.29,0.18,2.29
11.53895878791809,-0.07,-2.34,0.23,2.35
11.554389953613281,-0.05,-2.33,0.32,2.35
11.558872699737549,-0.08,-2.25,0.44,2.29
11.568990707397461,-0.12,-2.16,0.54,2.22
11.578831672668457,-0.1,-2.03,0.62,2.12
11.588927745819092,-0.05,-1.87,0.72,2.0
11.605321884155273,-0.06,-1.66,0.79,1.83
11.608876705169678,0.05,-1.57,0.77,1.74
11.618905782699585,0.11,-1.59,0.66,1.72
11.628980875015259,0.31,-1.69,0.38,1.75
11.6389799118042,0.35,-1.77,0.15,1.81
11.655786991119385,0.47,-1.86,0.03,1.91
11.658862829208374,0.51,-1.94,-0.12,2.0
11.669071674346924,0.54,-1.89,-0.1,1.96
11.67890977859497,0.52,-1.68,0.14,1.76
11.689022779464722,0.43,-1.27,0.56,1.45
11.706395864486694,0.32,-0.72,0.9,1.19
11.708978652954102,0.26,-0.22,1.07,1.12
11.718992710113525,0.19,0.4,1.1,1.18
11.728850841522217,0.09,1.21,1.05,1.6
11.739034652709961,0.08,1.85,1.01,2.1
11.757202863693237,0.08,2.39,0.71,2.49
11.758981704711914,0.17,2.7,0.42,2.73
11.769027709960938,0.3,2.8,0.32,2.83
11.7788987159729,0.32,2.61,0.53,2.68
11.789097785949707,0.3,2.35,0.78,2.49
11.807645797729492,0.31,2.4,1.11,2.66
11.80891466140747,0.31,2.6,1.56,3.04
11.819051742553711,0.16,2.98,1.78,3.47
11.829172849655151,-0.02,3.51,1.73,3.91
11.839091777801514,-0.01,4.02,1.46,4.27
11.858151912689209,-0.05,4.25,0.93,4.35
11.858994007110596,-0.01,4.13,0.08,4.13
11.869065761566162,0.1,3.71,-0.84,3.8
11.878858804702759,0.11,2.87,-1.71,3.34
11.889062881469727,0.07,1.91,-2.5,3.14
11.907510757446289,-0.12,1.27,-2.75,3.03
11.908882856369019,-0.31,0.9,-2.57,2.74
11.919090747833252,-0.53,0.27,-2.31,2.38
11.928999900817871,-0.74,-0.55,-2.4,2.57
11.9391508102417,-0.74,-1.26,-2.7,3.07
11.957749843597412,-0.98,-1.82,-2.63,3.34
11.95899772644043,-1.2,-2.04,-2.02,3.11
11.969085693359375,-1.39,-1.82,-1.2,2.58
11.978936672210693,-1.68,-1.21,-0.54,2.13
11.989107847213745,-1.75,-0.39,-0.16,1.8
12.008279800415039,-1.61,0.43,-0.01,1.66
12.008978843688965,-1.39,1.09,-0.1,1.76
12.019104957580566,-1.05,1.43,-0.38,1.81
12.028954982757568,-0.66,1.42,-0.73,1.72
12.039113998413086,-0.37,1.22,-1.03,1.63
12.057607650756836,-0.09,0.93,-0.98,1.35
12.058872699737549,-0.03,0.45,-0.65,0.79
12.069065809249878,0.06,-0.13,-0.37,0.39
12.078940868377686,0.17,-0.84,-0.3,0.9
12.089156866073608,0.02,-1.45,-0.2,1.46
12.107606887817383,-0.03,-1.82,-0.04,1.82
12.108983993530273,-0.1,-2.14,0.23,2.15
12.119090795516968,-0.22,-2.39,0.28,2.41
12.12893295288086,-0.25,-2.52,0.15,2.53
12.13911485671997,-0.23,-2.6,0.09,2.61
12.157214879989624,-0.21,-2.6,0.11,2.61
12.158970832824707,-0.31,-2.55,0.15,2.57
12.169108867645264,-0.33,-2.49,0.2,2.51
12.178931713104248,-0.35,-2.48,0.33,2.52
12.189183712005615,-0.31,-2.42,0.5,2.49
12.207377910614014,-0.38,-2.28,0.58,2.38
12.208990812301636,-0.36,-2.13,0.73,2.28
12.219188690185547,-0.38,-1.98,0.84,2.18
12.228964805603027,-0.4,-1.82,0.78,2.02
12.239213943481445,-0.42,-1.69,0.66,1.86
12.257088661193848,-0.5,-1.58,0.54,1.74
12.259130954742432,-0.54,-1.48,0.45,1.63
12.269173860549927,-0.58,-1.49,0.35,1.63
12.279146671295166,-0.62,-1.55,0.27,1.69
12.289034843444824,-0.66,-1.56,0.31,1.72
12.307168006896973,-0.76,-1.41,0.55,1.69
12.308822870254517,-0.8,-1.06,0.84,1.57
12.3191077709198,-0.77,-0.66,1.03,1.44
12.340131759643555,-0.75,-0.28,1.01,1.28
12.340489864349365,-0.72,0.24,0.99,1.24
12.354663848876953,-0.68,0.84,0.87,1.38
12.358982801437378,-0.64,1.38,0.75,1.69
12.369045734405518,-0.62,1.83,0.64,2.03
12.379010677337646,-0.56,2.06,0.54,2.2
12.389014720916748,-0.45,1.97,0.46,2.07
12.40490198135376,-0.44,1.89,0.54,2.01
12.408966779708862,-0.41,1.99,0.85,2.2
12.419081687927246,-0.54,2.03,1.19,2.41
12.428851842880249,-0.52,2.29,1.34,2.7
12.439108848571777,-0.46,2.76,1.24,3.06
12.455832958221436,-0.47,3.24,0.96,3.41
12.458924770355225,-0.3,3.66,0.69,3.73
12.469106674194336,-0.29,3.97,0.31,3.99
12.479102849960327,-0.17,4.0,-0.29,4.01
12.489089965820312,-0.22,3.66,-1.02,3.8
12.5064377784729,-0.24,3.13,-1.7,3.56
12.50900387763977,-0.22,2.78,-2.09,3.48
12.519093990325928,-0.22,2.41,-2.15,3.23
12.529072761535645,-0.18,1.84,-2.16,2.84
12.539083003997803,0.06,1.35,-2.27,2.64
12.557111740112305,0.17,0.72,-2.01,2.14
12.558881759643555,0.28,-0.18,-1.85,1.87
12.569218873977661,0.52,-1.13,-1.92,2.28
12.578971862792969,0.66,-1.77,-2.02,2.76
12.58923077583313,0.77,-1.87,-1.73,2.66
12.607948780059814,0.81,-1.54,-1.17,2.09
12.608994007110596,0.79,-1.0,-0.79,1.49
12.61920690536499,0.81,-0.45,-0.63,1.12
12.629032850265503,0.76,0.1,-0.47,0.89
12.639228820800781,0.66,0.4,-0.31,0.83
12.657976865768433,0.52,0.49,-0.29,0.77
12.658997774124146,0.36,0.47,-0.34,0.68
12.669175863265991,0.38,0.31,-0.34,0.59
12.678977966308594,0.43,0.18,-0.28,0.54
12.689246654510498,0.44,0.07,-0.24,0.5
12.708250999450684,0.43,-0.1,-0.14,0.46
12.709044933319092,0.34,-0.43,-0.03,0.54
12.723261833190918,0.25,-0.76,-0.02,0.8
12.728953838348389,0.12,-1.05,-0.02,1.05
12.739076852798462,0.14,-1.39,0.02,1.39
12.755367755889893,0.09,-1.73,0.03,1.73
12.758903980255127,0.04,-1.97,-0.02,1.97
12.769162654876709,0.06,-2.17,-0.04,2.17
12.778966903686523,0.05,-2.33,0.04,2.33
12.789138793945312,-0.01,-2.44,0.18,2.44
12.806217670440674,-0.02,-2.49,0.3,2.5
12.809050798416138,-0.08,-2.56,0.34,2.58
12.819206714630127,-0.14,-2.54,0.36,2.56
12.829064846038818,-0.14,-2.42,0.4,2.45
12.839162826538086,-0.16,-2.31,0.47,2.36
12.85643982887268,-0.14,-2.18,0.54,2.25
12.859030723571777,-0.07,-2.04,0.64,2.13
12.8692626953125,0.04,-1.91,0.63,2.01
12.879055976867676,0.2,-1.78,0.6,1.88
12.889173984527588,0.35,-1.59,0.63,1.74
12.907481670379639,0.47,-1.54,0.64,1.73
12.90894365310669,0.64,-1.5,0.5,1.7
12.919227838516235,0.71,-1.45,0.27,1.63
12.929084777832031,0.79,-1.3,0.3,1.55
12.93909478187561,0.86,-1.04,0.51,1.44
12.958064794540405,0.85,-0.68,0.83,1.36
12.958958864212036,0.91,-0.33,1.2,1.54
12.969222784042358,0.83,0.05,1.35,1.58
12.978980779647827,0.73,0.44,1.34,1.58
12.9891357421875,0.6,0.95,1.25,1.68
13.008091926574707,0.51,1.59,1.14,2.02
13.009049892425537,0.47,2.15,1.01,2.42
13.019247770309448,0.33,2.59,0.77,2.72
13.02906084060669,0.46,2.99,0.56,3.07
13.039278984069824,0.34,3.23,0.58,3.29
13.058965682983398,0.31,3.33,0.85,3.45
13.059401988983154,0.35,3.46,1.3,3.71
13.069215774536133,0.3,3.54,1.68,3.92
13.079071998596191,0.32,3.64,1.69,4.02
13.089351654052734,0.26,3.97,1.64,4.3
13.108922958374023,0.1,4.35,1.33,4.54
13.109320878982544,0.1,4.57,0.26,4.57
13.11926794052124,-0.18,4.1,-0.19,4.1
13.141180992126465,-0.23,3.58,-0.65,3.64
13.141536712646484,-0.1,2.52,-1.88,3.14
13.155375003814697,-0.14,1.59,-2.59,3.04
13.15910291671753,-0.2,1.0,-2.67,2.85
13.16924786567688,-0.23,0.6,-3.03,3.09
13.179025650024414,-0.37,-0.02,-3.22,3.24
13.18914270401001,-0.68,-0.73,-2.94,3.1
13.205359935760498,-0.87,-1.41,-2.57,3.05
13.209105968475342,-0.96,-1.9,-2.35,3.17
13.21930480003357,-1.12,-2.19,-1.92,3.12
13.229016780853271,-1.26,-2.19,-1.29,2.83
13.239221811294556,-1.33,-1.81,-0.68,2.34
13.256605863571167,-1.32,-1.13,-0.25,1.75
13.25910472869873,-1.11,-0.38,-0.21,1.19
13.269154787063599,-0.96,0.1,-0.43,1.05
13.279129981994629,-0.83,0.46,-0.6,1.12
13.289235830307007,-0.5,0.73,-0.86,1.23
13.307610988616943,-0.27,0.96,-1.03,1.43
13.309019804000854,-0.03,0.98,-0.85,1.29
13.319300651550293,0.0,0.68,-0.61,0.91
13.329104900360107,0.09,0.23,-0.32,0.4
13.339468002319336,0.26,-0.37,0.0,0.45
13.358025789260864,0.31,-0.9,0.12,0.95
13.359030723571777,0.38,-1.38,0.17,1.44
13.36931586265564,0.51,-1.79,0.22,1.87
13.379204750061035,0.46,-2.02,0.26,2.08
13.389293670654297,0.45,-2.13,0.25,2.19
13.407890796661377,0.49,-2.22,0.25,2.28
13.409037828445435,0.32,-2.26,0.24,2.29
13.419341802597046,0.28,-2.34,0.35,2.38
13.429178714752197,0.2,-2.33,0.5,2.39
13.439372777938843,0.14,-2.25,0.6,2.33
13.45868182182312,0.07,-2.19,0.59,2.26
13.459136962890625,-0.04,-2.09,0.62,2.18
13.469368934631348,-0.14,-1.95,0.83,2.12
13.479130744934082,-0.13,-1.86,0.84,2.04
13.489329814910889,-0.18,-1.84,0.67,1.96
13.509174823760986,-0.24,-1.83,0.6,1.94
13.509621858596802,-0.29,-1.77,0.65,1.9
13.519319772720337,-0.35,-1.65,0.62,1.79
13.529244899749756,-0.37,-1.57,0.56,1.7
13.539349794387817,-0.4,-1.62,0.6,1.77
13.559029817581177,-0.44,-1.69,0.67,1.87
13.559475898742676,-0.51,-1.68,0.77,1.91
13.5693359375,-0.63,-1.52,1.0,1.92
13.579141855239868,-0.72,-1.12,1.27,1.84
13.589343786239624,-0.84,-0.63,1.48,1.81
13.609509944915771,-0.85,-0.09,1.43,1.66
13.60994291305542,-0.77,0.51,1.18,1.49
13.619327783584595,-0.65,1.23,1.03,1.73
13.629223823547363,-0.5,1.85,0.99,2.15
13.639401912689209,-0.33,2.29,0.94,2.49
13.65900468826294,-0.28,2.53,0.91,2.7
13.65944766998291,-0.3,2.57,0.97,2.76
13.669352769851685,-0.45,2.56,1.19,2.85
13.67919397354126,-0.67,2.74,1.34,3.12
13.689327716827393,-0.71,2.78,1.34,3.16
13.709251880645752,-0.58,2.88,1.27,3.2
13.709696769714355,-0.48,3.11,1.11,3.33
13.719253778457642,-0.37,3.64,0.78,3.74
13.729162693023682,-0.29,4.18,0.52,4.22
13.739328861236572,-0.12,4.46,0.21,4.46
13.758890867233276,-0.09,4.27,-0.6,4.31
13.759335994720459,-0.05,3.78,-1.6,4.1
13.76939082145691,-0.02,3.18,-2.37,3.96
13.779130935668945,-0.05,2.46,-2.72,3.66
13.789386749267578,0.04,1.87,-3.03,3.56
13.80956482887268,0.08,1.23,-3.14,3.37
13.809992790222168,0.28,0.39,-2.93,2.96
13.819376945495605,0.53,-0.47,-2.64,2.73
13.829204797744751,0.88,-1.38,-2.3,2.82
13.839402675628662,1.06,-2.08,-1.88,2.99
13.859272003173828,1.09,-2.33,-1.32,2.89
13.859687805175781,1.09,-1.98,-0.71,2.36
13.869382858276367,1.04,-1.23,-0.26,1.63
13.879204750061035,0.89,-0.52,-0.18,1.04
13.889415740966797,0.67,-0.02,-0.29,0.73
13.909358978271484,0.59,0.38,-0.45,0.83
13.909814834594727,0.5,0.57,-0.69,1.02
13.919306755065918,0.42,0.63,-0.91,1.18
13.941886901855469,0.31,0.5,-0.82,1.0
13.942239761352539,0.25,0.18,-0.5,0.58
13.956602811813354,0.24,-0.22,-0.3,0.44
13.959007740020752,0.22,-0.7,-0.19,0.75
13.969302654266357,0.11,-1.21,-0.08,1.21
13.979137897491455,-0.01,-1.69,0.01,1.69
13.989344835281372,0.01,-2.04,0.02,2.04
14.006693840026855,-0.14,-2.26,-0.03,2.26
14.009239673614502,-0.21,-2.48,0.02,2.48
14.019266843795776,-0.31,-2.63,0.13,2.65
14.040576934814453,-0.3,-2.7,0.16,2.72
14.040889739990234,-0.36,-2.8,0.2,2.83
14.055101871490479,-0.38,-2.89,0.28,2.92
14.059147834777832,-0.38,-2.88,0.34,2.92
14.069305896759033,-0.34,-2.79,0.44,2.84
14.079065799713135,-0.31,-2.64,0.52,2.7
14.089213848114014,-0.21,-2.52,0.58,2.59
14.10549783706665,-0.17,-2.38,0.59,2.45
14.1091947555542,-0.13,-2.2,0.59,2.28
14.119343757629395,0.0,-1.99,0.58,2.07
14.129127979278564,0.13,-1.69,0.48,1.76
14.13939881324768,0.3,-1.42,0.32,1.48
14.156827926635742,0.38,-1.15,0.1,1.21
14.159157752990723,0.59,-0.94,0.02,1.11
14.169314861297607,0.78,-0.7,0.14,1.05
14.179157733917236,0.81,-0.34,0.5,1.01
14.19021987915039,0.82,0.08,0.91,1.22
14.207782745361328,0.8,0.45,1.07,1.4
14.209163665771484,0.71,0.74,1.0,1.43
14.219324827194214,0.57,1.08,0.85,1.48
14.229231834411621,0.43,1.63,0.66,1.81
14.239418983459473,0.37,2.28,0.65,2.39
14.257914781570435,0.35,2.84,0.67,2.93
14.259307861328125,0.34,3.25,0.64,3.32
14.269436836242676,0.37,3.33,0.56,3.39
14.279186725616455,0.34,3.17,0.55,3.23
14.289346694946289,0.39,2.82,0.8,2.95
14.309226989746094,0.49,2.6,1.18,2.89
14.309587001800537,0.52,2.8,1.6,3.26
14.319469928741455,0.47,3.22,1.67,3.65
14.32919692993164,0.19,3.57,1.32,3.81
14.339370727539062,-0.19,3.9,0.75,3.97
14.359563827514648,-0.53,3.98,-0.06,4.01
14.359992980957031,-0.61,3.6,-1.05,3.79
14.369466781616211,-0.43,2.76,-1.87,3.36
14.379202842712402,-0.34,1.89,-2.37,3.05
14.389569759368896,-0.38,1.34,-2.82,3.14
14.409578800201416,-0.36,0.81,-2.89,3.02
14.410019874572754,-0.43,0.2,-2.71,2.75
14.419469833374023,-0.61,-0.37,-2.47,2.57
14.429272651672363,-0.81,-0.91,-1.99,2.33
14.439619779586792,-1.02,-1.42,-1.44,2.26
14.459730863571167,-1.42,-1.72,-0.83,2.37
14.46016788482666,-1.68,-1.66,-0.34,2.38
14.469514846801758,-1.88,-1.2,-0.1,2.23
14.479283809661865,-1.93,-0.4,-0.07,1.97
14.489508867263794,-1.66,0.25,-0.28,1.7
14.509998798370361,-1.33,0.61,-0.84,1.68
14.51044487953186,-1.0,0.72,-1.35,1.82
14.519505977630615,-0.59,0.71,-1.48,1.74
14.529300689697266,-0.18,0.73,-1.3,1.5
14.539583683013916,0.12,0.43,-0.88,0.98
14.56007194519043,0.35,-0.27,-0.49,0.65
14.560503005981445,0.7,-1.0,-0.34,1.26
14.569486856460571,0.97,-1.66,-0.07,1.92
14.579335689544678,1.15,-2.2,0.17,2.48
14.589526653289795,1.25,-2.63,0.24,2.92
14.609922885894775,1.17,-2.86,0.26,3.1
14.610360860824585,1.14,-2.99,0.27,3.21
14.61944580078125,1.07,-2.94,0.19,3.13
14.629319667816162,0.79,-2.79,0.15,2.9
14.63953185081482,0.61,-2.52,0.18,2.59
14.659756660461426,0.43,-2.24,0.33,2.3
14.66019082069397,0.24,-2.02,0.47,2.08
14.669494867324829,0.07,-1.89,0.42,1.93
14.679435729980469,0.04,-1.8,0.33,1.83
14.689543724060059,0.0,-1.67,0.35,1.7
14.709855794906616,-0.12,-1.42,0.44,1.49
14.710212707519531,-0.24,-1.15,0.53,1.28
14.724554777145386,-0.39,-0.97,0.55,1.18
14.729415893554688,-0.54,-0.83,0.49,1.1
14.739306926727295,-0.64,-0.79,0.41,1.09
14.757660865783691,-0.66,-0.83,0.31,1.1
14.759223937988281,-0.64,-0.98,0.22,1.19
14.76939582824707,-0.71,-1.19,0.26,1.4
14.779459953308105,-0.74,-1.35,0.44,1.6
14.789544820785522,-0.83,-1.44,0.76,1.82
14.80817699432373,-0.91,-1.48,0.98,1.99
14.809319972991943,-1.03,-1.32,1.14,2.02
14.81946086883545,-1.08,-0.91,1.12,1.8
14.82955265045166,-1.04,-0.35,1.04,1.51
14.83947467803955,-0.99,0.32,1.02,1.45
14.859530925750732,-0.76,1.04,1.02,1.64
14.859894752502441,-0.66,1.71,0.96,2.06
14.869480848312378,-0.55,2.29,0.86,2.5
14.879673957824707,-0.41,2.63,0.87,2.8
14.889518737792969,-0.46,2.6,1.01,2.82
14.909591674804688,-0.4,2.46,1.25,2.78
14.909953832626343,-0.49,2.54,1.5,2.99
14.919532775878906,-0.53,2.57,1.47,3.0
14.929649829864502,-0.38,2.69,1.17,2.95
14.939412832260132,-0.27,3.0,0.98,3.16
14.959939956665039,-0.14,3.59,0.79,3.67
14.960294723510742,-0.01,4.18,0.4,4.19
14.969567775726318,-0.03,4.6,-0.02,4.6
14.979690790176392,0.06,4.67,-0.62,4.71
14.989502906799316,0.14,4.18,-1.6,4.47
15.010673999786377,0.25,3.29,-2.39,4.07
15.011115789413452,0.21,2.52,-2.72,3.71
15.01955795288086,0.44,1.94,-2.8,3.43
15.029749870300293,0.42,1.18,-2.81,3.07
15.039493799209595,0.54,0.22,-2.63,2.69
15.060478687286377,0.62,-0.8,-2.19,2.41
15.060925006866455,0.66,-1.75,-1.79,2.58
15.069541931152344,0.62,-2.32,-1.4,2.77
15.07982873916626,0.59,-2.24,-0.92,2.49
15.089653968811035,0.48,-1.62,-0.38,1.73
15.110122680664062,0.38,-0.83,-0.13,0.92
15.110484838485718,0.3,-0.1,-0.26,0.4
15.119492769241333,0.26,0.37,-0.57,0.72
15.129932880401611,0.22,0.55,-0.79,0.98
15.139537811279297,0.05,0.59,-0.75,0.95
15.16008186340332,0.04,0.43,-0.6,0.73
15.160477876663208,0.04,0.04,-0.59,0.59
15.169516801834106,0.07,-0.39,-0.5,0.63
15.179851770401001,0.1,-0.77,-0.23,0.8
15.189530849456787,0.07,-1.13,-0.07,1.13
15.210449695587158,0.11,-1.51,-0.03,1.51
15.210888862609863,0.02,-1.87,0.03,1.87
15.219522953033447,0.1,-2.17,0.1,2.17
15.230037689208984,0.08,-2.4,0.15,2.4
15.239704847335815,0.0,-2.63,0.24,2.64
15.261699676513672,0.05,-2.79,0.38,2.81
15.262035846710205,-0.08,-2.86,0.38,2.88
15.269611835479736,-0.17,-2.84,0.24,2.85
15.28005599975586,-0.35,-2.8,0.28,2.83
15.289659976959229,-0.46,-2.68,0.43,2.75
15.311715841293335,-0.43,-2.54,0.55,2.63
15.312084674835205,-0.39,-2.36,0.57,2.45
15.319546699523926,-0.28,-2.07,0.66,2.19
15.330084800720215,-0.1,-1.77,0.72,1.91
15.33957290649414,0.05,-1.57,0.61,1.68
15.361299991607666,0.17,-1.3,0.56,1.42
15.361661911010742,0.33,-1.04,0.47,1.18
15.369613885879517,0.43,-0.79,0.41,0.98
15.3801589012146,0.61,-0.61,0.29,0.91
15.389599800109863,0.64,-0.53,0.19,0.85
15.410993814468384,0.67,-0.46,0.2,0.83
15.41134786605835,0.7,-0.41,0.44,0.92
15.4196138381958,0.62,-0.34,0.79,1.06
15.429540872573853,0.49,-0.13,0.93,1.05
15.439619779586792,0.37,0.05,0.95,1.02
15.461296796798706,0.24,0.38,0.88,0.98
15.461652755737305,0.12,0.9,0.82,1.22
15.475689888000488,0.06,1.48,0.75,1.66
15.479444980621338,0.14,2.0,0.72,2.13
15.489536762237549,0.08,2.43,0.78,2.55
15.507987976074219,0.02,2.7,0.79,2.81
15.509341716766357,0.04,2.74,0.84,2.86
15.519477844238281,0.08,2.66,0.96,2.82
15.52950668334961,0.03,2.56,1.26,2.85
15.539527893066406,0.15,2.59,1.62,3.05
15.558002948760986,0.18,2.75,1.79,3.28
15.559314727783203,0.14,3.11,1.58,3.49
15.569500923156738,0.01,3.49,0.71,3.56
15.5794997215271,-0.21,3.98,-0.32,3.99
15.59184980392456,-0.42,4.25,-0.89,4.36
15.606828689575195,-0.47,3.93,-1.57,4.25
15.609415769577026,-0.47,2.88,-2.61,3.91
15.61946988105774,-0.53,1.7,-3.04,3.52
15.629450798034668,-0.35,0.85,-2.95,3.08
15.639557838439941,-0.32,0.16,-2.64,2.66
15.65760588645935,-0.27,-0.7,-2.22,2.34
15.659317970275879,-0.35,-1.58,-1.78,2.4
15.669506788253784,-0.56,-2.15,-1.17,2.51
15.67953085899353,-0.88,-2.25,-0.59,2.48
15.68959379196167,-1.41,-1.8,-0.23,2.29
15.709221839904785,-1.65,-1.02,-0.1,1.94
15.709566831588745,-1.91,-0.05,-0.34,1.94
15.719587802886963,-1.8,0.84,-0.75,2.12
15.729536771774292,-1.75,1.7,-1.19,2.71
15.739656925201416,-1.35,2.14,-1.43,2.9
15.759997844696045,-0.84,2.16,-1.48,2.74
15.760344982147217,-0.33,1.86,-1.41,2.35
15.76955795288086,0.25,1.29,-1.05,1.68
15.779513835906982,0.71,0.51,-0.65,1.08
15.7896568775177,0.9,-0.34,-0.35,1.02
15.810218811035156,1.0,-1.06,-0.07,1.45
15.810584783554077,0.99,-1.75,0.17,2.01
15.819514751434326,0.93,-2.28,0.17,2.46
15.829627990722656,0.83,-2.73,0.11,2.85
15.839662790298462,0.77,-3.02,0.16,3.12
15.860556840896606,0.68,-3.12,0.19,3.19
15.860939979553223,0.59,-3.11,0.2,3.17
15.869611740112305,0.51,-3.05,0.21,3.09
15.879640817642212,0.4,-3.03,0.33,3.07
15.889717817306519,0.33,-2.97,0.43,3.01
15.910997867584229,0.26,-2.81,0.5,2.86
15.911362886428833,0.19,-2.64,0.59,2.71
15.919566869735718,0.1,-2.44,0.62,2.51
15.929579734802246,0.01,-2.16,0.55,2.22
15.93963098526001,-0.14,-1.82,0.46,1.88
15.961350917816162,-0.31,-1.54,0.47,1.63
15.961721897125244,-0.42,-1.36,0.39,1.47
15.969697952270508,-0.5,-1.28,0.24,1.39
15.979611873626709,-0.6,-1.21,0.13,1.35
15.98957872390747,-0.7,-1.15,0.13,1.35
16.0118567943573,-0.81,-1.1,0.22,1.38
16.012223720550537,-0.96,-1.09,0.46,1.52
16.01968288421631,-0.95,-1.12,0.7,1.62
16.02963399887085,-1.03,-1.05,0.88,1.71
16.039626836776733,-0.87,-0.85,0.96,1.54
16.062809944152832,-0.78,-0.41,0.94,1.28
16.063140869140625,-0.62,0.24,0.94,1.15
16.069679737091064,-0.52,0.95,0.84,1.37
16.07967782020569,-0.5,1.61,0.68,1.81
16.089643955230713,-0.41,2.18,0.74,2.33
16.112664699554443,-0.36,2.53,0.82,2.68
16.113022804260254,-0.3,2.7,0.57,2.77
16.119690895080566,-0.4,2.57,0.48,2.64
16.12959885597229,-0.4,2.3,1.01,2.54
16.13966464996338,-0.49,2.23,1.56,2.76
16.162065982818604,-0.48,2.36,1.38,2.77
16.162492752075195,-0.32,2.53,0.92,2.71
16.169700860977173,-0.09,2.75,0.53,2.8
16.179677963256836,0.07,3.35,0.41,3.37
16.189642906188965,0.04,3.99,0.12,3.99
16.21201777458191,0.12,4.25,-0.54,4.28
16.212454795837402,0.14,3.92,-1.63,4.24
16.21971368789673,0.25,3.16,-2.5,4.03
16.22965097427368,0.41,2.27,-2.7,3.55
16.23969578742981,0.37,1.62,-2.76,3.22
16.262565851211548,0.3,0.96,-2.87,3.04
16.26300287246704,0.45,0.07,-2.68,2.71
16.26973581314087,0.58,-0.82,-2.34,2.54
16.279619693756104,0.8,-1.44,-2.02,2.6
16.28969097137451,0.91,-1.71,-1.61,2.51
16.3123459815979,1.17,-1.54,-0.92,2.14
16.312764883041382,1.37,-0.96,-0.35,1.7
16.31970977783203,1.41,-0.04,-0.05,1.41
16.329646825790405,1.21,0.83,-0.09,1.47
16.339723825454712,1.0,1.33,-0.47,1.72
16.36259365081787,0.62,1.6,-1.08,2.02
16.362955808639526,0.27,1.78,-1.35,2.25
16.369771003723145,0.02,1.77,-1.15,2.11
16.379639863967896,-0.28,1.37,-0.86,1.64
16.389724731445312,-0.5,0.63,-0.71,1.07
16.41215991973877,-0.73,-0.1,-0.59,0.94
16.41253089904785,-0.81,-0.75,-0.39,1.17
16.41977286338806,-0.74,-1.39,-0.16,1.58
16.429672718048096,-0.74,-1.93,-0.09,2.06
16.439798831939697,-0.61,-2.3,-0.11,2.38
16.462629795074463,-0.44,-2.55,-0.01,2.58
16.46298885345459,-0.26,-2.6,0.14,2.61
16.46973991394043,-0.08,-2.73,0.16,2.73
16.479683876037598,-0.08,-2.78,0.11,2.78
16.48978877067566,-0.15,-2.78,0.19,2.79
16.511956691741943,-0.22,-2.67,0.21,2.68
16.512311935424805,-0.37,-2.51,0.25,2.54
16.51981282234192,-0.34,-2.45,0.32,2.49
16.529754877090454,-0.29,-2.34,0.24,2.37
16.53984498977661,-0.24,-2.23,0.22,2.25
16.562453746795654,-0.21,-2.09,0.31,2.12
16.562813758850098,-0.15,-1.88,0.3,1.9
16.569734811782837,0.01,-1.67,0.32,1.7
16.579779863357544,0.16,-1.53,0.31,1.56
16.58984088897705,0.43,-1.41,0.22,1.49
16.612483978271484,0.59,-1.42,0.09,1.54
16.612846851348877,0.72,-1.5,-0.11,1.66
16.61984395980835,0.94,-1.63,-0.04,1.88
16.62962579727173,0.94,-1.66,0.16,1.91
16.639901876449585,0.89,-1.57,0.44,1.85
16.662774801254272,0.91,-1.41,1.04,1.97
16.66313886642456,0.73,-1.13,1.49,2.0
16.669763803482056,0.49,-0.69,1.56,1.77
16.679744720458984,0.34,-0.11,1.5,1.54
16.689918994903564,0.19,0.43,1.34,1.42
16.71222972869873,0.07,1.11,1.12,1.57
16.712597846984863,-0.01,1.87,0.93,2.08
16.719807863235474,-0.02,2.55,0.72,2.64
16.729806900024414,0.03,3.07,0.59,3.12
16.73990774154663,0.14,3.36,0.78,3.45
16.762126922607422,0.25,3.31,1.26,3.55
16.762481689453125,0.39,3.17,1.51,3.53
16.769791841506958,0.4,3.0,1.58,3.41
16.77975082397461,0.37,3.05,1.54,3.43
16.789931774139404,0.24,3.4,1.35,3.66
16.81226396560669,-0.06,3.82,1.08,3.97
16.812625885009766,-0.21,4.27,0.58,4.31
16.819828987121582,-0.4,4.52,-0.11,4.53
16.829781770706177,-0.5,4.32,-0.84,4.42
16.83989381790161,-0.47,3.68,-1.65,4.06
16.862409830093384,-0.41,2.65,-2.28,3.51
16.862775802612305,-0.33,1.88,-2.53,3.16
16.86977481842041,-0.35,1.12,-2.53,2.78
16.879764795303345,-0.42,0.02,-2.5,2.53
16.889832973480225,-0.47,-1.23,-2.47,2.79
16.912558794021606,-0.53,-2.35,-2.15,3.22
16.912930965423584,-0.62,-3.1,-1.66,3.57
16.919811725616455,-0.79,-3.32,-1.13,3.59
16.92971181869507,-1.03,-2.96,-0.63,3.19
16.939772844314575,-1.25,-2.06,-0.33,2.43
16.962904930114746,-1.35,-0.96,-0.37,1.69
16.96327781677246,-1.39,0.08,-0.52,1.48
16.969798803329468,-1.43,1.12,-0.73,1.95
16.97970485687256,-1.07,1.95,-1.14,2.49
16.989760875701904,-0.87,2.48,-1.57,3.06
17.012727737426758,-0.54,2.65,-1.73,3.21
17.01309871673584,-0.22,2.44,-1.56,2.9
17.019661903381348,0.02,1.76,-1.02,2.03
17.029712677001953,0.26,0.82,-0.49,0.98
17.039804935455322,0.33,-0.18,-0.17,0.41
17.06268072128296,0.22,-1.0,-0.03,1.02
17.063053846359253,0.13,-1.58,0.1,1.58
17.06977081298828,0.07,-2.13,0.23,2.14
17.079731941223145,0.11,-2.39,0.18,2.39
17.089842796325684,0.07,-2.48,0.21,2.48
17.112944841384888,0.14,-2.45,0.26,2.46
17.113303661346436,0.21,-2.4,0.3,2.42
17.119746685028076,0.29,-2.35,0.26,2.38
17.12977170944214,0.31,-2.3,0.25,2.33
17.139875888824463,0.27,-2.21,0.29,2.24
17.162728786468506,0.28,-2.12,0.36,2.16
17.1630859375,0.32,-2.14,0.51,2.22
17.169765949249268,0.21,-2.08,0.57,2.16
17.179710865020752,0.16,-1.98,0.6,2.07
17.18983793258667,0.0,-1.81,0.74,1.95
17.212660789489746,-0.16,-1.57,0.84,1.78
17.213043689727783,-0.26,-1.4,0.83,1.64
17.219701766967773,-0.33,-1.26,0.66,1.46
17.229718685150146,-0.39,-1.23,0.44,1.36
17.239762783050537,-0.38,-1.32,0.43,1.43
17.26284885406494,-0.42,-1.48,0.41,1.59
17.263213872909546,-0.46,-1.61,0.4,1.72
17.26982283592224,-0.49,-1.69,0.5,1.82
17.27983784675598,-0.54,-1.65,0.7,1.87
17.28994083404541,-0.65,-1.44,0.96,1.84
17.3133807182312,-0.68,-1.07,1.24,1.77
17.31373882293701,-0.69,-0.54,1.35,1.6
17.32803988456726,-0.73,0.07,1.35,1.53
17.32956886291504,-0.71,0.74,1.22,1.59
17.339744806289673,-0.7,1.5,0.97,1.91
17.359861850738525,-0.53,2.08,0.78,2.28
17.36017680168152,-0.37,2.44,0.51,2.52
17.375680923461914,-0.3,2.51,0.33,2.54
17.37965965270996,-0.18,2.44,0.59,2.51
17.38983392715454,-0.12,2.5,1.0,2.69
17.408527851104736,-0.25,2.6,1.32,2.92
17.409602880477905,-0.24,2.54,1.47,2.94
17.41969871520996,-0.29,2.38,1.36,2.75
17.429730892181396,-0.24,2.53,1.09,2.76
17.439729690551758,-0.19,2.95,0.84,3.07
17.459205865859985,-0.17,3.39,0.55,3.43
17.459553718566895,-0.1,3.69,0.26,3.7
17.469775676727295,-0.12,3.79,-0.23,3.79
17.479744911193848,-0.21,3.59,-1.05,3.74
17.48986577987671,-0.2,3.04,-1.88,3.57
17.51027488708496,-0.19,2.45,-2.36,3.4
17.510587692260742,-0.17,1.92,-2.45,3.11
17.51981282234192,0.0,1.34,-2.36,2.71
17.529841899871826,0.1,0.55,-2.17,2.24
17.539845943450928,0.37,-0.43,-1.98,2.05
17.5609769821167,0.53,-1.52,-1.94,2.52
17.56133270263672,0.72,-2.33,-1.92,3.1
17.569791793823242,0.86,-2.49,-1.55,3.05
17.579770803451538,0.83,-2.06,-0.94,2.41
17.589845657348633,0.8,-1.29,-0.44,1.58
17.611905813217163,0.8,-0.52,-0.15,0.96
17.612273693084717,0.79,0.11,-0.04,0.79
17.619843006134033,0.73,0.49,-0.26,0.91
17.629814863204956,0.62,0.73,-0.61,1.13
17.639890670776367,0.57,0.83,-0.68,1.21
17.662242889404297,0.6,0.75,-0.55,1.1
17.662607669830322,0.62,0.55,-0.45,0.94
17.669818878173828,0.58,0.17,-0.31,0.67
17.67988681793213,0.45,-0.29,-0.15,0.55
17.689908981323242,0.37,-0.73,-0.08,0.82
17.712463855743408,0.13,-1.14,-0.02,1.14
17.71282196044922,0.04,-1.55,-0.09,1.55
17.719741821289062,-0.1,-2.01,-0.33,2.03
17.72974395751953,-0.13,-2.32,-0.25,2.33
17.739901781082153,-0.25,-2.4,0.05,2.41
17.76249384880066,-0.25,-2.49,0.29,2.51
17.76287579536438,-0.21,-2.62,0.44,2.66
17.769826889038086,-0.16,-2.74,0.43,2.77
17.779764652252197,-0.1,-2.74,0.41,2.77
17.789869785308838,0.01,-2.73,0.49,2.77
17.812591791152954,0.01,-2.63,0.5,2.67
17.81295680999756,0.08,-2.38,0.56,2.44
17.819868803024292,0.1,-2.07,0.67,2.17
17.829861879348755,0.11,-1.81,0.69,1.94
17.839932918548584,0.06,-1.58,0.57,1.68
17.862680912017822,0.16,-1.46,0.35,1.5
17.863046884536743,0.3,-1.41,0.06,1.44
17.869852781295776,0.33,-1.47,-0.06,1.5
17.879941940307617,0.55,-1.55,-0.11,1.64
17.88996386528015,0.61,-1.66,-0.06,1.76
17.91324281692505,0.65,-1.58,0.16,1.71
17.913573741912842,0.65,-1.48,0.49,1.68
17.919879913330078,0.66,-1.14,0.92,1.6
17.929883003234863,0.56,-0.53,1.3,1.51
17.946022987365723,0.43,0.13,1.44,1.5
17.961105823516846,0.31,0.73,1.38,1.59
17.961408853530884,0.29,1.35,1.2,1.82
17.969764709472656,0.3,2.05,0.93,2.27
17.979822874069214,0.29,2.65,0.82,2.78
17.989946842193604,0.24,3.05,0.87,3.18
18.010382652282715,0.28,3.26,0.9,3.39
18.010689735412598,0.27,3.33,0.95,3.47
18.02665376663208,0.3,3.39,1.1,3.57
18.029744863510132,0.36,3.59,1.4,3.87
18.039795875549316,0.41,3.87,1.53,4.18
18.059348821640015,0.3,4.04,1.34,4.26
18.05965566635132,0.09,4.16,0.95,4.26
18.06976079940796,-0.06,4.29,0.33,4.3
18.079803943634033,-0.22,4.05,-0.46,4.08
18.089855670928955,-0.29,3.43,-1.37,3.7
18.110310792922974,-0.26,2.56,-2.19,3.37
18.11057686805725,-0.26,1.74,-2.66,3.18
18.126288890838623,-0.28,1.12,-2.76,2.99
18.129740715026855,-0.31,0.41,-2.67,2.71
18.13976287841797,-0.28,-0.42,-2.45,2.5
18.15939688682556,-0.26,-1.16,-2.2,2.5
18.15966486930847,-0.52,-1.64,-1.85,2.52
18.169808864593506,-0.79,-1.68,-1.31,2.27
18.179871797561646,-1.12,-1.34,-0.79,1.91
18.18988585472107,-1.37,-0.65,-0.47,1.58
18.2101469039917,-1.58,0.09,-0.33,1.61
18.21043300628662,-1.61,0.83,-0.49,1.87
18.2198166847229,-1.41,1.54,-0.78,2.22
18.22981882095337,-1.08,1.93,-1.15,2.49
18.239888668060303,-0.73,1.84,-1.54,2.5
18.26106595993042,-0.33,1.29,-1.33,1.88
18.26138186454773,-0.03,0.74,-0.86,1.13
18.26984167098999,0.14,0.05,-0.54,0.56
18.27992081642151,0.16,-0.74,-0.27,0.8
18.289934873580933,0.25,-1.51,-0.12,1.53
18.312585830688477,0.21,-2.17,-0.21,2.19
18.312941789627075,0.16,-2.56,-0.26,2.57
18.319958686828613,0.22,-2.65,-0.07,2.66
18.32991075515747,0.27,-2.71,0.24,2.73
18.33997678756714,0.15,-2.63,0.37,2.66
18.362794876098633,0.19,-2.59,0.34,2.61
18.363154888153076,0.26,-2.54,0.26,2.56
18.36989688873291,0.18,-2.43,0.2,2.44
18.37998867034912,0.2,-2.37,0.29,2.39
18.390050888061523,0.25,-2.32,0.48,2.38
18.413856983184814,0.28,-2.31,0.63,2.41
18.414235830307007,0.25,-2.23,0.73,2.35
18.41989278793335,0.16,-2.06,0.79,2.21
18.42993974685669,0.13,-1.91,0.78,2.06
18.440061807632446,-0.06,-1.78,0.76,1.93
18.464011669158936,-0.16,-1.53,0.83,1.74
18.464380741119385,-0.19,-1.21,0.87,1.5
18.470009803771973,-0.22,-1.06,0.61,1.24
18.480010986328125,-0.26,-1.05,0.32,1.12
18.490060806274414,-0.39,-1.08,0.31,1.18
18.51430368423462,-0.56,-1.1,0.37,1.28
18.51466989517212,-0.71,-1.13,0.33,1.37
18.52003288269043,-0.88,-1.27,0.52,1.63
18.53001070022583,-1.07,-1.38,0.83,1.93
18.5400128364563,-1.21,-1.22,1.03,2.0
18.564615726470947,-1.3,-0.8,1.21,1.94
18.564985752105713,-1.28,-0.32,1.32,1.86
18.569971799850464,-1.13,0.16,1.32,1.74
18.580033779144287,-0.97,0.72,1.15,1.66
18.59001398086548,-0.76,1.38,0.87,1.79
18.614620685577393,-0.59,2.0,0.58,2.16
18.61497974395752,-0.46,2.45,0.39,2.52
18.62003183364868,-0.47,2.57,0.32,2.63
18.629987716674805,-0.5,2.47,0.38,2.54
18.640028953552246,-0.51,2.65,0.55,2.75
18.66459369659424,-0.64,2.86,0.97,3.08
18.66495990753174,-0.59,3.1,1.13,3.35
18.6700119972229,-0.49,3.42,1.02,3.6
18.680030822753906,-0.4,3.92,0.91,4.04
18.69014072418213,-0.28,4.57,0.69,4.63
18.71471071243286,-0.13,4.93,0.12,4.93
18.715072870254517,0.01,4.84,-0.89,4.92
18.72001600265503,0.1,4.41,-2.09,4.88
18.730064868927002,0.3,3.47,-2.98,4.58
18.74007487297058,0.38,2.5,-3.26,4.12
18.765071868896484,0.42,1.76,-3.11,3.59
18.7654287815094,0.52,0.98,-2.83,3.03
18.77005100250244,0.6,-0.13,-2.68,2.74
18.78006076812744,0.7,-1.35,-2.66,3.06
18.790063858032227,0.68,-2.19,-2.3,3.24
18.81518268585205,0.54,-2.47,-1.45,2.91
18.815550804138184,0.52,-2.25,-0.58,2.38
18.820040702819824,0.44,-1.73,-0.02,1.78
18.830071926116943,0.51,-1.02,0.02,1.14
18.8400559425354,0.53,-0.31,-0.06,0.61
18.86507797241211,0.5,0.18,-0.06,0.53
18.865473747253418,0.49,0.48,-0.3,0.74
18.870078802108765,0.49,0.49,-0.6,0.91
18.880064964294434,0.47,0.24,-0.75,0.91
18.89006280899048,0.41,-0.13,-0.63,0.76
18.900031805038452,0.32,-0.49,-0.41,0.71
18.915602684020996,0.24,-0.86,-0.29,0.93
18.920057773590088,0.13,-1.27,-0.08,1.27
18.930080890655518,-0.01,-1.74,-0.01,1.74
18.939993858337402,-0.04,-2.06,-0.01,2.06
18.94998598098755,-0.18,-2.26,0.08,2.26
18.965452671051025,-0.19,-2.36,0.21,2.37
18.970043659210205,-0.2,-2.42,0.31,2.44
18.980100870132446,-0.18,-2.39,0.26,2.41
18.990049839019775,-0.21,-2.32,0.26,2.34
19.00019073486328,-0.19,-2.25,0.37,2.28
19.016267776489258,-0.19,-2.19,0.52,2.25
19.02008295059204,-0.25,-2.12,0.61,2.22
19.030083656311035,-0.21,-2.0,0.64,2.11
19.04004192352295,-0.13,-1.85,0.74,1.99
19.050044775009155,-0.14,-1.73,0.79,1.9
19.065273761749268,-0.1,-1.59,0.7,1.74
19.070124864578247,-0.08,-1.41,0.54,1.51
19.080057859420776,0.03,-1.31,0.54,1.41
19.090125799179077,0.09,-1.32,0.47,1.4
19.100053787231445,0.16,-1.4,0.35,1.45
19.115356922149658,0.31,-1.45,0.37,1.52
19.12000274658203,0.41,-1.43,0.37,1.53
19.130075931549072,0.52,-1.45,0.41,1.59
19.140122890472412,0.61,-1.38,0.49,1.58
19.150065898895264,0.57,-1.15,0.74,1.48
19.16530680656433,0.5,-0.74,1.14,1.44
19.170148849487305,0.33,-0.26,1.33,1.39
19.180086851119995,0.23,0.18,1.35,1.38
19.19010877609253,0.19,0.6,1.27,1.41
19.199992656707764,0.19,1.06,0.92,1.41
19.215447902679443,0.22,1.6,0.38,1.65
19.220122814178467,0.11,2.14,0.29,2.16
19.230122804641724,0.0,2.48,0.57,2.54
19.24009895324707,0.09,2.48,0.92,2.64
19.250077724456787,0.04,2.41,1.15,2.67
19.2653489112854,0.26,2.35,1.4,2.74
19.27008867263794,0.49,2.4,1.63,2.94
19.280106782913208,0.67,2.69,1.87,3.34
19.290149688720703,0.51,3.32,2.05,3.93
19.300067901611328,0.41,4.11,1.88,4.53
19.315492868423462,0.11,4.83,1.12,4.95
19.32011079788208,-0.05,5.25,-0.26,5.25
19.3300998210907,0.0,4.92,-1.79,5.23
19.34011483192444,0.08,3.93,-2.76,4.8
19.350079774856567,-0.13,2.5,-2.67,3.66
19.36593198776245,-0.09,1.63,-2.89,3.31
19.370293855667114,-0.21,1.01,-3.17,3.33
19.380101680755615,-0.5,0.17,-3.05,3.09
19.390126705169678,-0.63,-0.74,-2.87,3.03
19.400139808654785,-0.75,-1.5,-2.65,3.13
19.41555380821228,-0.95,-2.07,-2.31,3.24
19.420111656188965,-1.18,-2.22,-1.81,3.09
19.43013882637024,-1.4,-1.95,-1.1,2.64
19.44016170501709,-1.56,-1.47,-0.36,2.17
19.450111865997314,-1.61,-0.68,-0.01,1.74
19.4654598236084,-1.36,0.22,-0.12,1.38
19.470046997070312,-1.08,0.86,-0.35,1.42
19.48015785217285,-0.91,1.18,-0.57,1.59
19.49009680747986,-0.48,1.35,-0.82,1.65
19.500191688537598,-0.14,1.35,-0.99,1.67
19.515734672546387,0.01,1.11,-0.87,1.41
19.521089792251587,0.24,0.77,-0.53,0.96
19.53019094467163,0.37,0.16,-0.26,0.47
19.54831886291504,0.52,-0.57,-0.12,0.78
19.550049781799316,0.57,-1.14,-0.06,1.27
19.56247878074646,0.57,-1.54,0.0,1.64
19.570053815841675,0.57,-1.83,0.14,1.92
19.580066680908203,0.4,-2.04,0.23,2.09
19.590094804763794,0.3,-2.14,0.25,2.17
19.600128650665283,0.26,-2.29,0.33,2.32
19.612542867660522,0.13,-2.44,0.35,2.46
19.619932651519775,0.07,-2.54,0.34,2.56
19.630099773406982,0.18,-2.65,0.36,2.68
19.64013671875,0.21,-2.66,0.39,2.69
19.65010166168213,0.21,-2.64,0.53,2.7
19.663575887680054,0.23,-2.54,0.6,2.62
19.67018985748291,0.15,-2.45,0.64,2.53
19.680091857910156,0.08,-2.35,0.7,2.45
19.690197944641113,-0.04,-2.25,0.61,2.33
19.70010471343994,-0.14,-2.26,0.5,2.31
19.713948726654053,-0.23,-2.32,0.45,2.37
19.720054864883423,-0.32,-2.33,0.38,2.38
19.730108737945557,-0.39,-2.35,0.32,2.4
19.74021291732788,-0.48,-2.42,0.28,2.48
19.750170707702637,-0.57,-2.39,0.46,2.49
19.76445984840393,-0.64,-2.17,0.86,2.42
19.770047664642334,-0.73,-1.61,1.25,2.16
19.78020977973938,-0.83,-0.94,1.54,1.98
19.790205001831055,-0.77,-0.27,1.62,1.81
19.80022096633911,-0.71,0.42,1.48,1.69
19.815353870391846,-0.64,1.27,1.22,1.87
19.82006072998047,-0.6,2.05,1.07,2.38
19.830188751220703,-0.38,2.58,0.85,2.74
19.84021782875061,-0.23,2.83,0.65,2.91
19.85023784637451,-0.21,2.82,0.6,2.89
19.865301847457886,-0.27,2.96,0.86,3.09
19.870134830474854,-0.37,3.24,1.28,3.5
19.880198001861572,-0.42,3.4,1.4,3.7
19.898331880569458,-0.36,3.6,1.18,3.8
19.89998984336853,-0.33,3.83,0.86,3.93
19.91248083114624,-0.08,4.28,0.6,4.32
19.920106887817383,0.09,4.59,0.24,4.59
19.930096864700317,0.15,4.57,-0.41,4.59
19.940101861953735,0.19,4.05,-1.29,4.25
19.95008683204651,0.14,3.17,-2.23,3.87
19.962562799453735,0.11,2.54,-2.81,3.78
19.970073699951172,0.05,2.29,-2.77,3.59
19.980138778686523,0.02,1.85,-2.41,3.03
19.990173816680908,0.15,1.06,-2.33,2.56
20.000138759613037,0.44,0.17,-2.76,2.8
20.013178825378418,0.58,-0.66,-3.18,3.29
20.020158767700195,0.72,-1.4,-3.1,3.47
20.030152797698975,0.75,-1.85,-2.5,3.19
20.0401828289032,0.73,-1.87,-1.72,2.64
20.050264835357666,0.62,-1.53,-1.0,1.93
20.06415367126465,0.56,-0.97,-0.44,1.2
20.07003688812256,0.58,-0.35,-0.08,0.68
20.080187797546387,0.55,0.1,-0.06,0.56
20.090243816375732,0.56,0.49,-0.38,0.83
20.100200653076172,0.55,0.7,-0.73,1.15
20.115116834640503,0.53,0.76,-0.91,1.29
20.1199688911438,0.53,0.54,-0.81,1.1
20.130210876464844,0.41,0.09,-0.5,0.65
20.14793872833252,0.36,-0.44,-0.27,0.62
20.150080680847168,0.26,-0.94,-0.12,0.98
20.1626718044281,0.16,-1.36,-0.01,1.36
20.169981956481934,0.1,-1.69,0.02,1.69
20.18014097213745,0.05,-1.91,0.04,1.91
20.190303802490234,0.01,-2.09,0.08,2.09
20.20016098022461,-0.06,-2.21,0.21,2.22
20.212754726409912,-0.08,-2.23,0.24,2.24
20.220054864883423,-0.17,-2.3,0.25,2.31
20.230222702026367,-0.24,-2.42,0.22,2.44
20.24020481109619,-0.23,-2.48,0.24,2.5
20.250199794769287,-0.3,-2.39,0.31,2.42
20.263442993164062,-0.32,-2.3,0.42,2.35
20.270044803619385,-0.3,-2.23,0.49,2.3
20.280104875564575,-0.3,-2.12,0.52,2.2
20.290315866470337,-0.24,-1.9,0.62,2.01
20.300285816192627,-0.1,-1.7,0.65,1.82
20.31424880027771,-0.02,-1.53,0.59,1.63
20.320161819458008,0.13,-1.44,0.51,1.53
20.33020782470703,0.29,-1.4,0.49,1.51
20.3402578830719,0.43,-1.49,0.34,1.58
20.35030698776245,0.54,-1.61,0.11,1.7
20.364471912384033,0.64,-1.61,0.11,1.73
20.370129823684692,0.68,-1.54,0.25,1.7
20.380176782608032,0.71,-1.38,0.44,1.61
20.397987842559814,0.7,-1.02,0.68,1.41
20.40002679824829,0.62,-0.49,0.94,1.22
20.41237497329712,0.49,-0.04,1.13,1.23
20.419921875,0.36,0.4,1.09,1.21
20.430194854736328,0.26,0.89,1.0,1.36
20.44027280807495,0.31,1.48,0.92,1.77
20.450206756591797,0.31,2.04,0.87,2.23
20.462928771972656,0.26,2.59,0.89,2.75
20.470088958740234,0.39,2.91,0.95,3.08
20.480215787887573,0.43,2.96,0.97,3.14
20.49030065536499,0.5,2.97,1.1,3.2
20.500279903411865,0.54,3.18,1.41,3.52
20.514344692230225,0.5,3.61,1.66,4.0
20.520065784454346,0.33,4.1,1.7,4.45
20.530200004577637,0.11,4.48,1.43,4.7
20.540239810943604,-0.12,4.77,0.74,4.82
20.550283908843994,-0.29,4.74,-0.12,4.75
20.56464195251465,-0.38,4.23,-0.99,4.36
20.570303916931152,-0.26,3.23,-1.98,3.79
20.580169677734375,-0.24,2.09,-2.73,3.44
20.598137855529785,-0.34,1.32,-2.91,3.21
20.60008978843689,-0.36,0.55,-2.76,2.83
20.61237382888794,-0.46,-0.31,-2.59,2.64
20.620060920715332,-0.57,-1.15,-2.62,2.91
20.63021469116211,-0.71,-2.01,-2.62,3.37
20.64020872116089,-0.83,-2.63,-2.32,3.6
20.65021276473999,-0.97,-2.84,-1.84,3.52
20.663311004638672,-1.2,-2.49,-1.29,3.05
20.670270919799805,-1.42,-1.59,-0.63,2.22
20.680271863937378,-1.5,-0.45,-0.06,1.56
20.690378665924072,-1.37,0.5,0.21,1.47
20.700243949890137,-1.1,1.29,0.06,1.69
20.71376895904541,-0.88,1.84,-0.31,2.06
20.720175743103027,-0.61,2.04,-0.74,2.25
20.730247974395752,-0.46,1.97,-1.12,2.31
20.74028491973877,-0.33,1.61,-1.33,2.11
20.750309944152832,-0.29,0.92,-1.03,1.41
20.76453971862793,-0.2,0.25,-0.5,0.59
20.770158767700195,-0.12,-0.44,-0.26,0.52
20.780242919921875,-0.02,-1.14,-0.22,1.16
20.790387868881226,-0.02,-1.63,-0.13,1.63
20.800325870513916,-0.06,-2.0,0.08,2.0
20.81533193588257,-0.06,-2.15,0.17,2.15
20.820172786712646,-0.11,-2.27,0.22,2.28
20.830310821533203,-0.01,-2.4,0.26,2.41
20.840399742126465,0.0,-2.49,0.34,2.51
20.850372791290283,0.09,-2.57,0.41,2.6
20.865976810455322,0.19,-2.72,0.38,2.75
20.87014675140381,0.21,-2.82,0.39,2.85
20.88037085533142,0.26,-2.84,0.46,2.88
20.890456676483154,0.25,-2.77,0.55,2.83
20.900397777557373,0.13,-2.63,0.66,2.71
20.916616916656494,-0.04,-2.39,0.62,2.46
20.92018175125122,-0.19,-2.03,0.58,2.11
20.930392742156982,-0.38,-1.74,0.64,1.89
20.94041395187378,-0.46,-1.59,0.67,1.78
20.950289726257324,-0.5,-1.47,0.49,1.62
20.966710805892944,-0.53,-1.55,0.2,1.65
20.97021770477295,-0.58,-1.61,0.16,1.71
20.980387687683105,-0.71,-1.51,0.21,1.68
20.990343809127808,-0.8,-1.42,0.39,1.67
21.000308990478516,-0.85,-1.18,0.63,1.58
21.016759872436523,-1.01,-0.76,0.97,1.59
21.020119667053223,-1.09,-0.29,1.32,1.73
21.03035593032837,-1.14,0.26,1.46,1.87
21.040381908416748,-1.07,0.83,1.31,1.88
21.05028986930847,-0.94,1.48,1.08,2.05
21.067052841186523,-0.76,2.05,0.9,2.36
21.07018780708313,-0.54,2.35,0.49,2.46
21.08033585548401,-0.43,2.37,-0.06,2.4
21.090428829193115,-0.29,2.07,-0.08,2.09
21.100371837615967,-0.29,1.88,0.28,1.92
21.117273807525635,-0.38,2.0,0.82,2.19
21.12023687362671,-0.38,2.13,1.25,2.49
21.1303768157959,-0.27,2.47,1.27,2.79
21.14043378829956,-0.2,3.01,1.21,3.25
21.150392770767212,-0.04,3.72,1.07,3.87
21.16746187210083,0.07,4.18,0.67,4.23
21.170265674591064,0.21,4.1,-0.22,4.11
21.18037486076355,0.2,3.78,-1.36,4.02
21.190414905548096,0.28,3.16,-2.21,3.86
21.200340747833252,0.28,2.46,-2.32,3.39
21.21735191345215,0.31,2.0,-2.09,2.9
21.220308780670166,0.27,1.59,-1.97,2.54
21.230432987213135,0.42,0.88,-1.89,2.12
21.240455865859985,0.54,-0.07,-1.86,1.93
21.250407695770264,0.71,-0.97,-1.84,2.19
21.267629861831665,0.85,-1.59,-1.82,2.56
21.270245790481567,0.9,-1.81,-1.62,2.59
21.280428886413574,0.87,-1.69,-1.26,2.28
21.29042887687683,0.88,-1.23,-0.74,1.68
21.30036687850952,0.8,-0.51,-0.38,1.02
21.31728982925415,0.76,0.28,-0.35,0.88
21.320278882980347,0.78,0.78,-0.36,1.16
21.330389976501465,0.72,0.83,-0.56,1.23
21.340438842773438,0.68,0.74,-0.76,1.26
21.35044288635254,0.76,0.58,-0.9,1.31
21.36771583557129,0.71,0.36,-0.9,1.2
21.370234966278076,0.58,0.14,-0.72,0.93
21.380480766296387,0.41,-0.19,-0.55,0.71
21.390443801879883,0.2,-0.51,-0.4,0.67
21.400397777557373,0.02,-0.74,-0.26,0.78
21.41728377342224,-0.05,-1.07,-0.29,1.1
21.42027187347412,-0.23,-1.49,-0.36,1.55
21.430409908294678,-0.31,-1.77,-0.25,1.81
21.440486907958984,-0.29,-1.9,0.0,1.92
21.45045566558838,-0.22,-2.04,0.22,2.06
21.467528820037842,-0.22,-2.09,0.29,2.12
21.470306873321533,-0.16,-2.13,0.34,2.16
21.480438709259033,-0.11,-2.17,0.39,2.2
21.490471839904785,-0.05,-2.13,0.39,2.16
21.500428676605225,0.0,-2.1,0.49,2.15
21.518013954162598,0.11,-2.02,0.63,2.11
21.52022886276245,0.2,-1.89,0.72,2.03
21.53044891357422,0.24,-1.75,0.69,1.89
21.540486812591553,0.32,-1.64,0.62,1.78
21.55043888092041,0.31,-1.61,0.53,1.72
21.56724977493286,0.36,-1.61,0.42,1.7
21.57023787498474,0.38,-1.61,0.32,1.68
21.58051300048828,0.46,-1.69,0.2,1.76
21.59049892425537,0.54,-1.84,0.06,1.91
21.600425720214844,0.56,-2.0,0.0,2.07
21.617477893829346,0.6,-2.09,0.03,2.17
21.620300769805908,0.67,-2.13,0.11,2.23
21.630467891693115,0.64,-2.07,0.41,2.2
21.640480995178223,0.57,-1.7,0.93,2.01
21.650534868240356,0.44,-1.04,1.34,1.75
21.667343854904175,0.24,-0.32,1.46,1.51
21.6703097820282,0.07,0.44,1.41,1.47
21.680439949035645,-0.02,1.29,1.36,1.87
21.69055700302124,-0.05,2.24,1.22,2.55
21.70044994354248,0.0,2.97,1.01,3.13
21.717505931854248,0.16,3.4,0.74,3.48
21.720279693603516,0.18,3.49,0.64,3.55
21.730568885803223,0.37,3.51,0.77,3.61
21.74045991897583,0.41,3.46,1.2,3.68
21.75049066543579,0.46,3.34,1.64,3.74
21.767531871795654,0.47,3.23,1.96,3.8
21.770232677459717,0.41,3.42,1.95,3.95
21.780473709106445,0.34,3.93,1.81,4.34
21.790486812591553,0.09,4.37,1.55,4.63
21.80046796798706,-0.03,4.57,1.03,4.68
21.817383766174316,-0.18,4.34,0.3,4.35
21.82023000717163,-0.24,3.65,-0.62,3.71
21.830496788024902,-0.17,2.61,-1.61,3.07
21.840465784072876,-0.05,1.64,-2.28,2.8
21.850507736206055,-0.08,0.94,-2.56,2.72
21.86823081970215,-0.33,0.17,-2.64,2.66
21.870543956756592,-0.43,-0.55,-2.55,2.64
21.880523681640625,-0.47,-1.28,-2.36,2.72
21.890376806259155,-0.74,-1.94,-2.16,2.99
21.90048885345459,-0.84,-2.43,-1.83,3.15
21.91767978668213,-0.96,-2.65,-1.37,3.13
21.920315742492676,-1.24,-2.54,-0.92,2.97
21.93052887916565,-1.34,-2.01,-0.6,2.48
21.94029998779297,-1.49,-1.17,-0.36,1.92
21.950410842895508,-1.5,-0.31,-0.15,1.53
21.968023777008057,-1.26,0.53,-0.17,1.37
21.97032070159912,-1.0,1.01,-0.34,1.46
21.98053288459778,-0.71,1.06,-0.55,1.38
21.990583896636963,-0.37,1.01,-0.8,1.34
22.000569820404053,-0.18,0.78,-0.77,1.11
22.018053770065308,0.03,0.44,-0.52,0.68
22.020325660705566,0.07,-0.06,-0.25,0.26
22.03047800064087,0.2,-0.56,-0.11,0.6
22.040360927581787,0.25,-1.04,-0.01,1.06
22.050457000732422,0.33,-1.49,0.01,1.52
22.068304777145386,0.38,-1.86,0.07,1.89
22.070405960083008,0.44,-2.1,0.09,2.14
22.08053493499756,0.41,-2.28,0.09,2.31
22.09052085876465,0.38,-2.42,0.15,2.45
22.100564002990723,0.39,-2.5,0.23,2.54
22.117970943450928,0.38,-2.48,0.27,2.52
22.12049388885498,0.39,-2.47,0.43,2.53
22.130581855773926,0.36,-2.42,0.6,2.51
22.140455722808838,0.39,-2.38,0.69,2.5
22.15050983428955,0.29,-2.31,0.73,2.43
22.16830587387085,0.17,-2.19,0.76,2.32
22.170538902282715,0.1,-1.98,0.81,2.14
22.180624961853027,-0.01,-1.74,0.78,1.9
22.19041872024536,-0.18,-1.66,0.65,1.79
22.20054578781128,-0.26,-1.58,0.57,1.69
22.218166828155518,-0.28,-1.59,0.54,1.7
22.220630884170532,-0.44,-1.68,0.23,1.75
22.230616807937622,-0.55,-1.74,-0.15,1.83
22.240556716918945,-0.75,-1.63,-0.08,1.79
22.250531673431396,-1.0,-1.41,0.47,1.79
22.268775939941406,-1.1,-1.02,1.0,1.8
22.2705078125,-1.2,-0.58,1.38,1.91
22.280512809753418,-1.17,-0.1,1.56,1.95
22.290597915649414,-1.13,0.41,1.47,1.89
22.300564765930176,-1.02,1.0,1.26,1.9
22.3179349899292,-0.74,1.74,1.04,2.15
22.320584774017334,-0.65,2.24,0.81,2.46
22.33060383796692,-0.48,2.56,0.46,2.64
22.340444803237915,-0.35,2.56,0.2,2.59
22.350547790527344,-0.42,2.6,0.43,2.66
22.368496894836426,-0.54,2.93,0.79,3.08
22.370715856552124,-0.6,3.14,0.98,3.34
22.38067865371704,-0.52,3.38,0.99,3.56
22.390466690063477,-0.39,3.7,0.85,3.81
22.400596857070923,-0.22,4.21,0.51,4.24
22.418216705322266,-0.07,4.51,0.12,4.51
22.420731782913208,0.04,4.61,-0.61,4.65
22.430574893951416,0.09,4.31,-1.62,4.6
22.44066572189331,0.05,3.63,-2.51,4.41
22.45063066482544,0.12,2.85,-2.85,4.03
22.468608856201172,0.15,2.22,-2.84,3.6
22.470754861831665,0.35,1.65,-2.8,3.26
22.48065686225891,0.47,0.62,-2.54,2.65
22.49049472808838,0.77,-0.58,-2.38,2.56
22.500574827194214,0.99,-1.56,-2.36,2.99
22.518741846084595,1.07,-2.09,-2.02,3.09
22.520880699157715,1.12,-2.05,-1.43,2.73
22.530629873275757,1.04,-1.7,-0.8,2.14
22.540485858917236,1.08,-1.06,-0.42,1.57
22.550591945648193,0.95,-0.23,-0.19,0.99
22.56862187385559,0.9,0.48,-0.06,1.02
22.570982933044434,0.79,0.78,-0.19,1.12
22.580615997314453,0.58,0.85,-0.54,1.16
22.59061884880066,0.54,0.74,-0.73,1.17
22.600583791732788,0.48,0.45,-0.68,0.94
22.618810653686523,0.46,0.07,-0.48,0.66
22.621010780334473,0.39,-0.35,-0.18,0.55
22.63067078590393,0.3,-0.75,-0.06,0.81
22.640705823898315,0.26,-1.12,0.02,1.14
22.65056586265564,-0.03,-1.52,0.13,1.52
22.668859004974365,-0.05,-1.9,0.13,1.9
22.67095184326172,-0.04,-2.18,0.17,2.18
22.680699825286865,-0.13,-2.39,0.16,2.39
22.690611839294434,-0.05,-2.47,0.14,2.47
22.700634002685547,-0.01,-2.4,0.16,2.4
22.719318866729736,-0.07,-2.36,0.1,2.36
22.721038818359375,-0.12,-2.33,0.22,2.34
22.730645656585693,-0.09,-2.23,0.32,2.25
22.74053978919983,-0.22,-2.16,0.38,2.2
22.75061273574829,-0.22,-2.15,0.47,2.21
22.769376754760742,-0.09,-2.04,0.52,2.1
22.7711398601532,-0.15,-1.91,0.62,2.01
22.780680656433105,-0.04,-1.78,0.67,1.9
22.79065179824829,0.02,-1.66,0.67,1.79
22.800655841827393,0.05,-1.58,0.57,1.68
22.81914782524109,0.11,-1.56,0.42,1.61
22.820541858673096,0.17,-1.62,0.22,1.64
22.830703735351562,0.29,-1.73,0.09,1.75
22.840552806854248,0.44,-1.8,0.1,1.85
22.850668907165527,0.54,-1.75,0.21,1.84
22.869285821914673,0.64,-1.61,0.4,1.77
22.870402812957764,0.73,-1.23,0.72,1.6
22.88069987297058,0.73,-0.66,1.13,1.49
22.890578746795654,0.59,-0.09,1.26,1.39
22.9005868434906,0.59,0.48,1.2,1.42
22.919556856155396,0.43,1.11,1.09,1.61
22.920573711395264,0.33,1.8,0.9,2.03
22.930693864822388,0.36,2.43,0.66,2.54
22.94044280052185,0.35,2.92,0.48,2.97
22.95061683654785,0.42,3.21,0.43,3.26
22.969278812408447,0.36,3.26,0.49,3.31
22.9706130027771,0.38,3.21,0.89,3.35
22.980596780776978,0.38,3.25,1.44,3.57
22.990537881851196,0.29,3.39,1.74,3.82
23.000658988952637,0.27,3.5,1.8,3.94
23.019094944000244,0.25,3.73,1.63,4.07
23.020558834075928,0.17,3.98,1.3,4.19
23.03067684173584,-0.04,4.1,0.68,4.15
23.040520668029785,-0.06,3.99,-0.01,3.99
23.05063486099243,-0.1,3.45,-0.7,3.52
23.069528818130493,-0.13,2.42,-1.47,2.83
23.070623874664307,0.02,1.39,-2.27,2.66
23.08069896697998,-0.08,0.74,-2.69,2.79
23.09062671661377,-0.26,0.26,-2.61,2.63
23.10072898864746,-0.28,-0.06,-2.44,2.45
23.119155883789062,-0.45,-0.54,-2.25,2.35
23.12061595916748,-0.49,-1.11,-2.03,2.36
23.13076686859131,-0.73,-1.66,-1.81,2.56
23.140546798706055,-0.91,-2.11,-1.37,2.67
23.15070676803589,-1.0,-2.3,-0.75,2.61
23.16924476623535,-1.26,-1.89,-0.4,2.3
23.170564651489258,-1.36,-1.02,-0.1,1.7
23.18074679374695,-1.33,-0.07,0.06,1.33
23.190629959106445,-1.3,0.97,-0.16,1.62
23.200723886489868,-1.09,1.66,-0.65,2.08
23.219651699066162,-0.93,1.86,-1.22,2.41
23.220698833465576,-0.69,1.68,-1.39,2.28
23.230791807174683,-0.52,1.23,-1.04,1.69
23.24074077606201,-0.49,0.64,-0.76,1.1
23.25073480606079,-0.31,0.02,-0.53,0.61
23.269457817077637,-0.14,-0.68,-0.4,0.8
23.270652770996094,0.12,-1.4,-0.26,1.42
23.280893802642822,0.3,-1.88,0.01,1.9
23.290649890899658,0.41,-2.22,0.17,2.26
23.300712823867798,0.43,-2.42,0.21,2.46
23.319528818130493,0.4,-2.56,0.33,2.61
23.320695877075195,0.44,-2.7,0.26,2.74
23.33080291748047,0.24,-2.77,0.27,2.79
23.34070587158203,0.19,-2.72,0.21,2.73
23.35069179534912,0.17,-2.64,0.2,2.65
23.370009899139404,0.13,-2.49,0.2,2.5
23.370605945587158,0.19,-2.4,0.33,2.43
23.38075590133667,0.2,-2.28,0.41,2.32
23.3905827999115,0.2,-2.15,0.48,2.21
23.4006667137146,0.12,-2.03,0.59,2.11
23.41983985900879,-0.01,-1.89,0.75,2.03
23.420554876327515,-0.15,-1.7,0.78,1.87
23.430686950683594,-0.23,-1.59,0.75,1.77
23.44059181213379,-0.33,-1.5,0.61,1.65
23.45059871673584,-0.45,-1.47,0.43,1.59
23.469809770584106,-0.51,-1.53,0.39,1.65
23.470499992370605,-0.67,-1.51,0.43,1.7
23.484763860702515,-0.9,-1.41,0.61,1.78
23.490423679351807,-1.05,-1.21,0.86,1.81
23.500656843185425,-1.27,-0.96,1.04,1.9
23.51749897003174,-1.23,-0.56,1.13,1.76
23.520511865615845,-1.13,-0.02,1.21,1.65
23.53069496154785,-0.98,0.57,1.19,1.64
23.54056692123413,-0.75,1.24,1.05,1.78
23.550633907318115,-0.59,1.76,0.81,2.02
23.567255973815918,-0.48,2.25,0.68,2.39
23.570475816726685,-0.39,2.52,0.49,2.59
23.58071279525757,-0.32,2.7,0.63,2.79
23.590564727783203,-0.35,2.94,1.03,3.13
23.600769996643066,-0.49,3.1,1.12,3.33
23.618265867233276,-0.59,3.15,1.29,3.45
23.620558738708496,-0.49,3.23,1.39,3.55
23.63071084022522,-0.29,3.5,1.23,3.72
23.640636920928955,-0.01,3.92,0.91,4.02
23.65075182914734,0.07,4.19,0.38,4.2
23.66899871826172,0.18,4.28,-0.35,4.29
23.670565843582153,0.17,3.9,-1.43,4.15
23.680705785751343,0.27,3.05,-2.34,3.85
23.690685749053955,0.34,2.34,-2.71,3.59
23.700690746307373,0.21,1.82,-2.71,3.27
23.719408988952637,0.2,1.22,-2.7,2.96
23.720563888549805,0.39,0.42,-2.5,2.56
23.73077082633972,0.51,-0.38,-2.14,2.23
23.740627765655518,0.61,-1.14,-1.76,2.18
23.75075888633728,0.86,-1.68,-1.51,2.41
23.769494771957397,0.91,-1.79,-1.17,2.32
23.77052879333496,1.0,-1.44,-0.75,1.9
23.780773878097534,0.98,-0.71,-0.53,1.32
23.790804862976074,0.9,0.15,-0.34,0.97
23.800736904144287,0.78,0.73,-0.38,1.13
23.81981372833252,0.63,0.95,-0.62,1.29
23.820538997650146,0.59,1.01,-0.86,1.45
23.830927848815918,0.51,0.91,-1.0,1.44
23.840685844421387,0.43,0.48,-0.88,1.09
23.850785732269287,0.39,-0.09,-0.57,0.69
23.870202779769897,0.31,-0.66,-0.28,0.78
23.870567798614502,0.14,-1.19,-0.14,1.2
23.88489079475403,-0.03,-1.68,-0.03,1.68
23.89059591293335,-0.11,-2.06,0.15,2.06
23.900678873062134,-0.21,-2.3,0.25,2.32
23.916653871536255,-0.21,-2.53,0.16,2.54
23.920679807662964,-0.29,-2.68,0.0,2.69
23.930721759796143,-0.27,-2.76,0.06,2.77
23.94049382209778,-0.14,-2.67,0.17,2.67
23.950676918029785,-0.25,-2.61,0.32,2.64
23.967459678649902,-0.22,-2.46,0.49,2.51
23.97068977355957,-0.21,-2.38,0.47,2.43
23.980803966522217,-0.22,-2.38,0.43,2.42
23.990567684173584,-0.18,-2.31,0.45,2.36
24.00074291229248,-0.13,-2.15,0.47,2.2
24.018150806427002,0.0,-1.89,0.58,1.97
24.02067470550537,0.11,-1.69,0.64,1.81
24.030824661254883,0.17,-1.51,0.57,1.62
24.040589809417725,0.3,-1.27,0.56,1.42
24.050809860229492,0.42,-1.12,0.43,1.27
24.068999767303467,0.48,-1.11,0.22,1.22
24.070602893829346,0.61,-1.09,-0.06,1.25
24.080789804458618,0.72,-1.1,-0.11,1.31
24.09064292907715,0.85,-1.02,0.1,1.33
24.100741863250732,0.91,-0.87,0.38,1.31
24.119386672973633,0.95,-0.71,0.76,1.4
24.120612859725952,0.9,-0.4,0.98,1.38
24.130862712860107,0.8,0.0,0.96,1.24
24.140581846237183,0.68,0.5,0.86,1.2
24.150802850723267,0.47,1.05,0.78,1.38
24.169405937194824,0.4,1.55,0.72,1.75
24.170585870742798,0.35,2.1,0.66,2.22
24.18082094192505,0.28,2.6,0.62,2.68
24.202285766601562,0.22,2.93,0.62,3.0
24.20372986793518,0.06,2.92,0.65,2.99
24.21663999557495,0.14,2.99,0.7,3.07
24.220672845840454,0.11,3.01,1.23,3.25
24.23082184791565,0.21,3.22,1.66,3.62
24.25019598007202,0.25,3.4,1.78,3.84
24.251413822174072,0.19,3.67,1.54,3.98
24.26579999923706,0.08,4.11,1.06,4.24
24.270630836486816,-0.19,4.32,0.4,4.34
24.28076481819153,-0.32,4.02,-0.49,4.06
24.29916286468506,-0.31,3.1,-1.46,3.44
24.300575733184814,-0.31,2.07,-2.16,3.0
24.314993858337402,-0.27,1.5,-2.56,2.97
24.320613861083984,-0.32,1.05,-2.76,2.97
24.330790996551514,-0.5,0.38,-2.58,2.65
24.340569972991943,-0.53,-0.4,-2.31,2.4
24.350711822509766,-0.68,-1.12,-2.02,2.4
24.365729808807373,-0.86,-1.69,-1.57,2.46
24.37062168121338,-1.04,-2.03,-0.98,2.48
24.380791664123535,-1.17,-2.01,-0.49,2.37
24.39066171646118,-1.39,-1.49,-0.16,2.04
24.40077495574951,-1.48,-0.66,0.01,1.62
24.416475772857666,-1.5,0.17,-0.12,1.51
24.42066478729248,-1.43,0.8,-0.52,1.71
24.430840969085693,-1.04,1.14,-1.04,1.86
24.440663814544678,-0.52,1.28,-1.4,1.96
24.450783729553223,-0.2,1.2,-1.44,1.88
24.46748685836792,0.12,0.96,-1.13,1.48
24.47075366973877,0.4,0.55,-0.62,0.92
24.48086166381836,0.49,-0.09,-0.32,0.59
24.490647792816162,0.5,-0.85,-0.18,1.0
24.50081968307495,0.56,-1.47,-0.06,1.57
24.51823377609253,0.44,-1.94,0.05,1.98
24.520654678344727,0.34,-2.2,0.12,2.22
24.53091287612915,0.28,-2.39,0.18,2.41
24.540661811828613,0.13,-2.54,0.18,2.54
24.55090093612671,0.07,-2.58,0.2,2.58
24.569058895111084,0.04,-2.47,0.21,2.47
24.57066297531128,-0.01,-2.38,0.26,2.39
24.5808048248291,-0.01,-2.3,0.33,2.32
24.590641975402832,-0.01,-2.2,0.44,2.24
24.600914001464844,-0.02,-2.08,0.49,2.13
24.620059967041016,-0.07,-1.93,0.55,2.0
24.6207058429718,-0.14,-1.77,0.67,1.89
24.630961894989014,-0.21,-1.63,0.69,1.78
24.640767812728882,-0.33,-1.56,0.65,1.72
24.65087580680847,-0.44,-1.56,0.67,1.75
24.670055866241455,-0.5,-1.54,0.59,1.72
24.670674800872803,-0.55,-1.55,0.42,1.69
24.680877685546875,-0.55,-1.61,0.39,1.74
24.690796852111816,-0.54,-1.67,0.43,1.8
24.70097780227661,-0.57,-1.69,0.58,1.87
24.720865726470947,-0.66,-1.62,0.95,1.99
24.72122883796692,-0.81,-1.35,1.27,2.02
24.730884790420532,-0.94,-0.98,1.33,1.9
24.74085783958435,-0.98,-0.5,1.24,1.65
24.750868797302246,-0.86,0.12,1.26,1.53
24.770867824554443,-0.7,0.8,1.15,1.56
24.771227836608887,-0.66,1.44,0.75,1.75
24.780961990356445,-0.35,2.15,0.47,2.22
24.79082679748535,-0.29,2.52,0.5,2.58
24.800915718078613,-0.21,2.59,0.67,2.68
24.820945739746094,-0.07,2.51,0.97,2.69
24.821290969848633,0.04,2.54,1.51,2.95
24.830974817276,-0.05,2.5,1.74,3.04
24.85422992706299,-0.11,2.43,1.55,2.88
24.855783939361572,0.02,2.55,1.19,2.81
24.86787986755371,0.01,2.92,0.86,3.04
24.870666980743408,0.07,3.55,0.69,3.61
24.88086986541748,0.13,4.07,0.24,4.07
24.89068078994751,-0.05,4.06,-0.4,4.07
24.90084171295166,-0.02,3.51,-1.21,3.71
24.91841173171997,0.03,2.66,-1.97,3.31
24.92081379890442,0.12,1.82,-2.29,2.92
24.93099069595337,-0.01,1.25,-2.33,2.64
24.940701961517334,-0.22,0.87,-2.42,2.58
24.950867652893066,-0.14,0.34,-2.37,2.39
24.9695827960968,-0.01,-0.21,-1.92,1.93
24.970845699310303,0.24,-0.73,-1.67,1.83
24.98085379600525,0.49,-1.33,-1.57,2.11
24.99073886871338,0.91,-1.77,-1.18,2.31
25.001041889190674,1.16,-1.73,-0.71,2.2
25.020229816436768,1.22,-1.14,-0.47,1.73
25.020739793777466,1.25,-0.38,-0.32,1.34
25.030951976776123,1.26,0.32,-0.27,1.32
25.04070472717285,1.03,0.82,-0.42,1.38
25.051058769226074,0.8,1.09,-0.65,1.5
25.0707106590271,0.61,1.08,-0.89,1.52
25.07106876373291,0.44,0.9,-0.93,1.36
25.080957889556885,0.32,0.62,-0.66,0.96
25.09080171585083,0.24,0.28,-0.34,0.5
25.101030826568604,0.1,-0.24,-0.15,0.3
25.120763778686523,-0.05,-0.76,-0.01,0.76
25.121135711669922,-0.09,-1.17,0.09,1.17
25.13099193572998,-0.22,-1.64,0.21,1.66
25.140872955322266,-0.24,-2.09,0.26,2.11
25.151038885116577,-0.24,-2.39,0.27,2.41
25.170663833618164,-0.17,-2.6,0.32,2.62
25.17103385925293,-0.18,-2.68,0.36,2.71
25.181021690368652,-0.11,-2.65,0.26,2.66
25.190791845321655,0.0,-2.53,0.2,2.53
25.201030731201172,-0.06,-2.41,0.29,2.42
25.221295833587646,-0.11,-2.24,0.38,2.27
25.221657752990723,-0.17,-2.09,0.5,2.15
25.230992794036865,-0.1,-2.01,0.57,2.09
25.240933895111084,-0.05,-1.91,0.59,1.99
25.251048803329468,0.05,-1.8,0.56,1.88
25.27080488204956,0.19,-1.74,0.46,1.8
25.271166801452637,0.36,-1.73,0.29,1.79
25.2809739112854,0.46,-1.71,0.15,1.77
25.29086184501648,0.51,-1.66,-0.02,1.73
25.300980806350708,0.61,-1.5,-0.06,1.62
25.321258783340454,0.69,-1.41,0.14,1.57
25.32161283493042,0.71,-1.4,0.46,1.63
25.33098793029785,0.79,-1.24,0.78,1.66
25.340959787368774,0.79,-0.93,1.03,1.59
25.351041793823242,0.64,-0.49,1.09,1.35
25.371784687042236,0.48,0.07,1.07,1.17
25.37213683128357,0.35,0.66,1.08,1.31
25.381000995635986,0.3,1.37,0.96,1.69
25.391093730926514,0.2,2.17,0.85,2.33
25.401009798049927,0.25,2.67,0.69,2.76
25.42185688018799,0.21,2.99,0.6,3.05
25.42221188545227,0.35,3.1,0.84,3.23
25.43094778060913,0.39,3.23,1.27,3.49
25.44158387184143,0.32,3.52,1.52,3.84
25.45108699798584,0.38,3.65,1.5,3.96
25.471972942352295,0.4,3.75,1.36,4.0
25.472327709197998,0.22,4.16,1.15,4.32
25.480954885482788,-0.12,4.48,0.7,4.53
25.50487780570984,-0.29,4.13,-0.11,4.14
25.50629997253418,-0.33,3.27,-1.01,3.43
25.518881797790527,-0.37,2.18,-1.82,2.86
25.520854949951172,-0.38,1.51,-2.4,2.86
25.53461265563965,-0.47,1.04,-2.73,2.95
25.54116678237915,-0.44,0.49,-2.67,2.75
25.55089783668518,-0.37,0.03,-2.67,2.69
25.56777787208557,-0.38,-0.61,-2.48,2.58
25.570860862731934,-0.51,-1.29,-2.02,2.45
25.580872774124146,-0.52,-1.65,-1.43,2.24
25.591181755065918,-0.83,-1.71,-0.81,2.06
25.600937843322754,-1.05,-1.41,-0.54,1.83
25.618782997131348,-1.49,-0.7,-0.47,1.71
25.62076997756958,-1.98,0.31,-0.68,2.11
25.631011962890625,-1.94,1.34,-1.18,2.63
25.64129400253296,-1.45,1.84,-1.01,2.55
25.651039838790894,-0.97,2.17,-1.29,2.7
25.669472694396973,-0.55,1.92,-1.58,2.54
25.670933723449707,0.03,1.43,-1.35,1.96
25.685613870620728,0.32,0.86,-0.85,1.25
25.69172191619873,0.53,0.32,-0.48,0.78
25.70107078552246,0.54,-0.36,-0.22,0.68
25.718535900115967,0.39,-1.06,-0.02,1.12
25.720863819122314,0.3,-1.51,0.02,1.53
25.730941772460938,0.14,-1.84,0.15,1.85
25.752116680145264,0.09,-1.96,0.12,1.96
25.753349781036377,0.16,-2.05,0.19,2.06
25.767850875854492,0.07,-2.16,0.26,2.17
25.770853996276855,0.13,-2.24,0.31,2.26
25.780972003936768,0.15,-2.31,0.27,2.33
25.791273832321167,0.12,-2.31,0.19,2.32
25.801028728485107,0.08,-2.37,0.31,2.39
25.81864285469055,-0.01,-2.33,0.28,2.34
25.820798873901367,-0.11,-2.3,0.4,2.33
25.831034660339355,-0.22,-2.29,0.53,2.36
25.84095573425293,-0.25,-2.15,0.55,2.23
25.853219985961914,-0.33,-1.96,0.64,2.08
25.860951900482178,-0.51,-1.78,0.74,1.99
25.87101984024048,-0.6,-1.65,0.66,1.87
25.88099765777588,-0.69,-1.52,0.47,1.73
25.891013860702515,-0.7,-1.51,0.39,1.7
25.90433692932129,-0.72,-1.57,0.31,1.75
25.918831825256348,-0.71,-1.66,0.32,1.83
25.920779705047607,-0.68,-1.67,0.34,1.83
25.931054830551147,-0.76,-1.54,0.55,1.8
25.940908908843994,-0.89,-1.23,0.75,1.69
25.952500820159912,-0.97,-0.89,0.84,1.56
25.96160888671875,-1.0,-0.46,0.86,1.39
25.971017837524414,-0.96,0.0,0.85,1.28
25.985322952270508,-0.85,0.57,0.77,1.28
25.990975856781006,-0.76,1.25,0.52,1.55
26.001917839050293,-0.67,1.85,0.32,1.99
26.010835886001587,-0.53,2.21,0.24,2.28
26.02101469039917,-0.39,2.31,0.27,2.35
26.0309476852417,-0.35,2.29,0.71,2.42
26.041014671325684,-0.28,2.38,1.27,2.71
26.0524959564209,-0.31,2.55,1.55,3.0
26.0609028339386,-0.45,2.81,1.61,3.26
26.071054935455322,-0.27,3.26,1.41,3.56
26.080979824066162,0.05,3.84,1.11,3.99
26.09107279777527,0.06,4.38,0.76,4.44
26.103740692138672,0.27,4.67,0.16,4.68
26.110901832580566,0.32,4.62,-0.63,4.67
26.12102174758911,0.29,4.14,-1.23,4.32
26.13637399673462,0.36,3.24,-1.64,3.64
26.140955924987793,0.4,2.5,-1.82,3.11
26.152480840682983,0.27,1.96,-1.85,2.7
26.160905838012695,0.2,1.33,-1.81,2.25
26.17099094390869,0.27,0.63,-1.87,1.99
26.18100070953369,0.37,-0.17,-1.77,1.81
26.191049814224243,0.57,-0.98,-1.53,1.9
26.203091859817505,0.72,-1.73,-1.4,2.33
26.21088695526123,0.82,-2.28,-1.36,2.77
26.221094846725464,0.88,-2.55,-1.12,2.92
26.231047868728638,1.01,-2.38,-0.74,2.68
26.24104380607605,0.95,-1.88,-0.55,2.17
26.253920793533325,1.05,-1.2,-0.57,1.69
26.26088786125183,0.97,-0.68,-0.6,1.32
26.27101182937622,0.9,-0.38,-0.69,1.19
26.281068801879883,0.79,-0.18,-0.76,1.11
26.291121006011963,0.66,0.02,-0.75,0.99
26.30475378036499,0.59,0.09,-0.66,0.88
26.311067819595337,0.56,0.09,-0.52,0.76
26.321078777313232,0.5,-0.07,-0.38,0.63
26.33115291595459,0.38,-0.31,-0.37,0.61
26.341166973114014,0.26,-0.6,-0.34,0.73
26.355722904205322,0.17,-0.92,-0.28,0.97
26.3609938621521,0.05,-1.25,-0.13,1.25
26.37101984024048,0.05,-1.54,0.05,1.54
26.381093978881836,0.0,-1.89,0.03,1.89
26.3911190032959,-0.07,-2.14,-0.11,2.14
26.405842781066895,-0.05,-2.26,0.09,2.26
26.411004781723022,-0.12,-2.3,0.25,2.31
26.42108988761902,-0.16,-2.22,0.33,2.25
26.431169986724854,-0.13,-2.17,0.47,2.22
26.441154956817627,-0.08,-2.15,0.52,2.21
26.456156730651855,-0.01,-2.08,0.6,2.16
26.460970878601074,0.04,-1.98,0.69,2.09
26.471101760864258,0.09,-1.77,0.76,1.92
26.481180667877197,0.27,-1.5,0.76,1.7
26.491134881973267,0.29,-1.34,0.71,1.54
26.50655484199524,0.48,-1.16,0.67,1.42
26.51098871231079,0.54,-1.01,0.52,1.25
26.52111291885376,0.6,-1.12,0.35,1.31
26.531254768371582,0.75,-1.33,0.24,1.54
26.541139841079712,0.62,-1.66,0.1,1.77
26.556384801864624,0.49,-1.8,0.15,1.87
26.56120491027832,0.51,-1.77,0.49,1.9
26.571106910705566,0.56,-1.59,0.79,1.86
26.581235885620117,0.55,-1.12,1.16,1.7
26.591171741485596,0.49,-0.51,1.36,1.53
26.606493949890137,0.56,0.12,1.22,1.34
26.611060857772827,0.47,0.89,0.97,1.39
26.62110471725464,0.25,1.72,0.82,1.92
26.631200790405273,0.27,2.49,0.71,2.6
26.64114785194397,0.23,3.08,0.63,3.15
26.656508922576904,0.26,3.43,0.63,3.49
26.66105580329895,0.44,3.53,0.94,3.67
26.671137809753418,0.37,3.3,1.38,3.59
26.681169986724854,0.48,3.08,1.74,3.56
26.691210746765137,0.54,3.18,1.97,3.77
26.707014799118042,0.52,3.58,1.82,4.04
26.710972785949707,0.26,4.06,1.4,4.3
26.72111487388611,0.05,4.7,0.9,4.78
26.73122477531433,-0.22,5.11,0.16,5.11
26.741135835647583,-0.26,4.63,-0.81,4.7
26.75613498687744,-0.32,3.64,-1.6,3.98
26.76114273071289,-0.27,2.45,-2.12,3.25
26.77121877670288,-0.23,1.6,-2.32,2.82
26.781219959259033,-0.32,0.91,-2.49,2.67
26.791159868240356,-0.38,0.05,-2.52,2.54
26.806301832199097,-0.31,-0.74,-2.35,2.48
26.81101679801941,-0.35,-1.46,-1.95,2.46
26.82114577293396,-0.44,-2.08,-1.67,2.7
26.831256866455078,-0.72,-2.51,-1.32,2.92
26.841157913208008,-1.03,-2.55,-0.8,2.86
26.85670280456543,-1.29,-2.04,-0.42,2.44
26.861002922058105,-1.51,-1.07,-0.41,1.89
26.871155738830566,-1.59,0.05,-0.62,1.7
26.881240844726562,-1.48,0.99,-0.98,2.03
26.891271829605103,-1.24,1.62,-1.31,2.42
26.90737295150757,-0.81,1.89,-1.58,2.59
26.921602725982666,-0.46,1.86,-1.52,2.44
26.921921730041504,-0.14,1.49,-1.19,1.91
26.93118190765381,0.11,0.91,-0.8,1.21
26.941115856170654,0.2,0.18,-0.44,0.51
26.95392894744873,0.29,-0.61,-0.23,0.71
26.96099090576172,0.34,-1.39,-0.07,1.43
26.97107982635498,0.34,-1.96,0.07,1.99
26.9812068939209,0.32,-2.3,0.22,2.33
26.991172790527344,0.32,-2.53,0.34,2.57
27.00483798980713,0.22,-2.69,0.38,2.72
27.011098861694336,0.23,-2.71,0.42,2.75
27.02118182182312,0.17,-2.61,0.35,2.63
27.031247854232788,0.23,-2.43,0.23,2.45
27.041179656982422,0.18,-2.21,0.16,2.22
27.055219650268555,0.1,-2.03,0.17,2.03
27.061208724975586,0.08,-1.91,0.3,1.93
27.07120370864868,0.07,-1.88,0.36,1.91
27.081278800964355,0.06,-1.89,0.41,1.93
27.091245651245117,0.0,-1.91,0.52,1.97
27.106170654296875,-0.13,-1.88,0.59,1.97
27.11112689971924,-0.25,-1.87,0.57,1.97
27.121177673339844,-0.36,-1.81,0.46,1.9
27.131289958953857,-0.47,-1.68,0.57,1.83
27.14126491546631,-0.49,-1.56,0.59,1.73
27.15684986114502,-0.54,-1.56,0.26,1.67
27.16126775741577,-0.68,-1.52,0.11,1.66
27.17121982574463,-0.79,-1.44,0.37,1.68
27.181334972381592,-0.92,-1.26,0.7,1.7
27.191251754760742,-1.03,-1.07,1.08,1.83
27.2063889503479,-1.06,-0.79,1.29,1.84
27.211127758026123,-1.0,-0.45,1.14,1.58
27.22157096862793,-0.83,-0.02,0.93,1.24
27.23134994506836,-0.62,0.58,0.78,1.15
27.241321802139282,-0.51,1.24,0.64,1.48
27.25761079788208,-0.36,2.02,0.6,2.13
27.261119842529297,-0.42,2.45,0.7,2.58
27.27127480506897,-0.5,2.52,0.63,2.64
27.281388759613037,-0.62,2.39,0.93,2.63
27.291254997253418,-0.66,2.43,1.46,2.91
27.307410717010498,-0.67,2.56,1.57,3.07
27.311155796051025,-0.73,2.65,1.43,3.09
27.321311950683594,-0.54,2.83,1.15,3.1
27.33128595352173,-0.28,3.19,0.93,3.33
27.341290950775146,-0.05,3.66,0.65,3.71
27.35777473449707,0.13,4.01,0.16,4.01
27.361072778701782,0.15,4.26,-0.31,4.27
27.371331691741943,0.1,4.22,-0.79,4.29
27.381396770477295,0.08,3.64,-1.5,3.93
27.39125680923462,0.14,2.73,-2.24,3.53
27.407947778701782,0.05,2.03,-2.58,3.28
27.411115884780884,0.04,1.42,-2.51,2.88
27.42131280899048,0.21,0.57,-2.52,2.59
27.43143892288208,0.47,-0.71,-2.49,2.63
27.441311836242676,0.75,-1.85,-2.34,3.07
27.457682847976685,0.95,-2.56,-1.92,3.33
27.461201667785645,1.0,-2.89,-1.4,3.36
27.471935749053955,0.98,-2.85,-0.95,3.15
27.48139476776123,0.87,-2.26,-0.55,2.48
27.491302967071533,0.61,-1.32,-0.26,1.47
27.50779676437378,0.36,-0.41,-0.15,0.56
27.51115584373474,0.25,0.35,-0.3,0.52
27.52139186859131,0.14,0.98,-0.74,1.23
27.531328678131104,0.13,1.49,-1.02,1.81
27.541326999664307,0.1,1.61,-1.15,1.98
27.558060884475708,0.13,1.39,-1.06,1.75
27.561121940612793,0.15,0.88,-0.79,1.19
27.571313858032227,0.13,0.33,-0.49,0.6
27.581451892852783,0.1,-0.2,-0.19,0.29
27.59131669998169,0.08,-0.76,0.09,0.76
27.6072039604187,0.07,-1.29,0.24,1.31
27.611137866973877,0.07,-1.71,0.22,1.72
27.621327877044678,0.1,-2.01,0.25,2.02
27.631385803222656,0.14,-2.2,0.32,2.22
27.641348838806152,0.17,-2.34,0.31,2.36
27.657434940338135,0.07,-2.34,0.21,2.35
27.6611967086792,0.04,-2.21,0.1,2.21
27.671244859695435,0.04,-2.07,0.17,2.07
27.681396961212158,-0.16,-1.92,0.24,1.94
27.691367864608765,-0.25,-1.89,0.36,1.94
27.706942796707153,-0.22,-1.87,0.43,1.93
27.71131181716919,-0.21,-1.81,0.49,1.88
27.721336841583252,-0.14,-1.76,0.51,1.83
27.73135280609131,-0.07,-1.68,0.53,1.76
27.7413649559021,-0.04,-1.6,0.51,1.67
27.75717782974243,0.04,-1.52,0.39,1.56
27.761207818984985,0.13,-1.51,0.23,1.53
27.771307945251465,0.16,-1.55,0.13,1.56
27.781420707702637,0.21,-1.64,0.03,1.65
27.791414737701416,0.31,-1.78,0.0,1.8
27.807015895843506,0.4,-1.81,0.1,1.85
27.811120986938477,0.43,-1.75,0.35,1.83
27.821383953094482,0.44,-1.53,0.77,1.76
27.831416845321655,0.38,-1.07,1.28,1.71
27.84139084815979,0.32,-0.46,1.6,1.69
27.857414722442627,0.26,0.12,1.56,1.58
27.86121678352356,0.22,0.78,1.23,1.47
27.87128186225891,0.17,1.49,0.82,1.7
27.88139295578003,0.1,2.25,0.59,2.32
27.89133381843567,0.14,2.78,0.7,2.87
27.907468795776367,0.21,3.1,0.76,3.19
27.911227703094482,0.18,3.01,0.66,3.08
27.92131471633911,0.26,2.75,0.78,2.87
27.931375980377197,0.27,2.58,1.2,2.85
27.94129180908203,0.27,2.56,1.6,3.03
27.95751667022705,0.25,2.74,1.82,3.29
27.961145877838135,0.15,3.19,1.9,3.71
27.971340656280518,0.08,3.83,1.7,4.19
27.981355667114258,0.03,4.25,1.11,4.39
27.99137592315674,0.01,4.41,0.32,4.42
28.00747585296631,0.06,4.13,-0.68,4.18
28.011130809783936,0.05,3.29,-1.53,3.62
28.02127981185913,0.01,2.24,-2.05,3.03
28.03147268295288,-0.15,1.58,-2.38,2.86
28.041409969329834,-0.25,1.16,-2.62,2.87
28.05767297744751,-0.45,0.42,-2.59,2.66
28.061288833618164,-0.73,-0.49,-2.36,2.51
28.071310997009277,-0.94,-1.24,-2.18,2.67
28.08146095275879,-1.1,-1.72,-1.98,2.84
28.091429710388184,-1.21,-1.99,-1.63,2.84
28.10762071609497,-1.32,-1.96,-1.19,2.64
28.111167907714844,-1.3,-1.38,-0.71,2.02
28.121338844299316,-1.33,-0.52,-0.44,1.49
28.131507873535156,-1.3,0.29,-0.39,1.38
28.14138889312744,-0.99,0.91,-0.63,1.48
28.15797996520996,-0.84,1.13,-0.91,1.67
28.161250829696655,-0.51,1.1,-1.14,1.66
28.17147397994995,-0.15,0.97,-1.0,1.4
28.181437969207764,0.11,0.72,-0.7,1.01
28.191446781158447,0.32,0.35,-0.41,0.62
28.208199977874756,0.36,-0.28,-0.38,0.59
28.21127676963806,0.48,-0.96,-0.32,1.11
28.221460819244385,0.49,-1.49,-0.17,1.57
28.23145866394043,0.47,-1.85,-0.1,1.91
28.24143886566162,0.5,-2.14,0.05,2.19
28.258460998535156,0.41,-2.37,0.13,2.4
28.261419773101807,0.4,-2.54,0.17,2.57
28.271422863006592,0.39,-2.57,0.11,2.6
28.281493663787842,0.32,-2.64,0.14,2.66
28.291454792022705,0.25,-2.55,0.24,2.57
28.308730840682983,0.27,-2.4,0.31,2.43
28.311285972595215,0.24,-2.33,0.35,2.36
28.321485996246338,0.23,-2.24,0.44,2.29
28.33140778541565,0.21,-2.17,0.53,2.24
28.341453790664673,0.21,-2.02,0.57,2.1
28.358829975128174,0.12,-1.85,0.63,1.95
28.361312866210938,-0.03,-1.66,0.71,1.8
28.371484756469727,-0.13,-1.46,0.71,1.62
28.381494998931885,-0.28,-1.29,0.56,1.43
28.391432762145996,-0.37,-1.2,0.38,1.31
28.40915298461914,-0.38,-1.14,0.24,1.22
28.41122579574585,-0.46,-1.19,0.23,1.29
28.421531677246094,-0.49,-1.32,0.27,1.43
28.431428909301758,-0.56,-1.35,0.44,1.52
28.441540718078613,-0.72,-1.3,0.74,1.66
28.459173679351807,-0.86,-1.08,1.05,1.73
28.461259841918945,-0.91,-0.63,1.33,1.73
28.47155475616455,-0.94,-0.05,1.4,1.68
28.481417655944824,-0.89,0.5,1.27,1.62
28.49147891998291,-0.84,1.11,0.98,1.7
28.509219884872437,-0.73,1.8,0.76,2.08
28.51121473312378,-0.6,2.32,0.51,2.44
28.521591663360596,-0.51,2.57,0.3,2.63
28.53146266937256,-0.38,2.57,0.42,2.63
28.541501998901367,-0.34,2.31,0.67,2.42
28.55916166305542,-0.35,2.27,0.94,2.48
28.56128478050232,-0.39,2.53,1.33,2.88
28.57152485847473,-0.45,2.73,1.64,3.21
28.58147883415222,-0.25,3.09,1.48,3.43
28.591477870941162,-0.17,3.62,1.38,3.87
28.609335899353027,-0.01,4.13,1.0,4.24
28.61145281791687,0.01,4.26,0.37,4.27
28.621525764465332,0.17,4.11,-0.22,4.11
28.631457805633545,0.23,3.88,-0.73,3.95
28.641608715057373,0.26,3.27,-1.54,3.62
28.659432888031006,0.22,2.44,-2.25,3.32
28.661245822906494,0.22,1.88,-2.47,3.11
28.671506881713867,0.03,1.42,-2.64,2.99
28.68153190612793,0.29,0.64,-2.6,2.69
28.691468715667725,0.47,-0.38,-2.29,2.36
28.70928192138672,0.6,-1.42,-2.11,2.61
28.711442947387695,0.7,-2.2,-1.95,3.02
28.721609830856323,0.86,-2.64,-1.58,3.19
28.731427669525146,0.97,-2.65,-1.1,3.02
28.74155282974243,1.0,-2.1,-0.61,2.4
28.759256839752197,0.95,-1.26,-0.41,1.63
28.761497974395752,0.91,-0.43,-0.28,1.04
28.771548748016357,0.83,0.15,-0.27,0.88
28.78153681755066,0.74,0.45,-0.41,0.95
28.79155397415161,0.79,0.63,-0.68,1.21
28.809332847595215,0.74,0.59,-0.84,1.26
28.81174087524414,0.79,0.41,-0.87,1.24
28.82157278060913,0.79,0.2,-0.65,1.04
28.83156180381775,0.73,-0.08,-0.33,0.8
28.841564655303955,0.55,-0.5,-0.13,0.75
28.85941791534424,0.38,-1.02,-0.11,1.09
28.861580848693848,0.22,-1.55,-0.08,1.56
28.871574878692627,0.11,-1.92,-0.1,1.92
28.881613731384277,-0.11,-2.21,-0.03,2.21
28.891438961029053,-0.11,-2.36,0.09,2.36
28.90970468521118,-0.13,-2.37,0.24,2.38
28.911717891693115,-0.19,-2.25,0.3,2.27
28.921605825424194,-0.29,-2.19,0.3,2.22
28.931631803512573,-0.3,-2.04,0.39,2.09
28.941550731658936,-0.28,-1.89,0.35,1.94
28.960195779800415,-0.38,-1.84,0.36,1.91
28.961943864822388,-0.29,-1.73,0.52,1.82
28.97158670425415,-0.31,-1.63,0.67,1.78
28.981607913970947,-0.18,-1.48,0.83,1.7
28.99152374267578,-0.11,-1.39,0.85,1.63
29.00904083251953,0.02,-1.35,0.73,1.53
29.011701822280884,0.16,-1.33,0.55,1.44
29.02161169052124,0.28,-1.33,0.42,1.42
29.031630992889404,0.44,-1.35,0.29,1.44
29.04161286354065,0.61,-1.42,0.05,1.54
29.05929183959961,0.67,-1.46,-0.27,1.62
29.061794757843018,0.77,-1.39,-0.29,1.61
29.07154369354248,0.82,-1.23,0.07,1.47
29.081495761871338,0.84,-0.93,0.52,1.35
29.091558933258057,0.83,-0.57,0.91,1.35
29.109184741973877,0.73,-0.19,1.13,1.35
29.111812829971313,0.69,0.24,1.2,1.4
29.1216459274292,0.59,0.72,1.08,1.42
29.13163185119629,0.55,1.31,0.79,1.62
29.141584873199463,0.51,1.83,0.47,1.95
29.15967893600464,0.45,2.27,0.27,2.32
29.16194987297058,0.49,2.62,0.25,2.67
29.171710968017578,0.52,2.74,0.43,2.82
29.181678771972656,0.57,2.82,0.91,3.01
29.191650867462158,0.55,2.94,1.35,3.28
29.20976185798645,0.45,3.09,1.56,3.49
29.212044715881348,0.37,3.37,1.5,3.7
29.221686840057373,0.05,3.69,1.26,3.89
29.23161268234253,-0.21,3.97,0.67,4.03
29.241633892059326,-0.42,3.98,-0.12,4.0
29.259838819503784,-0.54,3.61,-1.08,3.8
29.261409759521484,-0.44,2.84,-2.02,3.51
29.271764755249023,-0.34,1.98,-2.52,3.22
29.281569004058838,-0.4,1.41,-2.74,3.1
29.291583776474,-0.54,0.95,-2.69,2.9
29.3099946975708,-0.69,0.33,-2.44,2.55
29.311389923095703,-0.77,-0.33,-2.39,2.53
29.321762800216675,-0.98,-0.93,-2.23,2.6
29.331707000732422,-1.09,-1.41,-1.77,2.51
29.341688871383667,-1.19,-1.56,-1.31,2.35
29.36055088043213,-1.38,-1.29,-0.96,2.11
29.361409664154053,-1.62,-0.72,-0.63,1.88
29.37169885635376,-1.65,0.1,-0.28,1.67
29.38173198699951,-1.57,0.95,-0.16,1.84
29.391634941101074,-1.25,1.63,-0.33,2.08
29.410475730895996,-0.91,1.9,-0.65,2.2
29.411451816558838,-0.6,1.71,-0.92,2.03
29.421725749969482,-0.24,1.27,-0.98,1.62
29.4316508769989,0.08,0.87,-0.8,1.18
29.441686868667603,0.11,0.41,-0.39,0.57
29.460693836212158,0.27,-0.17,-0.1,0.33
29.461447715759277,0.31,-0.89,-0.04,0.94
29.471712827682495,0.36,-1.49,-0.11,1.53
29.48150086402893,0.45,-1.91,-0.11,1.96
29.49168086051941,0.4,-2.17,-0.01,2.2
29.510211944580078,0.41,-2.36,0.03,2.39
29.51157784461975,0.35,-2.49,0.04,2.51
29.522008895874023,0.27,-2.63,0.14,2.64
29.531680822372437,0.28,-2.69,0.17,2.7
29.541716814041138,0.27,-2.69,0.19,2.71
29.557312965393066,0.29,-2.76,0.34,2.79
29.561651706695557,0.33,-2.71,0.44,2.76
29.57174277305603,0.28,-2.66,0.58,2.73
29.581767797470093,0.2,-2.55,0.74,2.66
29.59162473678589,0.06,-2.36,0.72,2.46
29.604712963104248,-0.17,-2.15,0.66,2.25
29.611462831497192,-0.34,-1.88,0.64,2.01
29.621564865112305,-0.51,-1.62,0.59,1.79
29.631626844406128,-0.66,-1.41,0.58,1.66
29.641416788101196,-0.64,-1.3,0.5,1.53
29.654874801635742,-0.76,-1.32,0.28,1.54
29.661571979522705,-0.84,-1.33,0.11,1.57
29.67155694961548,-0.91,-1.27,0.02,1.56
29.681984901428223,-1.01,-1.19,0.05,1.56
29.69201374053955,-1.09,-1.02,0.16,1.5
29.710757732391357,-1.15,-0.69,0.39,1.39
29.71177387237549,-1.12,-0.38,0.66,1.35
29.72181797027588,-1.03,-0.04,0.79,1.29
29.731775760650635,-0.86,0.4,0.74,1.2
29.742077827453613,-0.75,0.93,0.6,1.33
29.762696743011475,-0.6,1.58,0.46,1.75
29.763816833496094,-0.42,2.11,0.43,2.19
29.771842002868652,-0.23,2.32,0.25,2.34
29.781855821609497,-0.31,2.5,0.24,2.53
29.791883945465088,-0.27,2.66,0.6,2.74
29.81254482269287,-0.29,2.77,0.84,2.9
29.812976837158203,-0.24,2.75,1.08,2.96
29.821754932403564,-0.23,2.71,1.0,2.89
29.831578731536865,-0.11,2.92,0.95,3.07
29.84182071685791,-0.07,3.17,0.85,3.28
29.862050771713257,-0.04,3.38,0.57,3.42
29.86298894882202,0.01,3.46,0.13,3.46
29.871731758117676,-0.06,3.32,-0.72,3.39
29.881993770599365,-0.07,2.93,-1.72,3.39
29.891913890838623,0.05,2.46,-2.29,3.36
29.910587787628174,0.2,2.22,-2.46,3.31
29.91165065765381,0.06,1.96,-2.6,3.25
29.92174983024597,0.04,1.64,-2.67,3.13
29.93196678161621,0.23,1.12,-2.45,2.7
29.941609859466553,0.27,0.33,-2.26,2.29
29.960777759552002,0.48,-0.56,-2.03,2.15
29.961458683013916,0.58,-1.18,-1.66,2.11
29.971629858016968,0.75,-1.6,-1.13,2.09
29.98158073425293,0.95,-1.67,-0.87,2.1
29.991639852523804,1.01,-1.32,-0.74,1.81
30.010709762573242,1.08,-0.75,-0.54,1.42
30.011412858963013,1.04,-0.14,-0.35,1.1
30.021682739257812,1.03,0.38,-0.6,1.25
30.03164577484131,0.79,0.63,-0.77,1.27
30.041666984558105,0.64,0.7,-0.76,1.21
30.06092596054077,0.7,0.43,-0.75,1.11
30.061688899993896,0.72,0.03,-0.63,0.95
30.071687698364258,0.79,-0.35,-0.43,0.96
30.08197283744812,0.69,-0.59,-0.16,0.92
30.091684818267822,0.61,-0.88,-0.03,1.07
30.11106300354004,0.43,-1.21,0.03,1.28
30.111517906188965,0.26,-1.54,0.09,1.56
30.122095823287964,0.05,-1.85,0.07,1.85
30.131685733795166,-0.15,-2.15,0.06,2.15
30.141878843307495,-0.16,-2.31,0.06,2.31
30.16075372695923,-0.16,-2.36,0.1,2.36
30.16170597076416,-0.12,-2.33,0.17,2.33
30.171806812286377,-0.09,-2.26,0.12,2.26
30.181720733642578,-0.02,-2.15,0.08,2.15
30.191680908203125,-0.03,-2.07,0.18,2.07
30.21111488342285,-0.07,-2.03,0.32,2.05
30.211540699005127,-0.08,-1.94,0.39,1.98
30.22190570831299,-0.01,-1.78,0.39,1.82
30.231661796569824,-0.03,-1.67,0.53,1.75
30.241973876953125,0.22,-1.51,0.62,1.64
30.26106071472168,0.25,-1.35,0.65,1.51
30.261682987213135,0.44,-1.27,0.65,1.49
30.27174997329712,0.6,-1.2,0.59,1.46
30.281850814819336,0.68,-1.12,0.44,1.38
30.291651725769043,0.9,-1.11,0.22,1.44
30.3109347820282,1.01,-1.17,0.03,1.54
30.311460971832275,1.04,-1.18,-0.02,1.57
30.32186985015869,1.05,-1.0,0.0,1.45
