time,ax,ay,az,atotal
0.018141984939575195,-0.02,-0.01,0.02,0.03
0.018568992614746094,0.0,0.11,0.22,0.24
0.02675008773803711,-0.06,0.08,0.22,0.24
0.03684091567993164,-0.03,0.03,0.14,0.14
0.046862125396728516,-0.09,0.04,0.04,0.1
0.06368398666381836,-0.13,0.1,-0.03,0.16
0.06669902801513672,-0.14,0.05,-0.11,0.18
0.07688498497009277,-0.09,-0.05,-0.11,0.15
0.08667707443237305,-0.05,-0.11,-0.11,0.16
0.09682297706604004,-0.02,-0.11,-0.03,0.11
0.11405491828918457,0.0,-0.06,0.08,0.1
0.11676192283630371,-0.01,-0.02,0.11,0.11
0.12679481506347656,0.02,0.04,0.11,0.11
0.1367640495300293,0.01,0.06,0.11,0.12
0.14684486389160156,-0.02,0.04,0.08,0.09
0.16436004638671875,-0.05,0.01,0.03,0.05
0.166733980178833,-0.09,0.02,0.06,0.11
0.17694902420043945,-0.12,0.01,0.08,0.14
0.1866459846496582,-0.12,-0.06,0.12,0.18
0.19690704345703125,-0.07,-0.12,0.16,0.21
0.21457791328430176,-0.06,-0.09,0.17,0.2
0.21673107147216797,-0.06,-0.01,0.15,0.16
0.22695493698120117,-0.05,0.06,0.13,0.15
0.23681092262268066,-0.08,0.08,0.16,0.19
0.2468581199645996,-0.05,0.03,0.23,0.23
0.26492881774902344,-0.03,-0.04,0.23,0.23
0.26672983169555664,-0.08,-0.11,0.22,0.25
0.2769618034362793,-0.21,-0.14,0.22,0.33
0.2867469787597656,-0.31,-0.18,0.24,0.43
0.2969069480895996,-0.36,-0.29,0.26,0.53
0.315234899520874,-0.33,-0.32,0.3,0.54
0.31679296493530273,-0.31,-0.26,0.36,0.54
0.32694196701049805,-0.24,-0.17,0.45,0.53
0.33679890632629395,-0.19,-0.08,0.42,0.46
0.3468461036682129,-0.14,0.02,0.44,0.46
0.36521482467651367,-0.15,0.07,0.37,0.4
0.3666977882385254,-0.14,0.16,0.3,0.36
0.37699294090270996,-0.24,0.19,0.28,0.41
0.38671302795410156,-0.3,0.17,0.27,0.43
0.39690685272216797,-0.39,0.14,0.27,0.49
0.4155259132385254,-0.44,0.07,0.29,0.53
0.41680908203125,-0.47,-0.06,0.31,0.56
0.42685890197753906,-0.47,-0.13,0.32,0.58
0.4369688034057617,-0.43,-0.23,0.34,0.59
0.44698596000671387,-0.36,-0.38,0.46,0.69
0.4656229019165039,-0.27,-0.55,0.47,0.77
0.46666479110717773,-0.23,-0.65,0.37,0.78
0.4770009517669678,-0.22,-0.64,0.25,0.72
0.4869239330291748,-0.2,-0.58,0.26,0.66
0.497081995010376,-0.19,-0.56,0.34,0.68
0.5160069465637207,-0.13,-0.54,0.37,0.66
0.5167059898376465,-0.04,-0.63,0.35,0.72
0.5269010066986084,0.04,-0.7,0.35,0.78
0.536801815032959,0.08,-0.77,0.33,0.84
0.5468299388885498,0.11,-0.89,0.33,0.95
0.5658597946166992,0.17,-0.98,0.32,1.04
0.566709041595459,0.26,-1.03,0.39,1.13
0.5770618915557861,0.35,-1.06,0.55,1.24
0.5867769718170166,0.5,-1.02,0.77,1.37
0.5970950126647949,0.63,-0.79,1.18,1.55
0.6161239147186279,0.7,-0.45,1.69,1.88
0.6168270111083984,0.83,-0.09,2.07,2.23
0.6269598007202148,0.91,0.16,2.09,2.28
0.6368398666381836,0.88,0.33,1.68,1.92
0.6470179557800293,0.86,0.57,1.01,1.44
0.66615891456604,0.83,0.7,0.44,1.17
0.6666860580444336,0.71,0.67,0.23,1.0
0.6770439147949219,0.53,0.5,0.47,0.86
0.6868958473205566,0.43,0.29,1.02,1.14
0.6970069408416748,0.37,0.07,1.49,1.53
0.7161850929260254,0.27,-0.1,1.67,1.69
0.7167129516601562,0.18,-0.19,1.68,1.7
0.7269101142883301,0.1,-0.25,1.52,1.54
0.736875057220459,0.08,-0.29,1.21,1.24
0.7469468116760254,0.07,-0.31,1.06,1.1
0.7656760215759277,0.06,-0.37,1.1,1.16
0.7667150497436523,0.04,-0.45,1.26,1.33
0.7771079540252686,0.05,-0.58,1.34,1.46
0.7869091033935547,0.02,-0.69,1.32,1.48
0.7968850135803223,-0.02,-0.69,1.37,1.53
0.8159589767456055,-0.05,-0.67,1.45,1.59
0.8167870044708252,-0.07,-0.69,1.58,1.72
0.8270020484924316,-0.03,-0.7,1.71,1.84
0.8369159698486328,0.05,-0.76,1.66,1.82
0.8469328880310059,0.15,-0.81,1.58,1.78
0.8666889667510986,0.17,-0.81,1.56,1.76
0.8671250343322754,0.19,-0.78,1.42,1.63
0.877112865447998,0.18,-0.57,1.4,1.52
0.8868279457092285,0.14,-0.34,1.5,1.54
0.8969619274139404,0.1,-0.25,1.5,1.52
0.9169759750366211,0.13,-0.2,1.53,1.54
0.9174060821533203,0.22,-0.25,1.57,1.6
0.9270520210266113,0.31,-0.4,1.47,1.55
0.9368610382080078,0.38,-0.54,1.34,1.49
0.9469280242919922,0.4,-0.56,1.29,1.46
0.9665060043334961,0.37,-0.55,1.23,1.39
0.9669051170349121,0.37,-0.46,1.22,1.35
0.977057933807373,0.47,-0.34,1.42,1.53
0.986839771270752,0.48,-0.32,1.67,1.76
0.9970579147338867,0.37,-0.31,1.72,1.78
1.0163660049438477,0.32,-0.19,1.8,1.83
1.0167949199676514,0.26,-0.06,1.87,1.88
1.027000904083252,0.26,0.12,1.62,1.64
1.036940097808838,0.32,0.34,1.13,1.22
1.047003984451294,0.38,0.65,0.84,1.12
1.0674448013305664,0.49,1.07,0.83,1.44
1.0678648948669434,0.59,1.39,0.94,1.77
1.0770769119262695,0.66,1.43,1.16,1.95
1.0868840217590332,0.67,1.22,1.56,2.09
1.0970430374145508,0.66,1.0,2.13,2.44
1.1174299716949463,0.67,0.78,2.55,2.74
1.1178638935089111,0.71,0.69,2.69,2.86
1.1270849704742432,0.66,0.85,2.71,2.91
1.1369438171386719,0.56,1.25,2.44,2.79
1.1470041275024414,0.46,1.67,1.93,2.59
1.1667838096618652,0.35,1.86,1.38,2.34
1.1672048568725586,0.23,1.96,0.81,2.13
1.177135944366455,0.15,2.0,0.42,2.04
1.1869068145751953,0.26,1.85,0.55,1.94
1.1969990730285645,0.4,1.52,0.94,1.83
1.2169859409332275,0.39,1.31,1.29,1.87
1.2174088954925537,0.24,1.3,1.18,1.77
1.227057933807373,0.11,1.33,0.37,1.38
1.2370109558105469,0.03,1.3,-0.78,1.51
1.2470388412475586,-0.18,1.08,-1.84,2.14
1.2669401168823242,-0.38,0.75,-2.55,2.68
1.267387866973877,-0.44,0.36,-2.85,2.9
1.2772440910339355,-0.41,-0.26,-2.56,2.6
1.2868928909301758,-0.33,-1.25,-1.93,2.32
1.2971010208129883,-0.37,-2.03,-1.41,2.49
1.317875862121582,-0.42,-2.41,-1.12,2.69
1.3183059692382812,-0.38,-2.45,-0.86,2.62
1.3270769119262695,-0.44,-2.1,-0.53,2.21
1.3369109630584717,-0.54,-1.51,-0.29,1.62
1.347053050994873,-0.48,-0.9,0.02,1.02
1.3670158386230469,-0.49,-0.29,0.4,0.69
1.3674578666687012,-0.53,0.18,0.73,0.91
1.3771109580993652,-0.49,0.47,0.75,1.01
1.3868918418884277,-0.43,0.48,0.54,0.84
1.3971738815307617,-0.39,0.26,0.23,0.52
1.4174509048461914,-0.44,-0.03,0.15,0.46
1.4178669452667236,-0.62,-0.41,0.32,0.8
1.4269049167633057,-0.71,-0.8,0.34,1.12
1.4369521141052246,-0.76,-1.06,0.27,1.33
1.4471077919006348,-0.72,-1.07,0.36,1.33
1.4673681259155273,-0.64,-1.14,0.4,1.36
1.46779203414917,-0.51,-1.26,0.29,1.38
1.4770898818969727,-0.47,-1.37,0.22,1.46
1.486989974975586,-0.43,-1.43,0.24,1.51
1.497169017791748,-0.41,-1.51,0.39,1.61
1.5179400444030762,-0.39,-1.59,0.72,1.78
1.5183501243591309,-0.39,-1.74,1.07,2.07
1.5271258354187012,-0.38,-1.88,1.11,2.21
1.5371789932250977,-0.29,-1.89,0.99,2.15
1.547095775604248,-0.27,-1.83,1.05,2.12
1.5675508975982666,-0.35,-1.71,1.05,2.03
1.5679678916931152,-0.46,-1.48,0.91,1.79
1.5771009922027588,-0.6,-1.23,0.9,1.63
1.5871779918670654,-0.69,-1.06,0.88,1.54
1.597181797027588,-0.74,-0.92,0.88,1.47
1.617560863494873,-0.72,-0.8,0.83,1.35
1.6179790496826172,-0.74,-0.7,0.7,1.23
1.6270639896392822,-0.85,-0.54,0.63,1.18
1.6372628211975098,-0.97,-0.31,0.76,1.27
1.647150993347168,-1.05,-0.01,0.91,1.38
1.6676139831542969,-0.94,0.35,1.2,1.56
1.6680288314819336,-0.84,0.67,1.32,1.7
1.6771340370178223,-0.76,1.21,1.35,1.96
1.6873619556427002,-0.69,1.87,1.74,2.64
1.69710111618042,-0.75,2.4,2.13,3.29
1.7180979251861572,-0.81,2.71,2.11,3.52
1.718519926071167,-0.97,2.94,1.71,3.53
1.727097988128662,-1.09,3.23,1.52,3.73
1.7374730110168457,-1.14,3.73,1.7,4.25
1.7471270561218262,-0.71,4.7,2.56,5.39
1.7680549621582031,-0.17,5.09,3.18,6.0
1.768500804901123,0.0,4.68,2.1,5.12
1.777148962020874,0.01,4.71,0.11,4.71
1.787543773651123,0.05,4.78,-0.97,4.87
1.797278881072998,-0.06,3.65,-1.18,3.83
1.818833827972412,-0.17,1.92,-1.42,2.39
1.8192601203918457,-0.06,0.58,-1.82,1.91
1.8270530700683594,-0.05,-0.35,-2.25,2.27
1.8376131057739258,0.03,-0.93,-2.29,2.47
1.8471441268920898,0.25,-1.34,-1.75,2.21
1.8685569763183594,0.6,-1.73,-1.25,2.21
1.8689699172973633,0.9,-1.92,-0.98,2.33
1.8770849704742432,1.1,-1.94,-0.91,2.4
1.8877029418945312,1.15,-1.96,-1.09,2.52
1.897252082824707,1.18,-1.9,-1.34,2.6
1.9188780784606934,1.14,-1.62,-1.38,2.41
1.919301986694336,1.0,-1.32,-1.29,2.09
1.9271788597106934,0.8,-1.08,-1.15,1.76
1.937695026397705,0.61,-0.97,-0.91,1.46
1.9471588134765625,0.38,-0.84,-0.75,1.18
1.9688239097595215,0.15,-0.71,-0.65,0.97
1.9692487716674805,-0.03,-0.75,-0.59,0.95
1.9772999286651611,-0.2,-0.97,-0.64,1.17
1.9871189594268799,-0.26,-1.22,-0.61,1.38
1.9972219467163086,-0.26,-1.56,-0.47,1.64
2.018673896789551,-0.22,-1.99,-0.2,2.01
2.0190939903259277,-0.18,-2.32,0.12,2.33
2.0270447731018066,-0.18,-2.54,0.35,2.57
2.0371530055999756,-0.15,-2.7,0.52,2.75
2.0472049713134766,-0.06,-2.72,0.71,2.81
2.0689821243286133,0.06,-2.67,0.81,2.79
2.069417953491211,0.11,-2.61,0.76,2.72
2.0777769088745117,0.14,-2.46,0.67,2.55
2.087203025817871,0.24,-2.21,0.6,2.3
2.0971717834472656,0.25,-1.95,0.53,2.03
2.11928391456604,0.33,-1.69,0.58,1.81
2.119680881500244,0.33,-1.44,0.74,1.65
2.1271209716796875,0.38,-1.21,0.95,1.58
2.1371970176696777,0.37,-1.04,1.14,1.58
2.1472110748291016,0.41,-0.86,1.35,1.65
2.169466972351074,0.42,-0.67,1.29,1.51
2.169851779937744,0.42,-0.5,1.05,1.23
2.1771788597106934,0.43,-0.2,0.93,1.04
2.1871581077575684,0.45,0.1,0.97,1.07
2.1972949504852295,0.48,0.4,1.07,1.23
2.2199158668518066,0.49,0.75,1.26,1.54
2.220331907272339,0.54,1.08,1.49,1.91
2.227128028869629,0.69,1.49,1.58,2.27
2.2371578216552734,0.64,1.95,1.36,2.46
2.2472879886627197,0.52,2.4,1.02,2.65
2.2692618370056152,0.43,2.68,0.58,2.77
2.269681930541992,0.51,2.77,0.13,2.81
2.2773239612579346,0.56,2.79,0.07,2.84
2.2872838973999023,0.49,3.03,0.71,3.15
2.2973599433898926,0.67,3.86,2.09,4.44
2.319675922393799,0.69,4.17,3.08,5.22
2.3200879096984863,0.14,3.63,2.44,4.37
2.327219009399414,-0.35,3.4,0.35,3.43
2.337203025817871,-0.84,3.37,-1.74,3.88
2.3472537994384766,-1.26,3.01,-2.86,4.33
2.3692398071289062,-1.29,2.07,-2.96,3.83
2.3696799278259277,-1.17,0.99,-2.13,2.62
2.3772330284118652,-1.07,0.14,-1.43,1.79
2.3871560096740723,-0.89,-0.29,-1.15,1.48
2.3973939418792725,-0.67,-0.39,-0.84,1.14
2.4197189807891846,-0.59,-0.51,-0.72,1.06
2.4201178550720215,-0.44,-0.57,-0.78,1.06
2.427143096923828,-0.35,-0.39,-0.93,1.06
2.437251091003418,-0.23,-0.11,-1.14,1.16
2.4472999572753906,-0.08,0.06,-1.32,1.32
2.46943998336792,0.07,0.14,-1.31,1.31
2.469857931137085,0.23,0.12,-1.15,1.17
2.477250099182129,0.22,-0.03,-0.83,0.85
2.487267017364502,0.07,-0.15,-0.41,0.44
2.4973230361938477,-0.1,-0.33,-0.07,0.35
2.519537925720215,-0.22,-0.66,0.05,0.69
2.5199570655822754,-0.18,-1.21,-0.03,1.22
2.5272719860076904,-0.16,-1.74,0.02,1.74
2.5373239517211914,-0.19,-2.04,0.16,2.05
2.5473198890686035,-0.14,-2.27,0.18,2.28
2.5690550804138184,-0.09,-2.4,0.07,2.4
2.569488048553467,-0.05,-2.51,-0.07,2.51
2.577219009399414,-0.05,-2.6,-0.08,2.6
2.587155818939209,-0.01,-2.65,0.04,2.65
2.5973989963531494,-0.05,-2.69,0.12,2.69
2.6192569732666016,-0.1,-2.75,0.2,2.75
2.619668960571289,-0.2,-2.73,0.33,2.75
2.627203941345215,-0.23,-2.56,0.29,2.58
2.6373000144958496,-0.21,-2.27,0.15,2.28
2.647308826446533,-0.24,-1.96,-0.04,1.97
2.668977975845337,-0.27,-1.68,-0.25,1.71
2.6694209575653076,-0.37,-1.39,-0.2,1.45
2.6772749423980713,-0.38,-1.07,0.02,1.13
2.6871581077575684,-0.46,-0.7,0.24,0.87
2.697375774383545,-0.57,-0.32,0.6,0.88
2.7191050052642822,-0.66,0.14,1.03,1.23
2.719520092010498,-0.65,0.53,1.35,1.58
2.7272658348083496,-0.57,0.89,1.48,1.81
2.7372708320617676,-0.45,1.44,1.51,2.13
2.74739408493042,-0.39,2.26,1.46,2.71
2.769312858581543,-0.4,3.08,1.31,3.37
2.7697529792785645,-0.52,3.52,1.24,3.76
2.7773349285125732,-0.77,3.55,1.1,3.79
2.78727388381958,-1.02,3.32,0.88,3.58
2.7973859310150146,-1.43,2.91,0.74,3.32
2.8202929496765137,-1.59,2.87,0.99,3.42
2.820706844329834,-0.98,3.55,2.04,4.21
2.8272769451141357,-0.51,3.74,2.88,4.74
2.837312936782837,0.11,2.89,1.1,3.09
2.847357988357544,0.97,2.72,-1.89,3.45
2.8699378967285156,0.96,3.52,-3.14,4.81
2.8703770637512207,0.87,3.45,-2.17,4.16
2.8772950172424316,0.95,2.15,-1.11,2.59
2.887248992919922,1.28,1.03,-0.83,1.84
2.8974239826202393,1.37,0.43,-0.94,1.71
2.920309066772461,1.31,0.13,-1.06,1.69
2.9207348823547363,1.18,-0.32,-1.21,1.72
2.9272727966308594,1.04,-0.91,-1.47,2.01
2.9374189376831055,0.76,-1.19,-1.55,2.09
2.947350025177002,0.44,-1.07,-1.52,1.91
2.970655918121338,0.07,-0.97,-1.39,1.69
2.9710769653320312,-0.35,-0.99,-1.14,1.54
2.9773077964782715,-0.6,-0.95,-0.78,1.36
2.9872360229492188,-0.78,-0.98,-0.54,1.36
2.9974420070648193,-0.89,-1.1,-0.51,1.5
3.020380973815918,-0.92,-1.34,-0.71,1.77
3.020798921585083,-0.91,-1.64,-0.94,2.09
3.0272650718688965,-0.77,-1.96,-0.77,2.24
3.037315845489502,-0.53,-2.41,-0.42,2.5
3.04732608795166,-0.38,-2.84,0.0,2.86
3.0706090927124023,-0.2,-3.07,0.43,3.1
3.0710368156433105,-0.14,-3.13,0.47,3.16
3.0773229598999023,-0.08,-3.04,0.4,3.06
3.087354898452759,0.04,-2.91,0.4,2.93
3.0974268913269043,0.14,-2.76,0.58,2.82
3.120332956314087,0.18,-2.58,0.68,2.67
3.1207540035247803,0.25,-2.34,0.78,2.47
3.127311944961548,0.27,-2.08,0.79,2.24
3.1374340057373047,0.32,-1.8,0.77,1.98
3.1474759578704834,0.41,-1.56,0.7,1.75
3.1706879138946533,0.44,-1.32,0.72,1.56
3.1710779666900635,0.44,-1.09,0.62,1.32
3.1773879528045654,0.49,-0.83,0.56,1.11
3.1873087882995605,0.52,-0.63,0.64,1.03
3.1974129676818848,0.5,-0.47,0.77,1.03
3.220782995223999,0.45,-0.34,0.94,1.09
3.221224784851074,0.36,-0.21,1.05,1.12
3.227350950241089,0.3,-0.01,0.95,0.99
3.2373828887939453,0.24,0.33,0.9,0.98
3.2474498748779297,0.38,0.86,1.03,1.39
3.271343946456909,0.5,1.44,1.2,1.94
3.271761894226074,0.59,2.14,1.47,2.66
3.277362823486328,0.69,2.89,1.6,3.37
3.2873799800872803,0.78,3.3,1.32,3.63
3.29758882522583,0.86,3.51,0.88,3.71
3.3211779594421387,0.93,3.68,0.66,3.85
3.321614980697632,0.94,4.08,1.22,4.36
3.327371120452881,1.12,4.76,2.38,5.43
3.3375020027160645,0.9,4.66,2.96,5.59
3.347548007965088,0.16,3.82,1.69,4.18
3.3715600967407227,-0.56,3.42,-1.0,3.6
3.371983051300049,-1.01,3.16,-3.21,4.61
3.3774800300598145,-1.16,2.52,-3.15,4.19
3.3874340057373047,-1.33,1.44,-1.88,2.71
3.397556781768799,-1.36,0.37,-1.06,1.76
3.421766996383667,-1.38,-0.33,-0.89,1.67
3.42219877243042,-1.28,-0.55,-1.04,1.73
3.4274919033050537,-1.11,-0.39,-1.2,1.68
3.437391996383667,-1.01,-0.26,-1.27,1.64
3.44746994972229,-0.9,-0.27,-1.3,1.6
3.471212863922119,-0.7,-0.26,-1.21,1.42
3.471648931503296,-0.43,-0.16,-1.01,1.1
3.4774680137634277,-0.26,-0.14,-0.89,0.93
3.4874110221862793,0.0,-0.2,-0.65,0.68
3.497483968734741,0.22,-0.33,-0.29,0.49
3.5215609073638916,0.43,-0.49,-0.18,0.67
3.5219969749450684,0.64,-0.65,-0.2,0.93
3.5273759365081787,0.72,-0.96,-0.35,1.25
3.5376369953155518,0.72,-1.36,-0.54,1.63
3.547578811645508,0.67,-1.74,-0.63,1.96
3.572007894515991,0.5,-2.08,-0.56,2.21
3.5724430084228516,0.3,-2.42,-0.43,2.47
3.5775139331817627,0.22,-2.71,-0.31,2.73
3.587428092956543,0.26,-2.93,-0.16,2.94
3.5975430011749268,0.2,-3.13,-0.01,3.13
3.622161865234375,0.14,-3.29,0.09,3.29
3.622570037841797,0.11,-3.29,0.25,3.3
3.6275129318237305,0.03,-3.18,0.49,3.21
3.6375179290771484,-0.1,-2.91,0.61,2.97
3.647465944290161,-0.19,-2.51,0.51,2.56
3.672693967819214,-0.26,-2.1,0.23,2.12
3.6732420921325684,-0.3,-1.77,-0.11,1.79
3.677546977996826,-0.33,-1.48,-0.3,1.54
3.68743896484375,-0.41,-1.17,-0.35,1.28
3.6976029872894287,-0.52,-0.75,-0.17,0.92
3.7073631286621094,-0.52,-0.29,0.31,0.67
3.7229769229888916,-0.49,0.1,0.84,0.97
3.7274489402770996,-0.48,0.51,1.24,1.42
3.7375359535217285,-0.46,1.16,1.46,1.92
3.747567892074585,-0.35,1.98,1.5,2.5
3.7574470043182373,-0.3,2.69,1.19,2.95
3.772120952606201,-0.45,3.22,0.87,3.36
3.77738094329834,-0.73,3.46,0.67,3.59
3.7874717712402344,-0.98,3.31,0.41,3.47
3.7976298332214355,-1.25,2.96,0.27,3.22
3.807478904724121,-1.46,2.87,0.67,3.28
3.8227028846740723,-0.74,3.77,2.18,4.41
3.827462911605835,-0.05,4.17,3.36,5.35
3.8375468254089355,0.42,3.25,1.57,3.63
3.8474998474121094,1.19,3.11,-2.15,3.96
3.8575758934020996,1.14,3.82,-4.28,5.84
3.8728699684143066,0.91,3.64,-3.46,5.1
3.877548933029175,0.82,2.26,-1.68,2.93
3.8875279426574707,1.16,0.72,-0.58,1.48
3.897599935531616,1.49,-0.37,-0.38,1.58
3.9074459075927734,1.38,-0.94,-0.7,1.81
3.923085927963257,1.08,-1.06,-0.89,1.75
3.9275150299072266,0.67,-0.66,-0.82,1.24
3.9374799728393555,0.31,-0.33,-0.68,0.81
3.947619915008545,0.16,-0.27,-0.72,0.78
3.9574899673461914,-0.03,0.0,-0.65,0.65
3.972877025604248,-0.26,0.3,-0.46,0.6
3.977363109588623,-0.38,0.4,-0.45,0.71
3.9875199794769287,-0.36,0.22,-0.59,0.72
3.9975929260253906,-0.38,-0.25,-0.68,0.81
4.006250858306885,-0.39,-1.0,-0.78,1.32
4.022459030151367,-0.3,-1.9,-0.78,2.07
4.026104927062988,-0.24,-2.76,-0.58,2.83
4.036241054534912,-0.28,-3.44,-0.24,3.45
4.046268939971924,-0.39,-3.84,0.17,3.86
4.056295871734619,-0.45,-4.04,0.41,4.08
4.072175979614258,-0.38,-4.13,0.44,4.17
4.076111793518066,-0.28,-4.22,0.3,4.23
4.086248874664307,-0.2,-4.3,0.2,4.3
4.096394062042236,-0.06,-4.18,0.27,4.18
4.106245994567871,0.03,-3.83,0.47,3.85
4.122848987579346,0.18,-3.23,0.63,3.29
4.126185894012451,0.28,-2.55,0.75,2.67
4.13634991645813,0.41,-1.92,0.89,2.15
4.146368026733398,0.52,-1.27,0.97,1.68
4.156369924545288,0.63,-0.63,0.99,1.33
4.173059940338135,0.7,-0.11,0.93,1.16
4.176116943359375,0.78,0.34,0.85,1.2
4.186863899230957,0.77,0.68,0.82,1.31
4.196310997009277,0.69,1.11,0.8,1.53
4.20636510848999,0.6,1.63,0.89,1.95
4.2234649658203125,0.71,2.09,1.08,2.45
4.2261528968811035,0.87,2.32,1.0,2.67
4.236295938491821,0.88,2.35,0.82,2.63
4.246431827545166,0.86,2.54,0.68,2.76
4.256467819213867,0.81,2.71,0.58,2.88
4.272969961166382,0.58,2.77,0.53,2.87
4.276037931442261,0.33,2.95,0.75,3.06
4.286334037780762,0.1,3.29,1.39,3.57
4.296349048614502,0.07,3.58,2.15,4.17
4.306369781494141,-0.12,3.48,1.91,3.97
4.3238139152526855,-0.74,3.07,-0.13,3.16
4.326215982437134,-1.33,3.09,-2.85,4.4
4.336331844329834,-1.47,3.16,-4.04,5.33
4.346350908279419,-1.69,2.33,-3.18,4.28
4.356295108795166,-1.96,1.18,-1.55,2.76
4.3729448318481445,-1.73,0.34,-0.46,1.82
4.376081943511963,-1.44,-0.07,-0.17,1.45
4.386326789855957,-0.99,0.24,-0.57,1.16
4.399068832397461,-0.27,1.24,-1.37,1.86
4.424756050109863,-0.05,1.51,-1.45,2.09
4.425257921218872,0.19,1.69,-1.55,2.3
4.429020881652832,0.36,1.67,-1.67,2.38
4.439068794250488,0.5,1.44,-1.66,2.25
4.4490838050842285,0.45,0.96,-1.43,1.78
4.474548816680908,0.37,0.33,-0.96,1.08
4.475115776062012,0.33,-0.47,-0.55,0.79
4.47903299331665,0.19,-1.32,-0.37,1.38
4.4891228675842285,0.08,-2.08,-0.31,2.1
4.499104022979736,0.05,-2.65,-0.2,2.65
4.508971929550171,0.05,-3.11,-0.13,3.11
4.524883985519409,0.16,-3.44,-0.12,3.44
4.528977870941162,0.18,-3.65,-0.25,3.66
4.539077997207642,0.16,-3.82,-0.27,3.83
4.549084901809692,0.13,-3.92,-0.25,3.93
4.558952808380127,-0.03,-3.91,-0.14,3.91
4.573999881744385,-0.21,-3.81,0.11,3.81
4.578909873962402,-0.39,-3.59,0.41,3.63
4.589035987854004,-0.55,-3.16,0.63,3.26
4.599147796630859,-0.68,-2.52,0.8,2.72
4.608942985534668,-0.71,-1.82,0.83,2.12
4.624644994735718,-0.73,-1.21,0.56,1.52
4.62899112701416,-0.69,-0.61,0.29,0.96
4.63936710357666,-0.71,0.0,0.05,0.71
4.64908504486084,-0.79,0.6,-0.13,1.0
4.658988952636719,-0.83,1.1,-0.04,1.37
4.675048828125,-0.75,1.34,0.28,1.56
4.678847789764404,-0.6,1.46,0.68,1.71
4.6889729499816895,-0.57,1.58,0.97,1.93
4.699033975601196,-0.48,1.82,1.34,2.31
4.708863973617554,-0.48,2.04,1.69,2.69
4.724884033203125,-0.6,2.15,1.78,2.85
4.728899955749512,-0.7,2.18,1.48,2.72
4.7390570640563965,-0.84,2.16,0.85,2.46
4.749087810516357,-1.02,2.05,0.16,2.29
4.759066104888916,-1.25,1.93,-0.24,2.31
4.7750678062438965,-1.38,2.12,0.33,2.55
4.7791290283203125,-0.65,3.05,2.13,3.77
4.789062976837158,0.24,3.57,3.02,4.68
4.799160957336426,0.73,3.1,0.56,3.23
4.809031963348389,0.84,3.26,-3.22,4.65
4.824965000152588,0.57,3.97,-4.52,6.04
4.828850984573364,0.55,3.43,-2.94,4.55
4.838972091674805,0.53,1.73,-1.36,2.26
4.849090099334717,1.0,0.29,-0.83,1.33
4.859055042266846,1.33,-0.64,-0.73,1.64
4.873950958251953,1.35,-1.26,-0.8,2.01
4.8790130615234375,1.33,-1.77,-1.09,2.46
4.888958930969238,1.39,-2.12,-1.58,2.98
4.899159908294678,1.29,-2.01,-1.95,3.08
4.909035921096802,1.16,-1.39,-2.05,2.73
4.924168109893799,0.97,-0.57,-1.87,2.18
4.929082870483398,0.73,0.26,-1.22,1.44
4.939044952392578,0.55,0.92,-0.5,1.18
4.949123859405518,0.29,1.3,-0.18,1.34
4.9590699672698975,0.03,1.39,-0.24,1.41
4.974245071411133,-0.2,1.29,-0.35,1.35
4.979069948196411,-0.42,0.99,-0.42,1.15
4.989053964614868,-0.58,0.46,-0.45,0.86
4.999159812927246,-0.63,-0.37,-0.53,0.9
5.009073972702026,-0.57,-1.29,-0.26,1.43
5.024383068084717,-0.52,-2.07,0.03,2.13
5.028903007507324,-0.47,-2.55,0.18,2.59
5.039017915725708,-0.38,-2.86,0.21,2.89
5.049154996871948,-0.29,-3.09,0.19,3.1
5.0590410232543945,-0.15,-3.19,0.19,3.19
5.074061870574951,0.0,-3.18,0.11,3.18
5.079044818878174,0.05,-3.08,0.08,3.08
5.088984966278076,0.1,-2.95,0.05,2.95
5.09911584854126,0.15,-2.83,0.09,2.83
5.109106063842773,0.22,-2.68,0.24,2.69
5.124950885772705,0.28,-2.5,0.3,2.53
5.129156112670898,0.33,-2.34,0.17,2.36
5.139121055603027,0.36,-2.21,0.01,2.23
5.1490819454193115,0.37,-1.96,0.01,1.99
5.159085988998413,0.41,-1.61,0.21,1.67
5.175034046173096,0.35,-1.15,0.54,1.31
5.179129123687744,0.24,-0.61,0.95,1.15
5.189100980758667,0.19,-0.01,1.4,1.41
5.199229001998901,0.19,0.57,1.73,1.83
5.209166049957275,0.21,1.2,1.98,2.32
5.22544002532959,0.31,1.85,2.01,2.74
5.2291131019592285,0.45,2.42,1.64,2.95
5.239109992980957,0.49,2.82,1.03,3.04
5.24923300743103,0.47,3.16,0.42,3.22
5.259140968322754,0.4,3.6,0.18,3.62
5.275530815124512,0.33,4.33,0.56,4.37
5.279064893722534,0.46,4.91,1.51,5.15
5.289150953292847,0.2,4.49,1.85,4.86
5.299245834350586,-0.67,3.64,0.55,3.74
5.309157848358154,-1.55,3.34,-1.31,3.9
5.325581073760986,-1.68,3.16,-2.06,4.12
5.329124927520752,-1.7,2.53,-1.73,3.5
5.3392229080200195,-1.93,1.75,-1.12,2.83
5.349113941192627,-1.93,1.11,-1.01,2.44
5.359120845794678,-1.66,0.82,-1.27,2.24
5.376081943511963,-1.25,0.86,-1.57,2.18
5.379043102264404,-0.95,0.83,-1.89,2.27
5.38915491104126,-0.7,0.84,-2.03,2.3
5.3992438316345215,-0.53,0.93,-1.84,2.12
5.409150123596191,-0.22,0.9,-1.49,1.75
5.426150798797607,0.13,0.66,-1.15,1.33
5.428965091705322,0.56,0.25,-0.93,1.11
5.439130783081055,0.78,-0.24,-0.78,1.12
5.449155807495117,0.7,-0.69,-0.71,1.21
5.459176063537598,0.53,-1.07,-0.61,1.34
5.47615385055542,0.45,-1.54,-0.56,1.69
5.479011058807373,0.36,-1.98,-0.6,2.1
5.489169120788574,0.23,-2.37,-0.53,2.43
5.499258041381836,0.06,-2.71,-0.44,2.74
5.50914192199707,-0.07,-2.94,-0.45,2.97
5.5259199142456055,-0.11,-3.12,-0.37,3.14
5.529109001159668,-0.04,-3.28,-0.09,3.28
5.53922700881958,-0.02,-3.42,0.1,3.42
5.549206972122192,0.01,-3.46,0.33,3.47
5.5591819286346436,0.0,-3.29,0.48,3.32
5.575729846954346,-0.12,-2.99,0.54,3.04
5.5790181159973145,-0.24,-2.65,0.55,2.71
5.5890960693359375,-0.33,-2.3,0.59,2.39
5.599218845367432,-0.39,-1.87,0.65,2.01
5.609174966812134,-0.43,-1.41,0.62,1.59
5.625899791717529,-0.48,-1.0,0.54,1.23
5.629047870635986,-0.48,-0.62,0.34,0.85
5.63929295539856,-0.5,-0.26,0.08,0.56
5.6493000984191895,-0.52,0.0,-0.19,0.55
5.659296035766602,-0.64,0.17,-0.36,0.75
5.676152944564819,-0.76,0.36,-0.22,0.86
5.679135799407959,-0.8,0.65,0.34,1.08
5.689239025115967,-0.77,0.92,1.0,1.56
5.699268817901611,-0.68,0.99,1.34,1.79
5.709151983261108,-0.55,1.19,1.44,1.94
5.726078033447266,-0.41,1.73,1.32,2.21
5.728965997695923,-0.38,2.31,1.17,2.61
5.739156007766724,-0.46,2.62,0.82,2.78
5.749298095703125,-0.56,2.7,0.25,2.76
5.759231090545654,-0.86,2.74,-0.07,2.87
5.776098966598511,-1.18,3.18,0.57,3.43
5.779117107391357,-0.61,4.35,2.43,5.01
5.789325952529907,-0.02,4.62,3.73,5.93
5.79929780960083,0.19,3.52,2.05,4.07
5.809191942214966,0.57,3.22,-1.36,3.54
5.8263468742370605,0.41,4.02,-3.56,5.38
5.829039096832275,0.37,4.07,-3.53,5.4
5.839272975921631,0.54,2.83,-2.24,3.64
5.849174976348877,0.76,1.36,-1.26,2.0
5.859312057495117,1.16,0.34,-0.96,1.54
5.876120090484619,1.26,-0.25,-0.91,1.57
5.879097938537598,1.33,-0.69,-0.89,1.74
5.889286994934082,1.34,-1.21,-0.94,2.03
5.899150848388672,1.15,-1.49,-1.16,2.21
5.909266948699951,0.89,-1.28,-1.3,2.02
5.926631927490234,0.61,-0.92,-1.41,1.79
5.929189920425415,0.37,-0.62,-1.33,1.51
5.939347982406616,0.05,-0.46,-1.09,1.18
5.949184894561768,-0.14,-0.33,-0.9,0.96
5.959280014038086,-0.29,-0.31,-0.88,0.97
5.9765849113464355,-0.5,-0.51,-0.98,1.21
5.979264974594116,-0.66,-0.93,-1.09,1.57
5.989264011383057,-0.84,-1.51,-1.03,2.01
5.999316930770874,-0.82,-2.17,-0.73,2.43
6.009180068969727,-0.66,-2.87,-0.29,2.95
6.026637077331543,-0.47,-3.46,0.04,3.49
6.029326915740967,-0.38,-3.73,0.32,3.76
6.039299011230469,-0.21,-3.77,0.55,3.81
6.049170017242432,0.03,-3.69,0.59,3.73
6.05930495262146,0.2,-3.54,0.53,3.58
6.076828956604004,0.3,-3.36,0.46,3.4
6.079465866088867,0.45,-3.13,0.42,3.18
6.089294910430908,0.44,-2.78,0.31,2.83
6.099225997924805,0.43,-2.24,0.26,2.29
6.109226942062378,0.49,-1.68,0.41,1.79
6.127211093902588,0.59,-1.23,0.6,1.49
6.129595994949341,0.58,-0.83,0.71,1.23
6.139311790466309,0.6,-0.35,0.7,0.98
6.149253845214844,0.54,-0.02,0.55,0.77
6.1592488288879395,0.48,0.18,0.48,0.7
6.176011085510254,0.45,0.3,0.51,0.74
6.179680824279785,0.47,0.42,0.65,0.9
6.189244985580444,0.47,0.59,0.82,1.11
6.199402809143066,0.47,0.79,0.99,1.35
6.209362030029297,0.39,1.11,1.17,1.65
6.226952075958252,0.36,1.62,1.35,2.13
6.2297070026397705,0.29,2.16,1.49,2.64
6.2393798828125,0.24,2.54,1.44,2.92
6.249470949172974,0.22,2.74,0.98,2.91
6.259359836578369,0.38,2.91,0.53,2.98
6.277492046356201,0.61,3.29,0.71,3.42
6.2799577713012695,0.89,4.08,1.65,4.49
6.289439916610718,0.85,4.65,2.53,5.36
6.299402952194214,0.35,4.48,2.19,4.99
6.309361934661865,-0.38,4.07,0.36,4.1
6.327180862426758,-0.75,4.11,-1.6,4.47
6.329134941101074,-0.88,3.78,-2.59,4.66
6.339462995529175,-1.21,2.77,-2.55,3.95
6.34941291809082,-1.27,1.6,-1.97,2.83
6.3593909740448,-1.35,0.5,-1.57,2.13
6.37704610824585,-1.44,-0.34,-1.52,2.12
6.380169868469238,-1.42,-0.74,-1.55,2.22
6.389379978179932,-1.33,-0.88,-1.42,2.13
6.399374961853027,-1.22,-0.95,-1.07,1.88
6.409451961517334,-1.07,-0.9,-0.68,1.55
6.427190780639648,-0.9,-0.71,-0.42,1.22
6.429265022277832,-0.64,-0.58,-0.42,0.96
6.43939208984375,-0.31,-0.57,-0.55,0.85
6.449449062347412,-0.02,-0.57,-0.66,0.87
6.459338903427124,0.22,-0.57,-0.73,0.95
6.477268934249878,0.46,-0.69,-0.7,1.08
6.47934103012085,0.5,-1.04,-0.75,1.37
6.489377021789551,0.36,-1.39,-0.56,1.54
6.4993391036987305,0.15,-1.81,-0.21,1.82
6.509400844573975,-0.01,-2.33,0.17,2.33
6.527868986129761,-0.06,-2.8,0.46,2.83
6.529284954071045,-0.06,-3.22,0.48,3.25
6.539439916610718,-0.07,-3.54,0.4,3.56
6.54930305480957,-0.05,-3.66,0.3,3.67
6.559441089630127,-0.06,-3.6,0.33,3.61
6.577816963195801,-0.11,-3.38,0.42,3.4
6.57942795753479,-0.1,-3.01,0.47,3.04
6.589437961578369,-0.14,-2.51,0.59,2.58
6.599298000335693,-0.28,-2.04,0.62,2.15
6.609393119812012,-0.41,-1.59,0.6,1.74
6.627711772918701,-0.49,-1.12,0.43,1.29
6.629249095916748,-0.49,-0.6,0.21,0.8
6.639416933059692,-0.48,-0.12,0.03,0.49
6.649308919906616,-0.38,0.29,-0.17,0.5
6.659395933151245,-0.4,0.6,-0.3,0.78
6.677438974380493,-0.39,0.89,0.01,0.97
6.679234027862549,-0.51,1.13,0.56,1.36
6.689425945281982,-0.53,1.28,1.19,1.82
6.699245929718018,-0.49,1.28,1.55,2.06
6.7094340324401855,-0.46,1.5,1.39,2.09
6.727611064910889,-0.5,2.15,1.22,2.52
6.729326963424683,-0.67,2.72,1.32,3.09
6.739445924758911,-0.82,3.11,1.4,3.5
6.749324798583984,-1.12,3.11,1.01,3.45
6.759422779083252,-1.22,2.98,0.67,3.28
6.777509927749634,-1.12,3.17,1.22,3.57
6.7794880867004395,-0.33,3.9,2.74,4.77
6.789446830749512,0.2,4.14,3.66,5.52
6.799272060394287,0.53,3.43,1.28,3.69
6.809428930282593,0.79,3.57,-3.07,4.77
6.828289031982422,0.65,4.36,-5.02,6.68
6.829319953918457,0.6,3.74,-3.73,5.31
6.839439868927002,0.58,1.8,-1.97,2.73
6.849474906921387,0.96,0.2,-0.77,1.24
6.859437942504883,1.44,-0.66,-0.57,1.68
6.878091812133789,1.47,-0.96,-0.78,1.92
6.8792359828948975,1.39,-1.14,-0.88,2.0
6.889336109161377,1.25,-1.38,-1.07,2.14
6.8993048667907715,0.94,-1.35,-1.26,2.07
6.909492015838623,0.37,-1.12,-1.39,1.82
6.928301811218262,-0.14,-0.85,-1.4,1.64
6.929295063018799,-0.58,-0.65,-1.19,1.47
6.939441919326782,-0.91,-0.59,-1.02,1.48
6.949276924133301,-1.11,-0.58,-0.8,1.48
6.959410905838013,-1.14,-0.66,-0.6,1.44
6.977958917617798,-1.06,-0.99,-0.62,1.57
6.979279041290283,-0.77,-1.55,-0.66,1.85
6.989378929138184,-0.4,-2.27,-0.67,2.4
6.999303817749023,-0.15,-2.83,-0.47,2.87
7.009629964828491,-0.04,-3.13,-0.1,3.13
7.028112888336182,0.03,-3.29,0.24,3.29
7.029387950897217,0.17,-3.43,0.38,3.45
7.03935694694519,0.24,-3.58,0.34,3.6
7.04946494102478,0.29,-3.64,0.33,3.66
7.059387922286987,0.31,-3.51,0.38,3.54
7.077837944030762,0.36,-3.3,0.45,3.34
7.07933497428894,0.4,-3.01,0.59,3.09
7.089358806610107,0.44,-2.7,0.72,2.82
7.099231004714966,0.47,-2.32,0.76,2.48
7.109397888183594,0.44,-1.86,0.67,2.02
7.12791109085083,0.44,-1.35,0.68,1.57
7.1290929317474365,0.44,-0.85,0.68,1.17
7.139413833618164,0.44,-0.26,0.78,0.93
7.149202823638916,0.41,0.3,0.69,0.85
7.159412860870361,0.41,0.85,0.59,1.11
7.178550958633423,0.35,1.31,0.68,1.51
7.179255962371826,0.31,1.71,0.79,1.9
7.189399003982544,0.33,2.06,0.91,2.27
7.199174880981445,0.44,2.44,1.08,2.7
7.209542989730835,0.46,2.84,1.17,3.1
7.228729963302612,0.44,3.14,1.19,3.38
7.229209899902344,0.33,3.27,1.01,3.43
7.239416122436523,0.29,3.37,0.75,3.46
7.249279022216797,0.3,3.79,1.1,3.95
7.259461879730225,0.4,4.37,1.95,4.8
7.278782844543457,0.12,4.25,1.92,4.66
7.279286861419678,-0.59,3.87,0.07,3.91
7.289483070373535,-1.14,3.96,-2.28,4.7
7.29923677444458,-1.16,3.89,-3.14,5.13
7.309545040130615,-1.32,2.99,-2.49,4.1
7.329246997833252,-1.46,1.76,-1.58,2.77
7.329696893692017,-1.35,1.03,-1.1,2.02
7.3395490646362305,-1.18,0.67,-1.01,1.69
7.349402904510498,-1.09,0.35,-1.35,1.77
7.359391927719116,-1.09,0.16,-1.79,2.1
7.379379987716675,-0.9,0.19,-1.89,2.1
7.379828929901123,-0.59,0.29,-1.65,1.77
7.38956093788147,-0.27,0.46,-1.26,1.36
7.399325847625732,-0.02,0.57,-0.97,1.12
7.409514904022217,0.24,0.46,-0.83,0.97
7.429471015930176,0.26,0.23,-0.86,0.92
7.429905891418457,0.31,-0.06,-0.88,0.93
7.439570903778076,0.22,-0.66,-0.74,1.01
7.44937801361084,0.08,-1.46,-0.67,1.6
7.459574937820435,-0.07,-2.19,-0.57,2.26
7.479197978973389,-0.17,-2.75,-0.43,2.78
7.47957181930542,-0.26,-3.24,-0.32,3.26
7.489490032196045,-0.23,-3.6,-0.22,3.61
7.499269962310791,-0.14,-3.8,-0.12,3.8
7.509541988372803,-0.05,-3.91,-0.07,3.91
7.529285907745361,-0.01,-4.0,0.01,4.0
7.529699802398682,0.01,-3.94,0.17,3.94
7.539548873901367,-0.03,-3.75,0.3,3.76
7.549268007278442,-0.13,-3.51,0.59,3.56
7.559571981430054,-0.26,-3.11,0.95,3.26
7.579211950302124,-0.38,-2.53,1.07,2.77
7.5795979499816895,-0.58,-1.91,1.1,2.27
7.589585781097412,-0.69,-1.29,0.91,1.72
7.599343776702881,-0.7,-0.67,0.52,1.09
7.609545946121216,-0.61,-0.09,0.09,0.62
7.629522800445557,-0.66,0.37,-0.27,0.8
7.629953861236572,-0.7,0.8,-0.37,1.12
7.639631986618042,-0.73,1.17,-0.07,1.38
7.649290084838867,-0.72,1.5,0.56,1.75
7.659608840942383,-0.66,1.71,1.05,2.11
7.679624080657959,-0.54,1.83,1.22,2.26
7.680053949356079,-0.37,1.95,1.24,2.34
7.689513921737671,-0.32,2.06,1.24,2.42
7.699292898178101,-0.35,2.27,1.15,2.56
7.709619045257568,-0.47,2.32,0.81,2.5
7.730040073394775,-0.61,2.35,0.5,2.47
7.730461120605469,-0.88,2.34,0.24,2.51
7.739516973495483,-0.66,2.89,0.77,3.06
7.749409914016724,-0.12,3.96,2.35,4.6
7.759613990783691,0.2,4.01,2.67,4.82
7.779973983764648,0.78,3.39,-0.12,3.48
7.780404090881348,1.02,3.82,-3.15,5.05
7.789513111114502,0.77,4.21,-3.7,5.65
7.799385070800781,0.81,3.17,-2.48,4.1
7.809704780578613,1.02,1.66,-1.4,2.39
7.83008599281311,1.39,0.49,-1.0,1.78
7.830513000488281,1.48,-0.38,-1.02,1.83
7.839638948440552,1.4,-1.11,-1.21,2.15
7.84950590133667,1.28,-1.46,-1.31,2.34
7.859704971313477,1.03,-1.43,-1.15,2.1
7.880007982254028,0.73,-1.18,-1.02,1.72
7.880441904067993,0.4,-0.94,-1.16,1.54
7.889519929885864,0.13,-0.6,-1.3,1.43
7.899627923965454,-0.08,-0.29,-1.3,1.33
7.90969705581665,-0.3,-0.04,-1.13,1.16
7.930768966674805,-0.46,0.07,-0.96,1.06
7.93120002746582,-0.57,-0.02,-0.83,1.0
7.939537048339844,-0.63,-0.35,-0.75,1.04
7.949801921844482,-0.47,-1.07,-0.67,1.34
7.959695816040039,-0.17,-1.9,-0.56,1.98
7.981261968612671,-0.04,-2.53,-0.37,2.55
7.981718063354492,-0.09,-3.05,-0.15,3.05
7.9895899295806885,-0.11,-3.37,-0.05,3.37
7.999911785125732,-0.1,-3.49,-0.03,3.49
8.006649017333984,-0.1,-3.49,-0.03,3.49
8.029567956924438,-0.03,-3.53,-0.16,3.53
8.029977798461914,0.03,-3.5,-0.13,3.5
8.036828994750977,0.06,-3.37,0.02,3.37
8.046875953674316,0.07,-3.14,0.14,3.14
8.062481880187988,0.13,-2.78,0.31,2.8
8.066674947738647,0.25,-2.38,0.42,2.42
8.076880931854248,0.44,-2.06,0.56,2.17
8.086966037750244,0.51,-1.74,0.63,1.91
8.096911907196045,0.53,-1.33,0.63,1.56
8.113168001174927,0.55,-0.93,0.61,1.24
8.116729974746704,0.63,-0.52,0.46,0.93
8.126851081848145,0.73,-0.12,0.32,0.8
8.136775970458984,0.81,0.09,0.3,0.86
8.146791934967041,0.88,0.26,0.45,1.02
8.163477897644043,0.91,0.42,0.85,1.31
8.166853904724121,0.85,0.65,1.19,1.6
8.176973819732666,0.76,1.09,1.44,1.95
8.186811923980713,0.67,1.63,1.66,2.42
8.196892976760864,0.63,2.04,1.89,2.85
8.214038848876953,0.6,2.23,1.72,2.87
8.216954946517944,0.62,2.35,1.22,2.71
8.226958990097046,0.61,2.55,0.62,2.69
8.236931800842285,0.61,3.16,0.63,3.27
8.246997833251953,0.51,4.09,1.7,4.45
8.264121055603027,0.19,4.96,2.77,5.68
8.26703405380249,-0.48,5.04,2.09,5.47
8.277025938034058,-1.18,5.01,-0.12,5.14
8.28679609298706,-1.49,5.02,-2.07,5.63
8.296947002410889,-1.38,4.1,-2.45,4.97
8.314412117004395,-1.33,2.64,-1.89,3.5
8.317410945892334,-1.16,1.52,-1.56,2.46
8.327162981033325,-0.99,0.54,-1.5,1.87
8.336996078491211,-0.84,0.03,-1.41,1.64
8.34708309173584,-0.71,0.09,-1.19,1.38
8.364718914031982,-0.72,0.43,-1.12,1.39
8.36666488647461,-0.73,0.77,-1.06,1.49
8.376998901367188,-0.67,0.81,-0.9,1.38
8.38682508468628,-0.53,0.48,-0.78,1.05
8.397377967834473,-0.27,0.01,-0.92,0.95
8.415786981582642,0.03,-0.35,-0.95,1.01
8.417431831359863,0.09,-0.57,-0.93,1.09
8.427055835723877,0.16,-0.81,-0.81,1.15
8.436957836151123,0.17,-1.17,-0.82,1.43
8.446975946426392,0.16,-1.62,-0.92,1.86
8.465991020202637,0.17,-2.18,-0.96,2.38
8.466787815093994,0.16,-2.73,-0.87,2.86
8.477148056030273,0.13,-3.18,-0.74,3.26
8.486963987350464,0.11,-3.58,-0.56,3.62
8.497036933898926,0.07,-3.87,-0.31,3.88
8.515605926513672,0.01,-4.05,-0.03,4.05
8.516825914382935,-0.06,-4.09,0.13,4.09
8.527066946029663,-0.08,-4.02,0.26,4.02
8.536998987197876,-0.09,-3.77,0.28,3.78
8.54698395729065,-0.18,-3.33,0.29,3.34
8.56616997718811,-0.27,-2.8,0.4,2.84
8.566776990890503,-0.36,-2.25,0.41,2.31
8.577085971832275,-0.44,-1.72,0.47,1.83
8.587069034576416,-0.52,-1.22,0.58,1.44
8.597090005874634,-0.54,-0.77,0.54,1.08
8.615643978118896,-0.53,-0.39,0.39,0.76
8.616843938827515,-0.51,-0.1,0.3,0.6
8.627105951309204,-0.64,0.18,0.29,0.72
8.637134075164795,-0.65,0.61,0.56,1.05
8.647037982940674,-0.59,0.95,1.05,1.53
8.665987014770508,-0.42,1.14,1.44,1.88
8.666846990585327,-0.32,1.47,1.36,2.02
8.677138805389404,-0.27,2.03,1.09,2.31
8.686887979507446,-0.27,2.63,1.04,2.84
8.697064876556396,-0.47,3.11,1.2,3.36
8.716052055358887,-0.77,3.35,1.18,3.63
8.71689510345459,-0.96,3.42,0.94,3.67
8.72713589668274,-1.13,3.31,0.69,3.56
8.737049102783203,-1.0,3.47,0.8,3.69
8.747034072875977,-0.16,4.41,2.09,4.88
8.766156911849976,0.42,5.1,3.3,6.08
8.766822814941406,0.97,4.9,1.15,5.12
8.777130126953125,1.47,5.28,-2.65,6.08
8.786921977996826,1.31,5.56,-3.83,6.87
8.797040939331055,1.04,3.95,-2.74,4.91
8.815934896469116,1.06,1.94,-1.83,2.86
8.816870927810669,1.21,0.46,-1.47,1.95
8.827085971832275,1.35,-0.57,-1.32,1.97
8.83699083328247,1.53,-1.23,-1.08,2.24
8.8470139503479,1.74,-1.88,-1.11,2.79
8.865906000137329,1.86,-2.3,-1.25,3.21
8.866836071014404,1.65,-1.8,-1.3,2.76
8.877136945724487,1.26,-1.04,-1.29,2.08
8.886945009231567,0.7,-0.66,-1.32,1.63
8.897118091583252,0.17,-0.24,-1.35,1.38
8.91566801071167,-0.31,0.08,-1.38,1.41
8.916913032531738,-0.53,0.19,-1.33,1.44
8.92707109451294,-0.73,-0.13,-1.23,1.43
8.937144994735718,-0.76,-0.65,-1.09,1.47
8.947062969207764,-0.78,-1.31,-0.97,1.8
8.966127872467041,-0.66,-2.05,-0.73,2.27
8.966892957687378,-0.58,-2.76,-0.38,2.84
8.977145910263062,-0.52,-3.28,-0.06,3.32
8.987015008926392,-0.5,-3.67,0.07,3.7
8.997087955474854,-0.41,-3.91,-0.02,3.93
9.016297817230225,-0.35,-4.04,-0.11,4.05
9.016995906829834,-0.26,-4.11,0.0,4.11
9.027105808258057,-0.17,-4.09,0.2,4.09
9.03718900680542,-0.12,-3.87,0.32,3.88
9.047075986862183,0.0,-3.45,0.43,3.47
9.065802097320557,-0.03,-2.93,0.5,2.97
9.066883087158203,0.03,-2.41,0.53,2.46
9.077132940292358,0.15,-1.93,0.68,2.05
9.087095975875854,0.21,-1.43,0.81,1.65
9.09712290763855,0.2,-1.03,0.77,1.3
9.115763902664185,0.19,-0.71,0.78,1.07
9.116925954818726,0.25,-0.4,0.93,1.04
9.127140045166016,0.18,-0.17,1.0,1.03
9.1371169090271,0.24,0.1,1.27,1.29
9.147043943405151,0.36,0.32,1.68,1.74
9.165478944778442,0.49,0.5,1.92,2.04
9.166882038116455,0.6,0.91,1.86,2.15
9.177098989486694,0.58,1.54,1.84,2.46
9.186916828155518,0.52,2.29,1.74,2.92
9.197115898132324,0.48,2.94,1.39,3.28
9.216115951538086,0.46,3.44,0.9,3.58
9.21694803237915,0.32,3.78,0.45,3.82
9.227081775665283,0.27,4.01,0.53,4.05
9.237019062042236,0.24,4.33,1.19,4.49
9.247171878814697,0.26,5.08,2.45,5.64
9.266772985458374,-0.13,5.29,2.85,6.01
9.267208099365234,-1.1,4.76,1.11,5.0
9.277183055877686,-1.86,4.55,-1.92,5.27
9.286984920501709,-1.63,4.05,-3.71,5.72
9.297175884246826,-1.42,2.62,-3.4,4.52
9.316527843475342,-1.25,1.51,-2.09,2.86
9.317014932632446,-1.06,0.84,-1.08,1.73
9.327143907546997,-1.09,0.23,-0.79,1.36
9.337004899978638,-1.12,-0.08,-0.97,1.48
9.347206115722656,-1.03,-0.12,-1.1,1.51
9.366966962814331,-1.02,-0.15,-1.31,1.66
9.367419958114624,-0.93,0.09,-1.47,1.74
9.377191066741943,-0.76,0.33,-1.58,1.78
9.386943817138672,-0.57,0.34,-1.82,1.93
9.397191047668457,-0.31,0.37,-1.95,2.0
9.416575908660889,-0.03,0.27,-1.78,1.8
9.417006969451904,0.14,0.05,-1.36,1.36
9.427191972732544,0.28,-0.34,-0.93,1.02
9.437079906463623,0.42,-0.92,-0.68,1.21
9.447105884552002,0.4,-1.67,-0.59,1.81
9.466865062713623,0.24,-2.31,-0.53,2.38
9.4673171043396,0.06,-2.88,-0.51,2.92
9.477250099182129,0.0,-3.32,-0.29,3.33
9.487035989761353,-0.03,-3.63,-0.22,3.63
9.49728798866272,-0.01,-3.76,-0.26,3.76
9.517096042633057,-0.03,-3.8,-0.31,3.81
9.51752495765686,-0.02,-3.77,-0.34,3.78
9.527187824249268,0.05,-3.65,-0.2,3.65
9.537133932113647,0.1,-3.46,-0.04,3.46
9.547142028808594,0.15,-3.12,0.09,3.12
9.567363977432251,0.16,-2.74,0.17,2.74
9.567792892456055,0.07,-2.36,0.24,2.37
9.577299118041992,-0.02,-1.93,0.22,1.94
9.58708906173706,-0.03,-1.53,0.21,1.54
9.597240924835205,-0.1,-1.13,0.29,1.17
9.617100954055786,-0.23,-0.72,0.45,0.87
9.617560863494873,-0.32,-0.4,0.47,0.69
9.62720799446106,-0.41,-0.08,0.54,0.68
9.63716197013855,-0.51,0.31,0.86,1.04
9.647258996963501,-0.67,0.82,1.22,1.61
9.667547941207886,-0.79,1.4,1.4,2.13
9.667975902557373,-0.74,1.92,1.33,2.45
9.677196025848389,-0.53,2.35,1.14,2.66
9.687005996704102,-0.2,2.75,1.1,2.96
9.697321891784668,-0.03,3.05,1.11,3.24
9.71757984161377,-0.05,3.31,0.96,3.44
9.71799898147583,-0.2,3.52,0.68,3.59
9.727195978164673,-0.51,3.37,0.53,3.44
9.737164974212646,-0.88,3.39,0.88,3.61
9.747216939926147,-0.6,3.99,2.22,4.6
9.76709508895874,-0.27,4.31,3.25,5.4
9.767514944076538,0.01,4.01,1.79,4.39
9.777245998382568,0.21,4.1,-1.46,4.35
9.78709077835083,-0.11,4.51,-3.66,5.8
9.797308921813965,-0.54,3.43,-3.8,5.14
9.817288875579834,-0.12,1.83,-2.68,3.24
9.8177170753479,0.52,0.49,-1.57,1.72
9.827229022979736,0.97,-0.86,-1.16,1.73
9.837201118469238,1.19,-1.74,-1.12,2.38
9.847301959991455,1.3,-2.11,-1.04,2.68
9.867218017578125,1.37,-2.02,-1.19,2.71
9.867616891860962,1.23,-1.32,-1.35,2.25
9.877273082733154,0.63,-0.68,-1.37,1.65
9.88709306716919,-0.02,-0.27,-1.54,1.56
9.897320985794067,-0.52,0.2,-1.51,1.6
9.91753101348877,-0.71,0.5,-1.03,1.34
9.91791582107544,-0.71,0.47,-0.68,1.08
9.927294969558716,-0.73,0.26,-0.68,1.03
9.937181949615479,-0.75,-0.1,-0.75,1.06
9.947278022766113,-0.62,-0.53,-0.67,1.05
9.968126773834229,-0.54,-1.1,-0.6,1.36
9.968563079833984,-0.39,-1.75,-0.46,1.85
9.977386951446533,-0.2,-2.35,-0.2,2.36
9.987112045288086,-0.11,-2.75,0.0,2.75
9.997302055358887,-0.07,-2.96,0.04,2.96
10.018212795257568,-0.03,-3.07,-0.06,3.07
10.018669128417969,0.06,-3.16,-0.05,3.16
10.027265071868896,0.18,-3.23,-0.03,3.23
10.037094116210938,0.15,-3.24,0.04,3.24
10.047307014465332,0.22,-3.17,0.14,3.18
10.068071842193604,0.28,-3.1,0.21,3.11
10.06849479675293,0.33,-3.01,0.36,3.04
10.077369928359985,0.39,-2.75,0.55,2.83
10.087299823760986,0.51,-2.25,0.7,2.41
10.097381114959717,0.54,-1.94,0.67,2.12
10.118067979812622,0.56,-1.57,0.58,1.76
10.118521928787231,0.61,-1.11,0.55,1.38
10.127306938171387,0.66,-0.68,0.61,1.12
10.137208938598633,0.67,-0.24,0.86,1.11
10.147280931472778,0.62,0.15,1.02,1.2
10.167088031768799,0.53,0.45,1.09,1.29
10.167490005493164,0.53,0.72,1.14,1.44
10.177376985549927,0.56,1.06,1.17,1.67
10.187335014343262,0.54,1.49,1.28,2.03
10.197420120239258,0.56,1.81,1.26,2.27
10.217443943023682,0.56,2.17,1.11,2.5
10.217864990234375,0.52,2.54,0.87,2.73
10.227315902709961,0.65,2.84,0.51,2.95
10.237350940704346,0.83,3.2,0.48,3.34
10.24738097190857,0.81,3.88,1.32,4.17
10.268569946289062,0.63,4.65,2.34,5.24
10.269001007080078,-0.12,4.76,1.96,5.14
10.277432918548584,-1.14,4.66,-0.05,4.79
10.287463903427124,-1.77,4.89,-1.82,5.5
10.297425985336304,-2.17,4.51,-2.22,5.47
10.318357944488525,-1.98,3.65,-1.72,4.49
10.318790912628174,-1.73,2.74,-1.33,3.5
10.327320098876953,-1.52,1.86,-1.63,2.9
10.337504863739014,-1.28,1.23,-2.1,2.74
10.347354888916016,-1.11,0.68,-2.37,2.7
10.368220806121826,-0.8,0.45,-2.59,2.74
10.368685960769653,-0.52,0.28,-2.74,2.8
10.377343893051147,-0.18,0.03,-2.41,2.41
10.387667894363403,0.13,-0.28,-1.75,1.77
10.39742398262024,0.48,-0.66,-1.12,1.38
10.418086051940918,0.69,-0.96,-0.82,1.43
10.418523788452148,0.76,-1.11,-0.7,1.51
10.427279949188232,0.74,-1.11,-0.43,1.4
10.437727928161621,0.59,-1.2,-0.28,1.36
10.447418928146362,0.44,-1.45,-0.22,1.53
10.469121932983398,0.23,-1.79,-0.22,1.81
10.46956491470337,0.06,-2.07,-0.25,2.08
10.477355003356934,-0.1,-2.34,-0.15,2.34
10.487753868103027,-0.15,-2.68,0.06,2.68
10.49741506576538,-0.18,-3.03,0.12,3.03
10.51937198638916,-0.2,-3.31,0.13,3.31
10.519783973693848,-0.26,-3.5,0.06,3.51
10.527344942092896,-0.34,-3.55,0.09,3.56
10.537866115570068,-0.4,-3.41,0.28,3.44
10.547433853149414,-0.45,-3.17,0.37,3.22
10.568537950515747,-0.41,-2.9,0.44,2.96
10.568997859954834,-0.36,-2.56,0.51,2.63
10.577505111694336,-0.35,-2.17,0.46,2.24
10.58726191520691,-0.3,-1.72,0.38,1.78
10.597481966018677,-0.24,-1.31,0.34,1.37
10.618568897247314,-0.24,-0.96,0.46,1.09
10.618992805480957,-0.27,-0.71,0.5,0.9
10.627439975738525,-0.28,-0.51,0.41,0.71
10.637316942214966,-0.39,-0.28,0.32,0.57
10.647332906723022,-0.47,0.0,0.37,0.59
10.668363094329834,-0.57,0.34,0.49,0.82
10.66878604888916,-0.62,0.68,0.63,1.11
10.677330017089844,-0.69,1.12,0.92,1.6
10.687321901321411,-0.72,1.6,1.26,2.16
10.697413921356201,-0.7,1.95,1.2,2.39
10.719125986099243,-0.58,2.35,0.88,2.57
10.719536781311035,-0.64,2.66,0.61,2.8
10.727391958236694,-0.78,2.85,0.55,3.0
10.73735499382019,-0.98,3.0,0.42,3.18
10.74740982055664,-1.07,3.31,0.75,3.55
10.76810884475708,-0.61,4.13,2.02,4.63
10.768548011779785,0.1,5.04,3.58,6.18
10.777442932128906,0.52,5.1,2.81,5.84
10.78741979598999,0.57,5.14,-0.9,5.24
10.797514915466309,0.35,5.46,-4.04,6.8
10.81831407546997,-0.07,4.42,-4.36,6.2
10.818726062774658,0.0,2.53,-2.82,3.78
10.827425956726074,0.45,1.12,-1.33,1.79
10.837439060211182,0.91,-0.04,-0.82,1.22
10.847475051879883,1.08,-0.87,-0.92,1.66
10.869241952896118,1.21,-1.39,-0.92,2.05
10.86967396736145,1.35,-1.52,-1.0,2.26
10.877548933029175,1.43,-1.09,-1.14,2.12
10.887434005737305,1.18,-0.57,-1.41,1.92
10.897567987442017,0.82,-0.23,-1.63,1.83
10.919460773468018,0.49,0.09,-1.54,1.61
10.919886112213135,0.13,0.29,-1.07,1.11
10.927381992340088,-0.13,0.34,-0.55,0.65
10.937427043914795,-0.4,0.1,-0.48,0.63
10.947444915771484,-0.51,-0.45,-0.53,0.86
10.96978497505188,-0.43,-1.13,-0.51,1.31
10.970228910446167,-0.34,-1.67,-0.61,1.81
10.977529048919678,-0.23,-2.1,-0.55,2.18
10.98742389678955,-0.1,-2.54,-0.33,2.56
10.997538089752197,0.06,-2.86,-0.16,2.86
11.019659042358398,0.1,-3.15,-0.16,3.15
11.020094871520996,0.16,-3.41,-0.14,3.41
11.027402877807617,0.22,-3.62,-0.15,3.62
11.037466049194336,0.3,-3.71,-0.07,3.72
11.047537803649902,0.36,-3.7,0.0,3.71
11.069966793060303,0.37,-3.58,0.11,3.6
11.070404052734375,0.41,-3.33,0.28,3.36
11.077479839324951,0.55,-2.92,0.49,3.01
11.087424993515015,0.59,-2.32,0.67,2.48
11.097548007965088,0.58,-1.83,0.74,2.05
11.119876861572266,0.6,-1.35,0.63,1.6
11.120309829711914,0.57,-0.85,0.45,1.11
11.127441883087158,0.58,-0.46,0.31,0.8
11.137540817260742,0.5,-0.19,0.18,0.56
11.147541999816895,0.44,0.03,0.24,0.5
11.170253992080688,0.47,0.2,0.58,0.77
11.170676946640015,0.44,0.35,0.84,1.01
11.177571773529053,0.45,0.58,1.06,1.28
11.18755578994751,0.52,0.86,1.23,1.58
11.197580814361572,0.7,1.21,1.25,1.87
11.220019817352295,0.82,1.52,1.14,2.06
11.220433950424194,0.69,1.78,0.73,2.04
11.227503776550293,0.59,2.06,0.4,2.17
11.237553119659424,0.4,2.18,-0.04,2.21
11.247500896453857,0.26,2.2,-0.26,2.23
11.269913911819458,0.06,2.52,0.28,2.53
11.270351886749268,-0.07,3.46,1.49,3.76
11.277485847473145,-0.13,4.45,2.64,5.17
11.287400007247925,-0.96,4.56,1.74,4.97
11.297514915466309,-1.99,4.38,-0.88,4.89
11.319722890853882,-2.09,4.31,-2.32,5.32
11.32015085220337,-1.81,3.76,-1.66,4.49
11.327325820922852,-1.81,2.84,-0.68,3.43
11.337562084197998,-1.36,2.26,-0.71,2.73
11.347497940063477,-0.95,1.76,-1.28,2.37
11.370146989822388,-0.66,1.38,-1.58,2.19
11.370573043823242,-0.43,1.03,-1.45,1.82
11.377459049224854,-0.31,0.54,-1.16,1.31
11.38744306564331,-0.21,0.12,-0.97,0.99
11.397634029388428,-0.11,-0.09,-0.72,0.73
11.420017004013062,-0.1,-0.17,-0.55,0.58
11.420413970947266,-0.08,-0.35,-0.55,0.65
11.427474975585938,0.03,-0.61,-0.65,0.89
11.437490940093994,0.14,-0.81,-0.67,1.06
11.447516918182373,0.2,-1.03,-0.8,1.31
11.470170974731445,0.16,-1.24,-0.9,1.54
11.470614910125732,0.08,-1.51,-0.76,1.69
11.477415084838867,-0.08,-1.91,-0.64,2.01
11.487438917160034,-0.2,-2.25,-0.48,2.3
11.497533798217773,-0.16,-2.68,-0.36,2.7
11.52030611038208,-0.1,-3.07,-0.32,3.08
11.520724773406982,-0.08,-3.4,-0.23,3.4
11.5274338722229,-0.1,-3.63,-0.11,3.63
11.537496089935303,-0.11,-3.75,0.01,3.75
11.547576904296875,-0.16,-3.73,0.09,3.73
11.570106029510498,-0.12,-3.52,0.27,3.53
11.570522785186768,-0.07,-3.07,0.56,3.12
11.577554941177368,-0.08,-2.58,0.74,2.68
11.587535858154297,-0.21,-2.19,0.77,2.33
11.597685813903809,-0.19,-1.73,0.64,1.85
11.619823932647705,-0.26,-1.23,0.52,1.36
11.620244026184082,-0.29,-0.82,0.38,0.94
11.627448081970215,-0.33,-0.48,0.42,0.71
11.637555122375488,-0.4,-0.23,0.43,0.63
11.64767599105835,-0.42,-0.08,0.39,0.57
11.670401096343994,-0.43,0.08,0.24,0.49
11.670835971832275,-0.45,0.42,0.37,0.71
11.677591800689697,-0.49,0.72,0.9,1.25
11.687604904174805,-0.66,0.94,1.41,1.81
11.697696924209595,-0.71,1.27,1.73,2.26
11.720886945724487,-0.74,1.66,1.7,2.48
11.721316814422607,-0.64,2.09,1.43,2.61
11.727636814117432,-0.56,2.5,1.26,2.85
11.737555027008057,-0.67,2.65,1.05,2.92
11.747666835784912,-0.79,2.63,0.69,2.83
11.770853996276855,-0.83,2.71,0.5,2.87
11.771308898925781,-0.96,2.8,0.65,3.03
11.777647018432617,-0.48,3.33,1.46,3.66
11.787580013275146,0.48,4.06,2.88,5.0
11.797697067260742,0.91,3.91,2.44,4.69
11.820898056030273,1.14,3.5,-1.0,3.81
11.821338891983032,1.24,3.94,-3.93,5.7
11.827708005905151,1.07,3.71,-3.62,5.29
11.837597846984863,0.89,1.98,-2.02,2.96
11.84773302078247,1.11,0.68,-0.75,1.5
11.87120008468628,1.25,-0.22,-0.33,1.31
11.871647834777832,1.32,-0.7,-0.49,1.57
11.877532005310059,1.29,-0.76,-1.08,1.84
11.887590885162354,1.14,-0.84,-1.38,1.97
11.897679805755615,0.93,-0.9,-1.32,1.84
11.921303987503052,0.7,-0.55,-1.25,1.53
11.921737909317017,0.44,0.03,-1.09,1.17
11.927416801452637,-0.02,0.18,-1.09,1.1
11.937603950500488,-0.32,0.1,-1.07,1.12
11.947672843933105,-0.54,-0.07,-1.04,1.17
11.971067905426025,-0.52,-0.46,-1.09,1.29
11.971503973007202,-0.34,-0.96,-1.0,1.42
11.977664947509766,-0.27,-1.48,-0.82,1.71
11.987634897232056,-0.16,-1.99,-0.66,2.1
11.997689962387085,0.04,-2.45,-0.44,2.48
12.020139932632446,0.19,-2.79,-0.14,2.79
12.02056097984314,0.22,-2.95,0.11,2.96
12.027527809143066,0.16,-3.01,0.1,3.01
12.037662029266357,0.08,-3.05,-0.02,3.05
12.047602891921997,0.09,-3.12,-0.03,3.12
12.070640087127686,0.15,-3.16,0.04,3.16
12.071100950241089,0.24,-3.12,0.27,3.14
12.07774305343628,0.3,-3.0,0.4,3.04
12.087639808654785,0.34,-2.84,0.41,2.88
12.09778881072998,0.43,-2.47,0.4,2.53
12.12083911895752,0.39,-2.02,0.32,2.08
12.121255874633789,0.36,-1.73,0.29,1.79
12.127562999725342,0.33,-1.47,0.3,1.53
12.137699127197266,0.25,-1.23,0.32,1.29
12.147607803344727,0.21,-0.9,0.48,1.04
12.170809984207153,0.25,-0.52,0.69,0.89
12.171222925186157,0.32,-0.12,0.87,0.93
12.177915096282959,0.29,0.34,1.01,1.1
12.187585830688477,0.57,0.94,1.3,1.7
12.197808980941772,0.61,1.67,1.45,2.29
12.221450805664062,0.51,2.26,1.32,2.66
12.221858978271484,0.33,2.76,1.04,2.96
12.22762680053711,0.26,3.19,0.72,3.28
12.237643003463745,0.29,3.33,0.33,3.35
12.247728824615479,0.36,3.24,0.06,3.26
12.27306604385376,0.42,3.37,0.58,3.44
12.273571014404297,0.53,4.0,2.09,4.54
12.2775239944458,0.14,4.54,3.29,5.6
12.287705898284912,-0.66,4.34,2.26,4.93
12.297857999801636,-1.25,4.18,-0.69,4.41
12.321475982666016,-1.45,4.12,-2.99,5.29
12.321891784667969,-1.4,3.05,-3.27,4.68
12.327777862548828,-1.31,1.86,-2.32,3.24
12.337831020355225,-1.25,0.79,-1.35,2.0
12.34776496887207,-1.35,-0.3,-1.09,1.76
12.37216591835022,-1.38,-0.88,-0.92,1.87
12.372676849365234,-1.31,-1.05,-0.57,1.77
12.377799034118652,-1.44,-0.91,-0.43,1.75
12.387728929519653,-1.36,-0.24,-0.68,1.53
12.397910118103027,-1.26,0.26,-1.21,1.76
12.422698974609375,-0.76,0.6,-1.39,1.69
12.423167943954468,-0.47,0.49,-1.02,1.22
12.430579900741577,-0.27,0.29,-0.87,0.95
12.440347909927368,0.03,0.11,-0.74,0.74
12.450557947158813,0.17,-0.18,-0.44,0.5
12.47254991531372,0.06,-0.66,-0.33,0.74
12.472985982894897,-0.1,-1.37,-0.32,1.41
12.480362892150879,-0.14,-2.12,-0.17,2.13
12.490339994430542,-0.17,-2.73,-0.03,2.73
12.500404834747314,-0.14,-3.23,-0.02,3.23
12.52249789237976,-0.04,-3.63,-0.18,3.63
12.522926807403564,0.01,-3.88,-0.38,3.89
12.530322074890137,0.11,-3.91,-0.26,3.92
12.54036283493042,0.08,-3.76,-0.01,3.76
12.550379991531372,0.04,-3.52,0.27,3.53
12.571860790252686,-0.06,-3.15,0.54,3.19
12.572280883789062,-0.16,-2.67,0.6,2.74
12.580579996109009,-0.31,-2.2,0.62,2.3
12.590380907058716,-0.41,-1.76,0.68,1.93
12.600507974624634,-0.51,-1.35,0.58,1.55
12.622303009033203,-0.53,-0.96,0.45,1.18
12.622735023498535,-0.59,-0.6,0.25,0.87
12.630461931228638,-0.64,-0.28,0.12,0.7
12.640450954437256,-0.73,0.19,0.14,0.76
12.650463104248047,-0.9,0.71,0.57,1.28
12.672218799591064,-0.99,1.1,1.08,1.83
12.672658920288086,-0.93,1.44,1.43,2.23
12.680399894714355,-0.81,1.97,1.7,2.72
12.690422058105469,-0.69,2.5,1.63,3.06
12.700546979904175,-0.63,3.12,1.5,3.51
12.722466945648193,-0.71,3.65,1.38,3.96
12.722886085510254,-0.95,3.77,0.94,3.99
12.730321884155273,-1.18,3.6,0.47,3.81
12.740456104278564,-1.44,3.38,0.45,3.7
12.750452995300293,-1.22,3.63,1.11,3.98
12.772027969360352,-0.53,4.58,2.81,5.39
12.772442817687988,0.06,4.87,3.42,5.95
12.78049087524414,1.02,4.46,0.66,4.62
12.790398120880127,1.33,4.39,-3.36,5.68
12.800501823425293,1.08,3.7,-4.45,5.88
12.822587013244629,0.98,2.34,-2.84,3.8
12.823008060455322,0.99,0.98,-1.27,1.88
12.830451965332031,1.24,-0.19,-0.79,1.48
12.840567111968994,1.32,-1.05,-1.2,2.07
12.850573062896729,1.26,-1.6,-1.62,2.6
12.872851848602295,1.27,-1.99,-1.57,2.83
12.873302936553955,1.33,-2.16,-1.28,2.84
12.880469799041748,1.13,-1.58,-0.99,2.18
12.890414953231812,0.42,-0.91,-1.04,1.44
12.900547981262207,-0.09,-0.28,-1.28,1.31
12.923268795013428,-0.47,0.22,-1.2,1.3
12.923719882965088,-0.77,0.38,-1.08,1.37
12.930408954620361,-1.03,0.39,-1.05,1.52
12.940483093261719,-1.1,0.21,-0.97,1.48
12.950504779815674,-0.95,-0.25,-0.91,1.33
12.972615003585815,-0.55,-0.94,-0.73,1.31
12.973055839538574,-0.23,-1.83,-0.59,1.93
12.980475902557373,-0.04,-2.55,-0.37,2.57
12.990391969680786,0.05,-3.05,-0.12,3.05
13.000459909439087,0.07,-3.34,0.0,3.34
13.023303985595703,0.06,-3.56,-0.04,3.56
13.023715019226074,0.06,-3.82,-0.12,3.82
13.030389785766602,-0.03,-4.0,-0.13,4.0
13.040395975112915,-0.11,-3.98,-0.01,3.98
13.050350904464722,-0.11,-3.8,0.12,3.8
13.07308292388916,-0.02,-3.61,0.25,3.61
13.073505878448486,0.15,-3.3,0.46,3.33
13.080596923828125,0.34,-2.83,0.66,2.92
13.090485095977783,0.37,-2.32,0.74,2.46
13.10055685043335,0.4,-1.87,0.81,2.07
13.123690128326416,0.38,-1.41,0.77,1.65
13.124125957489014,0.4,-0.97,0.8,1.31
13.130491971969604,0.42,-0.66,0.73,1.06
13.140501976013184,0.47,-0.33,0.61,0.83
13.150497913360596,0.55,-0.14,0.49,0.74
13.173757076263428,0.58,0.0,0.63,0.85
13.174192905426025,0.69,0.34,1.1,1.34
13.18044400215149,0.73,0.8,1.54,1.88
13.19046401977539,0.77,1.26,1.81,2.33
13.200532913208008,0.91,1.84,1.95,2.83
13.223567008972168,0.9,2.49,1.77,3.18
13.223953008651733,0.9,3.06,1.49,3.52
13.230623960494995,1.03,3.46,1.24,3.81
13.240477085113525,1.02,4.03,1.2,4.32
13.250579833984375,0.86,5.09,2.01,5.53
13.273964881896973,0.41,5.95,3.2,6.76
13.274394035339355,-0.33,6.36,3.0,7.03
13.280411958694458,-0.98,6.43,1.13,6.6
13.290470123291016,-1.35,5.98,-1.43,6.29
13.300572872161865,-1.3,4.82,-3.46,6.07
13.323907852172852,-1.12,3.68,-4.27,5.74
13.32431697845459,-1.12,2.4,-3.69,4.54
13.330529928207397,-1.22,0.97,-2.57,3.0
13.34054708480835,-1.07,-0.17,-1.85,2.14
13.350587844848633,-0.87,-1.06,-1.49,2.02
13.373209953308105,-0.74,-1.5,-1.49,2.24
13.373629093170166,-0.65,-1.01,-1.45,1.88
13.380568027496338,-0.58,-0.52,-1.09,1.33
13.39057207107544,-0.36,-0.44,-0.89,1.05
13.400643825531006,-0.17,-0.24,-0.87,0.91
13.423608779907227,0.04,-0.12,-1.04,1.04
13.424071788787842,0.15,-0.11,-0.99,1.0
13.430547952651978,0.19,-0.23,-0.76,0.81
13.440553903579712,0.15,-0.51,-0.54,0.75
13.450598001480103,0.02,-0.95,-0.35,1.01
13.473764896392822,-0.05,-1.52,-0.26,1.54
13.474196910858154,-0.14,-2.2,-0.21,2.21
13.480556011199951,-0.21,-2.84,-0.24,2.85
13.49052906036377,-0.15,-3.22,-0.21,3.23
13.500671863555908,-0.16,-3.54,-0.26,3.55
13.52410078048706,-0.14,-3.82,-0.31,3.83
13.524548053741455,-0.09,-4.05,-0.28,4.06
13.530480861663818,-0.08,-4.13,-0.2,4.13
13.540585994720459,-0.11,-4.05,-0.06,4.05
13.550565958023071,-0.11,-3.83,0.09,3.83
13.573509931564331,-0.1,-3.54,0.21,3.54
13.573928833007812,-0.16,-3.16,0.37,3.18
13.580597877502441,-0.27,-2.62,0.44,2.67
13.59056806564331,-0.35,-2.05,0.42,2.12
13.600621938705444,-0.43,-1.52,0.44,1.63
13.623385906219482,-0.43,-1.12,0.47,1.28
13.623805046081543,-0.38,-0.83,0.36,0.98
13.630640983581543,-0.34,-0.44,0.2,0.59
13.640585899353027,-0.41,0.21,0.27,0.53
13.650718927383423,-0.56,1.0,0.71,1.34
13.67425012588501,-0.86,1.86,1.36,2.45
13.674676895141602,-0.95,2.61,1.74,3.27
13.680531978607178,-0.8,3.15,1.7,3.66
13.690490961074829,-0.54,3.54,1.53,3.89
13.700623989105225,-0.43,3.81,1.37,4.07
13.7241849899292,-0.53,3.77,1.14,3.97
13.724609851837158,-0.76,3.25,1.06,3.5
13.730592966079712,-1.1,2.9,1.05,3.27
13.740543842315674,-1.18,3.07,1.35,3.55
13.750659942626953,-0.34,3.85,2.4,4.54
13.774792909622192,0.29,4.75,3.33,5.8
13.775209903717041,0.88,4.61,1.18,4.83
13.780707836151123,1.62,4.81,-3.1,5.94
13.790571928024292,1.31,5.13,-5.17,7.4
13.800733089447021,0.48,3.55,-4.46,5.72
13.824699878692627,0.3,1.62,-2.73,3.18
13.825117111206055,0.65,0.18,-1.09,1.28
13.830626964569092,1.06,-0.9,-0.44,1.45
13.840644836425781,1.08,-1.51,-0.61,1.95
13.850685119628906,1.06,-1.87,-0.74,2.27
13.874549865722656,1.1,-2.0,-0.82,2.42
13.874972820281982,0.93,-1.65,-0.92,2.1
13.880592823028564,0.43,-1.11,-1.14,1.64
13.890675067901611,0.02,-0.6,-1.47,1.58
13.900722026824951,-0.3,-0.12,-1.45,1.48
13.924997806549072,-0.55,0.27,-1.17,1.32
13.925439834594727,-0.75,0.41,-0.98,1.3
13.930593013763428,-0.8,0.31,-0.77,1.15
13.940531969070435,-0.83,0.0,-0.57,1.0
13.95062780380249,-0.72,-0.63,-0.38,1.02
13.975064992904663,-0.35,-1.45,-0.14,1.49
13.975494861602783,-0.19,-2.21,0.02,2.21
13.980597019195557,-0.05,-2.71,0.16,2.71
13.990653038024902,-0.01,-2.99,0.19,2.99
14.000736951828003,0.03,-3.14,0.07,3.14
14.024478912353516,0.08,-3.3,-0.05,3.3
14.024910926818848,0.2,-3.46,0.04,3.46
14.030570983886719,0.29,-3.54,0.15,3.55
14.040750980377197,0.31,-3.47,0.13,3.48
14.050676822662354,0.3,-3.36,0.1,3.37
14.074710845947266,0.32,-3.15,0.23,3.17
14.075133800506592,0.31,-2.73,0.34,2.76
14.080626964569092,0.31,-2.16,0.41,2.22
14.090611934661865,0.36,-1.75,0.38,1.82
14.100656032562256,0.44,-1.36,0.22,1.44
14.125218868255615,0.54,-0.95,0.15,1.1
14.12562084197998,0.6,-0.62,0.15,0.87
14.13061809539795,0.7,-0.39,0.2,0.82
14.140666961669922,0.72,-0.13,0.3,0.79
14.150676965713501,0.69,0.3,0.43,0.86
14.17490005493164,0.69,0.76,0.68,1.23
14.175323963165283,0.77,1.35,1.14,1.92
14.18067193031311,0.76,2.0,1.56,2.64
14.190690994262695,0.58,2.41,1.59,2.94
14.200675964355469,0.42,2.78,1.34,3.11
14.225368022918701,0.34,3.07,1.03,3.25
14.225782871246338,0.33,3.05,0.71,3.14
14.23065710067749,0.37,3.02,0.58,3.09
14.240556001663208,0.39,3.25,0.89,3.39
14.250650882720947,0.36,3.95,2.16,4.51
14.275437831878662,0.01,4.43,3.18,5.45
14.27585506439209,-0.6,4.26,2.19,4.82
14.280700922012329,-0.83,3.91,-0.76,4.06
14.29063892364502,-0.8,3.22,-3.22,4.62
14.30066204071045,-0.93,2.14,-3.46,4.17
14.325257778167725,-0.87,1.42,-2.27,2.81
14.325679779052734,-1.04,0.53,-1.07,1.58
14.330729961395264,-1.24,-0.4,-0.53,1.4
14.340686798095703,-1.42,-0.85,-0.63,1.77
14.350745916366577,-1.45,-0.65,-0.77,1.76
14.375428915023804,-1.38,-0.13,-0.94,1.67
14.375849962234497,-1.24,0.18,-1.32,1.82
14.3805570602417,-0.88,0.44,-1.45,1.75
14.390682935714722,-0.54,0.52,-1.35,1.54
14.400722026824951,-0.17,0.36,-1.14,1.2
14.4254789352417,0.01,0.11,-0.9,0.9
14.425915956497192,0.18,-0.25,-0.65,0.71
14.430553913116455,0.19,-0.55,-0.43,0.72
14.440643787384033,0.21,-0.89,-0.28,0.95
14.450689792633057,0.14,-1.41,-0.24,1.43
14.47622799873352,0.06,-1.9,-0.26,1.91
14.476684093475342,0.02,-2.31,-0.33,2.33
14.4807448387146,0.05,-2.62,-0.38,2.64
14.490746021270752,0.07,-2.86,-0.39,2.88
14.500775814056396,0.05,-3.07,-0.51,3.11
14.510677814483643,0.0,-3.23,-0.62,3.28
14.52611494064331,-0.11,-3.28,-0.62,3.33
14.53061294555664,-0.22,-3.24,-0.42,3.27
14.54075288772583,-0.38,-3.19,-0.06,3.21
14.550750970840454,-0.48,-2.95,0.31,3.0
14.560694932937622,-0.52,-2.62,0.52,2.72
14.575501918792725,-0.53,-2.26,0.59,2.39
14.580799102783203,-0.56,-1.87,0.53,2.02
14.59080195426941,-0.48,-1.48,0.5,1.63
14.60081696510315,-0.41,-1.16,0.42,1.3
14.610686779022217,-0.37,-0.87,0.24,0.97
14.62602186203003,-0.31,-0.56,0.12,0.65
14.63082504272461,-0.32,-0.14,0.17,0.38
14.640771865844727,-0.4,0.39,0.51,0.75
14.650797843933105,-0.63,0.88,1.0,1.47
14.660749912261963,-0.76,1.35,1.44,2.11
14.676570892333984,-0.83,1.82,1.54,2.52
14.680767059326172,-0.73,2.33,1.37,2.79
14.69075894355774,-0.65,2.82,1.27,3.16
14.700809955596924,-0.8,3.1,1.13,3.39
14.710760116577148,-1.03,3.13,0.92,3.42
14.727294921875,-1.29,2.95,0.86,3.33
14.730720043182373,-1.47,2.65,1.03,3.2
14.74075698852539,-0.83,3.07,1.78,3.64
14.750843048095703,0.13,4.43,3.45,5.61
14.760871887207031,0.83,4.78,3.44,5.94
14.77692699432373,1.7,4.49,-0.56,4.83
14.780822992324829,1.71,4.78,-4.56,6.82
14.790733814239502,0.95,4.01,-4.65,6.21
14.800771951675415,0.6,2.45,-2.46,3.52
14.810720920562744,0.66,1.31,-0.94,1.74
14.82592487335205,0.72,0.34,-0.69,1.05
14.830658912658691,0.92,-0.44,-1.01,1.43
14.840758800506592,1.0,-1.03,-1.32,1.95
14.850862979888916,1.05,-1.46,-1.51,2.34
14.860788822174072,1.19,-1.53,-1.38,2.37
14.87619400024414,0.99,-0.82,-1.08,1.67
14.880852937698364,0.58,-0.28,-1.11,1.28
14.890785932540894,0.31,0.18,-1.26,1.31
14.900839805603027,0.1,0.62,-1.05,1.22
14.910758972167969,-0.19,0.74,-0.81,1.11
14.926022052764893,-0.35,0.66,-0.71,1.03
14.930866956710815,-0.49,0.24,-0.58,0.79
14.940785884857178,-0.71,-0.54,-0.57,1.05
14.950828075408936,-0.73,-1.47,-0.42,1.69
14.960761070251465,-0.58,-2.25,-0.24,2.33
14.975944995880127,-0.47,-2.84,-0.09,2.88
14.980639934539795,-0.27,-3.29,0.05,3.3
14.990755081176758,-0.19,-3.57,0.0,3.57
15.000840902328491,-0.11,-3.7,-0.12,3.7
15.010779857635498,-0.01,-3.75,-0.17,3.75
15.02647089958191,0.07,-3.74,-0.1,3.74
15.030811786651611,0.18,-3.67,0.09,3.67
15.04078483581543,0.24,-3.52,0.28,3.53
15.050833940505981,0.27,-3.31,0.43,3.34
15.060784816741943,0.36,-3.01,0.59,3.08
15.076027870178223,0.41,-2.66,0.57,2.75
15.080842971801758,0.47,-2.37,0.41,2.45
15.090846061706543,0.54,-2.09,0.3,2.17
15.100907802581787,0.6,-1.79,0.22,1.9
15.110756874084473,0.66,-1.44,0.1,1.58
15.12612795829773,0.67,-1.13,0.14,1.32
15.13064193725586,0.66,-0.83,0.34,1.11
15.140841007232666,0.54,-0.42,0.67,0.95
15.150826930999756,0.58,0.1,1.05,1.2
15.160846948623657,0.6,0.79,1.39,1.7
15.17687702178955,0.63,1.6,1.62,2.36
15.1808180809021,0.67,2.43,1.59,2.98
15.190812110900879,0.68,3.13,1.39,3.49
15.200836896896362,0.66,3.55,0.87,3.71
15.210787773132324,0.74,3.81,0.23,3.88
15.22667407989502,0.84,3.92,0.16,4.01
15.230817794799805,0.61,4.21,0.99,4.36
15.240813970565796,0.5,4.95,2.59,5.6
15.250852108001709,0.04,5.37,4.04,6.72
15.260814905166626,-0.78,4.91,3.15,5.88
15.276791095733643,-1.47,4.53,0.15,4.76
15.280925989151001,-1.59,4.27,-2.31,5.1
15.290868997573853,-1.4,2.9,-3.24,4.56
15.300868034362793,-1.09,1.73,-2.64,3.33
15.310856819152832,-1.03,0.68,-1.79,2.17
15.326611995697021,-1.07,-0.18,-1.49,1.84
15.33086109161377,-1.01,-0.61,-1.51,1.91
15.340825080871582,-1.06,-0.72,-1.42,1.91
15.350893020629883,-1.15,-0.43,-1.31,1.79
15.360873937606812,-1.07,0.02,-1.5,1.84
15.377563953399658,-0.83,0.32,-1.72,1.93
15.380921840667725,-0.5,0.46,-1.64,1.77
15.390902996063232,-0.21,0.43,-1.33,1.41
15.400933980941772,0.09,0.31,-1.11,1.15
15.410876989364624,0.25,0.06,-0.82,0.85
15.427057981491089,0.26,-0.36,-0.56,0.71
15.430736064910889,0.22,-0.85,-0.19,0.89
15.440898895263672,0.09,-1.49,0.14,1.49
15.450891017913818,-0.01,-2.1,0.22,2.11
15.460949897766113,-0.15,-2.61,0.25,2.62
15.47714900970459,-0.19,-3.04,0.23,3.05
15.480700969696045,-0.21,-3.43,0.08,3.43
15.490849018096924,-0.21,-3.72,0.02,3.72
15.500945091247559,-0.23,-3.92,-0.08,3.92
15.510828971862793,-0.2,-3.99,-0.05,3.99
15.527107000350952,-0.06,-3.93,0.0,3.93
15.53083086013794,-0.06,-3.7,0.17,3.7
15.540914058685303,-0.12,-3.39,0.38,3.41
15.550915956497192,-0.24,-2.98,0.62,3.05
15.560898780822754,-0.47,-2.45,0.84,2.63
15.57712697982788,-0.54,-1.82,0.77,2.04
15.580747127532959,-0.56,-1.35,0.52,1.55
15.590919017791748,-0.46,-1.16,0.0,1.24
15.60100793838501,-0.31,-0.96,-0.54,1.14
15.610902786254883,-0.23,-0.66,-0.87,1.11
15.627439975738525,-0.18,-0.18,-0.73,0.77
15.630752086639404,-0.25,0.35,-0.08,0.43
15.640930891036987,-0.52,0.85,0.75,1.24
15.650936126708984,-0.62,1.35,1.51,2.11
15.660894870758057,-0.76,1.89,1.74,2.67
15.677473068237305,-0.72,2.58,1.74,3.19
15.680840015411377,-0.72,3.27,1.72,3.76
15.690912961959839,-0.82,3.8,1.65,4.22
15.700979948043823,-1.06,4.09,1.37,4.44
15.710805892944336,-1.15,4.05,1.29,4.4
15.727628946304321,-1.3,3.96,1.45,4.41
15.730733871459961,-0.95,4.26,1.94,4.77
15.74094009399414,-0.05,5.09,3.32,6.07
15.750978946685791,0.38,5.61,3.89,6.83
15.760921001434326,0.97,5.36,1.14,5.56
15.777682781219482,1.29,4.49,-2.82,5.45
15.780780792236328,1.3,3.34,-3.86,5.26
15.790987968444824,1.06,2.12,-2.46,3.41
15.800935983657837,0.87,0.87,-1.38,1.84
15.810878992080688,0.83,-0.31,-1.34,1.6
15.82753300666809,0.89,-1.32,-1.49,2.18
15.830843925476074,0.96,-2.19,-1.22,2.68
15.840960025787354,1.06,-2.77,-0.83,3.07
15.850948810577393,1.21,-2.63,-0.83,3.01
15.860958099365234,1.13,-1.59,-1.08,2.22
15.878122806549072,0.86,-0.96,-1.39,1.89
15.880831956863403,0.58,-0.43,-1.62,1.77
15.89099407196045,0.35,0.14,-1.65,1.69
15.900980949401855,0.13,0.54,-1.35,1.45
15.91092300415039,-0.07,0.55,-0.89,1.04
15.927901983261108,-0.27,0.17,-0.71,0.77
15.930783987045288,-0.45,-0.47,-0.74,0.98
15.941072940826416,-0.4,-1.14,-0.61,1.35
15.951040983200073,-0.3,-1.85,-0.4,1.91
15.960887908935547,-0.17,-2.42,-0.21,2.43
15.977828979492188,-0.05,-2.93,0.01,2.93
15.980840921401978,0.05,-3.28,0.12,3.28
15.990901947021484,0.12,-3.46,0.03,3.46
16.000971794128418,0.17,-3.51,-0.11,3.51
16.008060932159424,0.18,-3.51,-0.1,3.51
16.02689290046692,0.2,-3.54,-0.15,3.54
16.028032779693604,0.29,-3.54,0.03,3.55
16.038209915161133,0.35,-3.42,0.25,3.44
16.048213958740234,0.32,-3.08,0.4,3.12
16.058340072631836,0.27,-2.59,0.61,2.67
16.07712197303772,0.2,-2.14,0.8,2.29
16.07829999923706,0.21,-1.81,0.85,2.01
16.088392972946167,0.24,-1.44,0.76,1.64
16.0982928276062,0.31,-0.99,0.64,1.21
16.10849905014038,0.34,-0.58,0.55,0.86
16.12718105316162,0.45,-0.28,0.49,0.72
16.128081798553467,0.66,-0.01,0.47,0.81
16.138200998306274,0.72,0.18,0.47,0.87
16.14816379547119,0.69,0.52,0.68,1.09
16.158283948898315,0.75,1.05,1.13,1.71
16.177236080169678,0.79,1.54,1.52,2.3
16.178072929382324,0.75,2.05,1.7,2.76
16.188336849212646,0.64,2.58,1.55,3.07
16.198144912719727,0.52,2.96,0.84,3.12
16.208322048187256,0.32,3.14,-0.15,3.15
16.228009939193726,0.21,3.43,-0.64,3.49
16.22842788696289,0.05,4.1,0.11,4.1
16.238390922546387,0.06,4.91,1.79,5.22
16.24820590019226,-0.42,5.02,2.58,5.65
16.25905990600586,-1.32,4.42,0.74,4.67
16.278677940368652,-1.82,4.05,-2.02,4.87
16.27917790412903,-1.67,3.47,-3.46,5.17
16.288481950759888,-1.55,2.39,-2.98,4.12
16.298215866088867,-1.37,1.54,-1.8,2.73
16.30834197998047,-1.22,0.83,-0.89,1.72
16.328685998916626,-1.17,0.39,-0.65,1.39
16.32908797264099,-1.15,0.37,-0.69,1.39
16.338510036468506,-1.19,0.62,-0.82,1.57
16.348252773284912,-1.18,0.88,-1.13,1.85
16.358398914337158,-1.04,1.03,-1.36,1.99
16.378922939300537,-0.84,0.95,-1.23,1.76
16.37934398651123,-0.69,0.66,-1.02,1.39
16.3884220123291,-0.48,0.2,-0.98,1.1
16.3985538482666,-0.38,-0.38,-0.95,1.09
16.409761905670166,-0.36,-0.93,-0.83,1.29
16.429726123809814,-0.36,-1.44,-0.69,1.63
16.430157899856567,-0.33,-1.97,-0.48,2.05
16.43972897529602,-0.27,-2.43,-0.39,2.47
16.449557781219482,-0.14,-2.96,-0.29,2.97
16.459585905075073,-0.05,-3.39,-0.2,3.39
16.479322910308838,0.01,-3.71,-0.15,3.71
16.479783058166504,0.05,-3.95,-0.09,3.95
16.489667892456055,0.11,-4.15,-0.03,4.15
16.499629974365234,0.16,-4.25,0.05,4.25
16.50964093208313,0.13,-4.12,0.08,4.12
16.528986930847168,0.08,-3.79,0.19,3.79
16.52943181991577,0.12,-3.34,0.52,3.38
16.53968095779419,0.07,-2.82,0.8,2.93
16.549555778503418,0.04,-2.32,0.97,2.51
16.55967378616333,-0.06,-1.85,0.93,2.07
16.578292846679688,-0.07,-1.37,0.84,1.6
16.57945680618286,-0.06,-0.93,0.79,1.22
16.589696884155273,-0.14,-0.53,0.74,0.92
16.599453926086426,-0.24,-0.09,0.65,0.69
16.609646797180176,-0.33,0.29,0.54,0.69
16.62873411178589,-0.37,0.66,0.56,0.94
16.629504919052124,-0.46,0.98,0.87,1.38
16.639676094055176,-0.45,1.34,1.33,1.94
16.64966583251953,-0.43,1.67,1.54,2.31
16.659626007080078,-0.27,2.1,1.39,2.53
16.67869806289673,-0.08,2.55,1.31,2.86
16.679501056671143,-0.03,3.01,1.15,3.22
16.689758777618408,-0.23,3.33,0.94,3.46
16.699484825134277,-0.69,3.45,0.67,3.58
16.709816932678223,-1.13,3.59,0.7,3.82
16.72915506362915,-1.16,4.1,1.4,4.48
16.729580879211426,-0.24,5.09,2.85,5.83
16.739699840545654,0.1,5.25,3.26,6.18
16.749634981155396,0.3,4.6,0.19,4.61
16.759681940078735,-0.03,4.45,-3.98,5.97
16.779296875,-0.36,3.68,-5.02,6.23
16.779751777648926,0.16,2.08,-2.93,3.59
16.7897629737854,0.97,0.67,-0.83,1.44
16.799551963806152,1.75,-0.6,-0.17,1.85
16.809752941131592,2.15,-1.29,-0.69,2.6
16.829394817352295,2.12,-1.38,-1.31,2.84
16.82984495162964,1.81,-1.19,-1.67,2.73
16.83981704711914,1.3,-0.82,-1.77,2.34
16.849493980407715,0.71,-0.52,-1.71,1.92
16.859752893447876,0.12,-0.28,-1.55,1.57
16.879339933395386,-0.48,-0.01,-1.55,1.62
16.879782915115356,-0.86,0.19,-1.63,1.85
16.889731884002686,-0.98,0.16,-1.6,1.88
16.899491786956787,-1.07,-0.04,-1.48,1.82
16.909700870513916,-1.1,-0.41,-1.32,1.76
16.929430961608887,-0.73,-1.02,-1.03,1.62
16.92986798286438,-0.4,-1.84,-0.8,2.04
16.939777851104736,-0.19,-2.63,-0.68,2.72
16.949501037597656,-0.04,-3.21,-0.38,3.23
16.959808826446533,0.01,-3.64,0.02,3.64
16.979654788970947,-0.06,-3.91,0.24,3.91
16.98004698753357,-0.06,-3.97,0.2,3.97
16.98967981338501,-0.02,-3.87,0.2,3.87
16.999591827392578,0.04,-3.75,0.25,3.75
17.00977611541748,0.01,-3.58,0.24,3.58
17.02916193008423,0.04,-3.21,0.34,3.22
17.029757022857666,0.19,-2.69,0.48,2.73
17.03975200653076,0.29,-2.3,0.57,2.38
17.049561023712158,0.42,-2.02,0.54,2.13
17.059802055358887,0.48,-1.71,0.52,1.85
17.07957696914673,0.44,-1.32,0.39,1.44
17.080002784729004,0.41,-0.95,0.28,1.07
17.089837074279785,0.42,-0.66,0.3,0.83
17.099609851837158,0.4,-0.4,0.4,0.69
17.109829902648926,0.39,-0.18,0.47,0.63
17.129645824432373,0.42,0.09,0.62,0.75
17.13006591796875,0.56,0.46,0.93,1.17
17.139729976654053,0.7,0.99,1.26,1.74
17.14966583251953,0.77,1.69,1.59,2.44
17.15977191925049,0.72,2.43,1.85,3.13
17.179770946502686,0.65,2.94,1.62,3.41
17.180202960968018,0.58,3.31,0.9,3.47
17.189745903015137,0.58,3.65,0.23,3.7
17.199592113494873,0.5,3.85,0.08,3.88
17.20983099937439,0.53,4.16,0.94,4.29
17.230101108551025,0.5,4.56,2.52,5.23
17.230525970458984,0.2,4.59,3.15,5.57
17.23982000350952,-0.82,4.39,1.15,4.61
17.249610900878906,-1.81,4.41,-2.03,5.18
17.259885787963867,-1.99,3.72,-3.62,5.55
17.28016710281372,-1.74,2.46,-3.07,4.3
17.280582904815674,-1.47,1.46,-1.58,2.6
17.28979778289795,-1.38,0.63,-0.48,1.59
17.299681901931763,-1.28,0.19,-0.3,1.32
17.309879779815674,-1.21,0.08,-0.49,1.3
17.329986095428467,-1.18,0.18,-0.71,1.38
17.33042597770691,-1.12,0.43,-1.23,1.71
17.33983612060547,-0.99,0.52,-1.85,2.16
17.349612951278687,-0.69,0.54,-2.19,2.35
17.359929084777832,-0.7,0.4,-2.13,2.27
17.380826950073242,-0.43,0.14,-1.9,1.95
17.381256103515625,-0.36,-0.12,-1.5,1.54
17.38988208770752,-0.21,-0.42,-0.94,1.05
17.399603843688965,0.09,-0.99,-0.34,1.05
17.40993881225586,0.33,-1.83,-0.01,1.85
17.43053698539734,0.45,-2.58,0.02,2.61
17.430952072143555,0.4,-3.1,0.11,3.12
17.43983793258667,0.38,-3.47,0.14,3.49
17.44970703125,0.27,-3.65,-0.02,3.66
17.459886074066162,0.29,-3.83,-0.18,3.84
17.480998992919922,0.21,-3.93,-0.3,3.94
17.481426000595093,0.14,-3.94,-0.28,3.95
17.48985195159912,-0.02,-3.8,-0.2,3.8
17.49976396560669,-0.21,-3.52,0.04,3.52
17.51006507873535,-0.35,-3.19,0.35,3.22
17.527267932891846,-0.47,-2.75,0.6,2.85
17.52967405319214,-0.56,-2.27,0.82,2.47
17.539842128753662,-0.61,-1.76,0.86,2.05
17.55011510848999,-0.69,-1.3,0.62,1.59
17.559868812561035,-0.74,-0.93,0.32,1.23
17.576820850372314,-0.68,-0.68,0.07,0.96
17.579632997512817,-0.65,-0.43,-0.17,0.79
17.589687824249268,-0.7,-0.21,-0.27,0.77
17.599803924560547,-0.64,0.08,0.08,0.64
17.609683990478516,-0.65,0.51,0.75,1.11
17.624671936035156,-0.67,1.05,1.46,1.91
17.629541873931885,-0.58,1.8,1.94,2.7
17.63981008529663,-0.49,2.48,1.94,3.18
17.6504168510437,-0.49,3.11,1.56,3.51
17.65993309020996,-0.49,3.76,1.21,3.98
17.676837921142578,-0.55,4.21,0.97,4.35
17.67989492416382,-0.76,4.38,0.84,4.52
17.68993091583252,-1.15,4.53,1.03,4.78
17.700605869293213,-0.6,5.08,2.3,5.6
17.71028995513916,0.3,5.63,3.91,6.86
17.73726797103882,0.67,5.45,3.03,6.27
17.738532066345215,0.62,5.15,-0.43,5.2
17.73976993560791,0.13,4.62,-3.16,5.59
17.752746105194092,0.1,3.3,-3.14,4.55
17.7601261138916,0.28,1.77,-2.06,2.73
17.783382892608643,0.43,0.12,-1.66,1.71
17.784565925598145,0.65,-1.37,-1.91,2.43
17.789870977401733,0.72,-2.44,-2.09,3.29
17.802334785461426,1.11,-3.12,-1.63,3.69
17.810025930404663,1.38,-3.27,-1.34,3.79
17.833772897720337,1.34,-2.36,-1.41,3.05
17.835060119628906,1.01,-1.61,-1.85,2.65
17.840045928955078,0.63,-0.75,-2.19,2.39
17.849828004837036,0.28,0.31,-1.96,2.0
17.865900993347168,0.02,1.11,-1.64,1.98
17.86986207962036,-0.13,1.63,-1.13,1.98
17.87993097305298,-0.33,1.62,-0.69,1.79
17.88995885848999,-0.54,1.23,-0.55,1.45
17.89993190765381,-0.59,0.64,-0.5,1.0
17.916605949401855,-0.59,-0.43,-0.48,0.87
17.919797897338867,-0.41,-1.35,-0.21,1.42
17.929870128631592,-0.32,-2.07,0.03,2.09
17.940016984939575,-0.16,-2.69,0.25,2.7
17.94985008239746,-0.23,-3.11,0.3,3.13
17.966291904449463,-0.29,-3.41,0.11,3.42
17.969831943511963,-0.29,-3.61,-0.11,3.62
17.97980308532715,-0.24,-3.83,-0.26,3.84
17.98996591567993,-0.13,-4.03,-0.23,4.03
17.9999098777771,-0.06,-4.13,-0.01,4.13
18.015836000442505,0.0,-4.11,0.3,4.12
18.01972794532776,0.08,-3.95,0.53,3.98
18.02985191345215,0.16,-3.61,0.76,3.69
18.039928913116455,0.21,-2.88,0.9,3.02
18.049921989440918,0.16,-2.27,0.9,2.44
18.06559181213379,0.16,-1.66,0.61,1.77
18.069963932037354,0.28,-1.03,0.32,1.11
18.07984495162964,0.41,-0.48,0.11,0.64
18.089927911758423,0.43,-0.12,0.06,0.45
18.09999704360962,0.61,0.13,0.49,0.79
18.11530900001526,0.75,0.48,1.17,1.47
18.11978578567505,0.87,1.02,1.94,2.35
18.1298770904541,0.92,1.65,2.35,3.01
18.139989852905273,1.02,2.41,2.25,3.45
18.149981021881104,0.81,3.15,1.86,3.74
18.166003942489624,0.73,3.77,1.2,4.02
18.16995906829834,0.72,4.02,0.58,4.12
18.17990207672119,0.84,3.78,0.06,3.87
18.189929962158203,0.73,3.46,0.0,3.53
18.199947834014893,0.79,3.58,1.19,3.85
18.21509885787964,0.8,4.03,3.07,5.12
18.219846963882446,0.29,3.93,3.39,5.19
18.230021953582764,-1.16,3.19,0.8,3.48
18.24005389213562,-2.14,2.77,-2.52,4.31
18.2499361038208,-1.81,2.28,-3.5,4.55
18.265236854553223,-1.45,1.63,-2.4,3.24
18.26998281478882,-1.37,0.88,-1.29,2.07
18.279923915863037,-1.38,0.51,-1.01,1.78
18.290024995803833,-1.49,0.58,-1.19,1.99
18.299993991851807,-1.43,0.93,-1.31,2.15
18.315613985061646,-1.24,1.24,-1.32,2.19
18.320076942443848,-0.94,1.47,-1.28,2.16
18.32987880706787,-0.68,1.52,-1.27,2.09
18.340013027191162,-0.34,1.45,-1.04,1.81
18.35002088546753,0.04,1.18,-0.89,1.47
18.366578102111816,0.35,0.62,-0.73,1.01
18.369915008544922,0.43,-0.1,-0.51,0.67
18.380005836486816,0.39,-0.87,-0.35,1.01
18.390027046203613,0.21,-1.54,-0.3,1.58
18.400004863739014,0.05,-2.14,-0.29,2.16
18.416075944900513,-0.11,-2.68,-0.21,2.69
18.419946908950806,-0.15,-3.06,-0.11,3.06
18.430025100708008,-0.14,-3.42,-0.19,3.42
18.440014839172363,-0.1,-3.64,-0.28,3.65
18.449991941452026,-0.03,-3.75,-0.3,3.76
18.46623706817627,-0.01,-3.81,-0.24,3.81
18.469849109649658,0.0,-3.81,-0.1,3.81
18.480066776275635,-0.03,-3.85,0.05,3.85
18.490049839019775,-0.06,-3.82,0.24,3.82
18.500000953674316,-0.13,-3.53,0.41,3.55
18.517170906066895,-0.23,-3.01,0.68,3.09
18.519985914230347,-0.34,-2.41,0.83,2.57
18.53000497817993,-0.25,-1.82,0.72,1.97
18.54014301300049,-0.11,-1.31,0.34,1.35
18.550047874450684,-0.07,-0.92,-0.11,0.92
18.567276000976562,-0.1,-0.52,-0.43,0.68
18.570055961608887,-0.19,-0.2,-0.5,0.57
18.579957008361816,-0.35,0.12,-0.26,0.45
18.590194940567017,-0.46,0.47,0.16,0.67
18.60000991821289,-0.58,0.86,0.89,1.36
18.617331981658936,-0.61,1.45,1.6,2.24
18.619849920272827,-0.43,2.23,1.94,2.98
18.629994869232178,-0.31,2.89,1.66,3.34
18.640103816986084,-0.23,3.38,1.13,3.57
18.650044918060303,-0.24,3.7,0.62,3.75
18.666786909103394,-0.34,3.63,0.34,3.66
18.669911861419678,-0.56,3.05,0.27,3.11
18.67999792098999,-0.81,2.54,0.44,2.7
18.690130949020386,-1.0,2.43,1.05,2.82
18.700037002563477,-0.29,3.23,2.63,4.17
18.716094970703125,0.54,4.14,4.19,5.91
18.719852924346924,0.73,4.07,2.78,4.98
18.72999596595764,0.71,3.99,-1.78,4.42
18.740059852600098,0.12,4.12,-4.76,6.29
18.750051021575928,-0.11,3.14,-4.04,5.11
18.766166925430298,0.03,1.92,-2.02,2.78
18.769871950149536,0.51,0.67,-0.95,1.26
18.779942989349365,1.07,-0.32,-1.19,1.63
18.790038108825684,1.22,-0.96,-1.81,2.38
18.8000750541687,1.45,-1.39,-1.78,2.68
18.81574583053589,1.47,-1.74,-1.76,2.87
18.819944858551025,1.37,-1.25,-1.65,2.48
18.830049991607666,0.96,-0.69,-1.53,1.93
18.840084075927734,0.57,-0.31,-1.59,1.71
18.850043773651123,0.28,0.21,-1.44,1.48
18.86538791656494,0.05,0.64,-0.96,1.15
18.86989998817444,-0.27,0.83,-0.61,1.06
18.880064010620117,-0.48,0.67,-0.48,0.95
18.88998508453369,-0.47,0.16,-0.44,0.66
18.900080919265747,-0.29,-0.69,-0.46,0.87
18.91531491279602,0.02,-1.6,-0.51,1.67
18.91986894607544,0.22,-2.24,-0.41,2.28
18.930060863494873,0.31,-2.68,-0.2,2.7
18.94007396697998,0.37,-3.01,0.0,3.03
18.950050830841064,0.32,-3.22,0.03,3.23
18.964504957199097,0.33,-3.36,0.05,3.37
18.969873905181885,0.37,-3.46,0.03,3.47
18.98005199432373,0.4,-3.56,0.06,3.58
18.990036010742188,0.47,-3.57,0.2,3.6
19.000085830688477,0.54,-3.48,0.36,3.54
19.015384912490845,0.6,-3.35,0.41,3.42
19.019937992095947,0.67,-3.05,0.54,3.16
19.030029773712158,0.6,-2.53,0.57,2.66
19.040093898773193,0.6,-2.0,0.43,2.13
19.050110816955566,0.51,-1.64,0.16,1.72
19.065435886383057,0.49,-1.23,0.01,1.32
19.069899082183838,0.54,-0.88,0.09,1.03
19.08007287979126,0.59,-0.58,0.25,0.86
19.09021282196045,0.64,-0.38,0.39,0.84
19.10005497932434,0.73,-0.09,0.61,0.95
19.116204977035522,0.72,0.38,0.96,1.25
19.119924068450928,0.84,0.99,1.4,1.9
19.130072116851807,0.96,1.64,1.75,2.58
19.139991998672485,1.04,2.33,1.8,3.12
19.15008306503296,0.94,2.88,1.46,3.36
19.16630506515503,0.74,3.33,0.93,3.53
19.169893980026245,0.56,3.52,0.45,3.59
19.180004119873047,0.26,3.58,0.25,3.59
19.19001793861389,0.2,3.97,1.06,4.11
19.200093984603882,0.25,4.82,3.0,5.68
19.216737985610962,-0.09,5.21,4.31,6.76
19.21997094154358,-0.8,4.69,2.55,5.39
19.23026990890503,-1.45,4.54,-1.07,4.88
19.240153789520264,-1.52,4.38,-3.53,5.82
19.250123023986816,-1.37,3.14,-4.03,5.28
19.268126964569092,-1.37,1.77,-3.57,4.21
19.270145893096924,-1.34,0.6,-2.66,3.03
19.28012490272522,-1.41,-0.38,-1.97,2.45
19.290031909942627,-1.29,-0.93,-1.5,2.18
19.30014991760254,-1.08,-0.89,-1.06,1.75
19.31825304031372,-0.89,-0.44,-0.92,1.35
19.32034206390381,-0.62,-0.17,-1.05,1.23
19.330087900161743,-0.4,0.0,-1.18,1.24
19.340184926986694,-0.12,0.09,-0.89,0.9
19.350132942199707,0.07,0.03,-0.66,0.66
19.36820411682129,0.18,-0.05,-0.51,0.54
19.37039804458618,0.31,-0.31,-0.37,0.57
19.38017988204956,0.31,-0.61,-0.26,0.73
19.390074968338013,0.27,-0.98,-0.19,1.03
19.400182008743286,0.15,-1.43,-0.22,1.45
19.418553829193115,0.04,-1.89,-0.23,1.9
19.420607089996338,-0.12,-2.31,-0.16,2.31
19.43023991584778,-0.09,-2.68,-0.15,2.68
19.44008779525757,-0.04,-3.05,-0.28,3.06
19.45019292831421,-0.03,-3.33,-0.41,3.35
19.46831703186035,-0.06,-3.57,-0.38,3.59
19.470544815063477,-0.07,-3.72,-0.32,3.73
19.48019289970398,-0.04,-3.73,-0.11,3.73
19.490286827087402,-0.01,-3.68,0.09,3.68
19.50020694732666,0.02,-3.4,0.17,3.4
19.51876997947693,-0.02,-2.84,0.18,2.84
19.519937992095947,-0.06,-2.18,0.18,2.18
19.53020477294922,-0.07,-1.55,0.08,1.55
19.540133953094482,-0.19,-0.88,-0.01,0.9
19.55021595954895,-0.23,-0.24,-0.07,0.33
19.56872797012329,-0.23,0.29,-0.16,0.4
19.570012092590332,-0.23,0.67,-0.16,0.72
19.58018398284912,-0.35,0.92,0.02,0.98
19.590105056762695,-0.4,1.16,0.49,1.32
19.60022497177124,-0.47,1.4,1.02,1.79
19.618680000305176,-0.45,1.73,1.32,2.22
19.620136976242065,-0.43,2.17,1.45,2.64
19.630212783813477,-0.58,2.56,1.28,2.92
19.640009880065918,-0.75,2.94,1.16,3.24
19.650249004364014,-0.93,3.08,1.07,3.39
19.66851806640625,-1.04,2.94,0.99,3.27
19.67012095451355,-1.07,2.71,0.92,3.05
19.680153846740723,-1.39,2.57,1.1,3.12
19.69009494781494,-1.42,2.68,1.62,3.43
19.700263023376465,-0.79,3.48,2.72,4.48
19.719162940979004,-0.15,4.24,3.48,5.48
19.72016191482544,0.33,4.16,1.15,4.32
19.73016095161438,0.59,3.69,-3.1,4.85
19.740234851837158,0.5,2.61,-4.3,5.05
19.75026512145996,0.38,1.36,-1.93,2.39
19.769110918045044,0.56,0.17,-0.01,0.58
19.770126819610596,1.18,-0.78,0.38,1.46
19.780179977416992,1.64,-1.18,-0.12,2.02
19.790231943130493,1.7,-1.15,-0.65,2.15
19.800209045410156,1.74,-0.86,-0.79,2.09
19.818275928497314,1.64,-0.43,-0.81,1.87
19.820037841796875,1.21,-0.15,-1.14,1.66
19.830237865447998,0.72,0.03,-1.58,1.73
19.84007501602173,0.23,0.36,-1.5,1.55
19.85023784637451,-0.27,0.64,-1.18,1.36
19.867923974990845,-0.78,0.56,-0.86,1.28
19.87008285522461,-1.15,0.0,-0.73,1.36
19.88043189048767,-1.18,-0.83,-0.94,1.72
19.890455961227417,-1.07,-1.72,-1.19,2.34
19.900187015533447,-0.83,-2.53,-1.07,2.86
19.91638994216919,-0.62,-3.27,-0.86,3.43
19.920198917388916,-0.4,-3.79,-0.65,3.86
19.930367946624756,-0.3,-4.14,-0.5,4.18
19.94026279449463,-0.17,-4.3,-0.33,4.31
19.950296878814697,-0.02,-4.25,-0.2,4.25
19.968738079071045,0.15,-4.12,-0.07,4.12
19.970101833343506,0.25,-3.94,0.15,3.95
19.98036003112793,0.4,-3.59,0.32,3.62
19.990195989608765,0.5,-3.08,0.38,3.14
20.000290870666504,0.52,-2.53,0.4,2.61
20.019356966018677,0.61,-2.04,0.37,2.16
20.0197811126709,0.56,-1.51,0.34,1.64
20.028968811035156,0.55,-0.96,0.33,1.15
20.038888931274414,0.56,-0.54,0.32,0.84
20.048895835876465,0.65,-0.32,0.39,0.82
20.06919288635254,0.66,-0.29,0.41,0.82
20.069645881652832,0.62,-0.18,0.5,0.81
20.07921290397644,0.64,-0.07,0.9,1.1
20.088780879974365,0.64,0.13,1.42,1.56
20.099050998687744,0.72,0.48,1.84,2.03
20.11979579925537,0.71,0.95,2.13,2.43
20.120215892791748,0.61,1.5,2.34,2.84
20.129167079925537,0.55,2.21,2.33,3.25
20.138864040374756,0.5,2.75,2.01,3.44
20.14900493621826,0.58,3.13,1.24,3.41
20.169243812561035,0.83,3.41,0.49,3.54
20.169665813446045,0.98,3.73,0.24,3.86
20.179020881652832,1.1,4.48,1.17,4.75
20.188869953155518,1.09,5.29,2.67,6.02
20.199018001556396,0.34,5.4,2.81,6.09
20.219833850860596,-0.85,4.68,0.34,4.76
20.22031593322754,-1.51,3.86,-2.39,4.78
20.228900909423828,-1.46,2.73,-3.01,4.31
20.239194869995117,-1.33,1.77,-2.13,3.07
20.24910306930542,-1.37,0.76,-1.23,1.99
20.269987106323242,-1.6,0.01,-0.94,1.85
20.27041482925415,-1.75,-0.21,-0.99,2.02
20.27910590171814,-1.83,-0.08,-0.95,2.06
20.289041996002197,-1.98,0.24,-1.13,2.29
20.2990779876709,-1.99,0.67,-1.6,2.63
20.320438861846924,-1.84,0.95,-1.72,2.69
20.32086491584778,-1.45,1.12,-1.53,2.38
20.329169988632202,-0.99,1.16,-1.39,2.06
20.339059829711914,-0.42,0.9,-1.1,1.48
20.349145889282227,0.02,0.22,-0.66,0.69
20.37103796005249,0.32,-0.41,-0.27,0.58
20.371469020843506,0.29,-0.98,0.03,1.02
20.37909984588623,0.12,-1.53,0.09,1.53
20.389221906661987,-0.04,-2.09,0.07,2.09
20.40316390991211,-0.09,-3.14,-0.21,3.14
20.42107105255127,-0.06,-3.48,-0.36,3.49
20.422908782958984,0.01,-3.78,-0.45,3.8
20.432940006256104,0.04,-3.99,-0.45,4.01
20.443007946014404,0.08,-4.05,-0.3,4.06
20.453109979629517,0.06,-4.02,-0.16,4.02
20.470842838287354,-0.03,-3.83,-0.02,3.83
20.472831964492798,-0.13,-3.49,0.28,3.5
20.483186960220337,-0.21,-3.06,0.52,3.11
20.49309492111206,-0.28,-2.64,0.67,2.73
20.503159046173096,-0.35,-2.16,0.68,2.29
20.520834922790527,-0.35,-1.59,0.58,1.72
20.523072004318237,-0.26,-1.09,0.45,1.2
20.533024787902832,-0.24,-0.62,0.18,0.68
20.543046951293945,-0.33,-0.18,0.03,0.37
20.553040981292725,-0.37,0.3,0.11,0.48
20.57064700126648,-0.59,0.77,0.51,1.09
20.57298994064331,-0.6,1.3,0.98,1.73
20.583098888397217,-0.8,1.82,1.4,2.43
20.592916011810303,-0.9,2.29,1.75,3.01
20.603100776672363,-1.03,2.77,1.64,3.37
20.621270895004272,-1.07,3.19,1.26,3.59
20.623087882995605,-1.07,3.48,1.14,3.81
20.63311195373535,-1.16,3.44,1.07,3.78
20.642944812774658,-1.16,3.24,0.89,3.55
20.65312910079956,-1.06,3.14,0.98,3.45
20.671360969543457,-0.16,3.77,2.0,4.27
20.673078060150146,0.92,4.84,3.9,6.28
20.683002948760986,1.24,4.99,3.4,6.16
20.693038940429688,1.54,4.63,-0.7,4.92
20.703138828277588,1.34,4.5,-4.19,6.29
20.720983028411865,0.81,3.54,-3.88,5.31
20.723126888275146,0.78,2.09,-2.12,3.07
20.732969999313354,1.16,0.55,-1.31,1.83
20.743299961090088,1.35,-0.86,-1.64,2.29
20.753106117248535,1.43,-1.58,-2.02,2.93
20.770884037017822,1.3,-1.84,-1.79,2.87
20.77338695526123,1.29,-1.85,-1.54,2.73
20.783193111419678,1.06,-1.55,-1.68,2.51
20.792930126190186,0.47,-0.92,-1.89,2.15
20.803107976913452,-0.23,-0.14,-1.96,1.97
20.82088804244995,-0.73,0.58,-1.92,2.13
20.823323965072632,-1.08,1.04,-1.47,2.09
20.832997798919678,-1.25,1.16,-0.97,1.96
20.843209981918335,-1.43,0.95,-0.71,1.85
20.853121995925903,-1.19,0.34,-0.57,1.36
20.870357990264893,-0.99,-0.57,-0.31,1.18
20.873416900634766,-0.57,-1.51,-0.03,1.61
20.88325309753418,-0.28,-2.36,0.08,2.37
20.89293384552002,-0.15,-3.07,0.03,3.07
20.903103828430176,0.04,-3.63,-0.03,3.63
20.922051906585693,0.12,-4.02,-0.11,4.02
20.923404932022095,0.22,-4.19,-0.13,4.19
20.933069944381714,0.21,-4.27,-0.12,4.27
20.943130016326904,0.19,-4.23,-0.04,4.23
20.953041076660156,0.21,-4.11,0.17,4.11
20.968137979507446,0.24,-3.91,0.41,3.93
20.972929000854492,0.25,-3.6,0.5,3.64
20.983101844787598,0.31,-3.16,0.61,3.23
20.99283790588379,0.34,-2.64,0.68,2.74
21.002936840057373,0.33,-2.17,0.59,2.27
21.019126892089844,0.29,-1.77,0.51,1.86
21.023868083953857,0.28,-1.33,0.37,1.4
21.032905101776123,0.28,-0.9,0.31,0.99
21.042994022369385,0.36,-0.54,0.29,0.71
21.053221940994263,0.57,-0.22,0.36,0.7
21.071871995925903,0.74,0.27,0.59,0.98
21.073067903518677,0.89,0.89,0.99,1.6
21.083218097686768,1.0,1.62,1.39,2.35
21.092971801757812,0.94,2.31,1.81,3.08
21.103298902511597,0.69,2.89,1.87,3.51
21.123345851898193,0.35,3.34,1.67,3.75
21.12437677383423,0.09,3.58,1.36,3.83
21.133193969726562,-0.08,3.61,1.04,3.75
21.142987966537476,-0.02,3.91,1.26,4.1
21.153204917907715,0.21,4.75,2.35,5.3
21.17380690574646,0.0,5.29,3.38,6.27
21.174784898757935,-0.71,5.24,2.12,5.69
21.183294773101807,-1.32,5.22,-0.57,5.41
21.193156957626343,-1.36,4.73,-2.47,5.5
21.20316982269287,-1.36,3.42,-3.4,5.01
21.223203897476196,-1.39,2.18,-3.48,4.33
21.224358081817627,-1.58,0.85,-2.85,3.36
21.233152866363525,-1.59,-0.15,-1.97,2.53
21.243305921554565,-1.62,-0.8,-1.37,2.26
21.25313377380371,-1.6,-1.24,-1.05,2.28
21.27237296104431,-1.49,-0.93,-0.93,1.98
21.27296781539917,-1.25,-0.39,-0.88,1.57
21.283243894577026,-0.99,-0.22,-0.94,1.38
21.29302191734314,-0.63,-0.01,-0.91,1.1
21.303174018859863,-0.2,0.1,-0.78,0.81
21.32275891304016,0.13,0.03,-0.82,0.83
21.323177814483643,0.4,-0.06,-0.92,1.0
21.333056926727295,0.53,-0.19,-0.84,1.01
21.343080043792725,0.47,-0.5,-0.67,0.95
21.353110790252686,0.29,-1.17,-0.48,1.29
21.371822834014893,0.14,-1.91,-0.27,1.93
21.372922897338867,0.08,-2.54,0.05,2.54
21.38320302963257,0.06,-3.17,0.32,3.18
21.393101930618286,0.05,-3.7,0.26,3.7
21.40321397781372,0.09,-4.02,0.07,4.02
21.421827793121338,0.14,-4.14,-0.05,4.14
21.42292594909668,0.14,-4.14,-0.03,4.14
21.433157920837402,0.1,-3.97,0.05,3.97
21.443152904510498,-0.02,-3.71,-0.03,3.71
21.45318603515625,-0.12,-3.36,0.03,3.36
21.471954822540283,-0.22,-2.83,0.38,2.86
21.472943782806396,-0.4,-2.25,0.62,2.36
21.483192920684814,-0.45,-1.72,0.84,1.96
21.4930579662323,-0.57,-1.24,0.89,1.62
21.50320792198181,-0.44,-0.7,0.64,1.04
21.52202796936035,-0.34,-0.27,0.25,0.5
21.5230131149292,-0.29,0.05,0.13,0.32
21.5331449508667,-0.39,0.37,0.36,0.64
21.54315495491028,-0.69,0.72,0.84,1.3
21.55322790145874,-0.93,1.07,1.4,1.99
21.572150945663452,-1.04,1.43,1.8,2.52
21.572932958602905,-1.06,1.85,1.85,2.82
21.58320188522339,-1.01,2.43,1.41,2.98
21.59309196472168,-0.96,3.05,0.9,3.32
21.603221893310547,-1.05,3.53,0.65,3.73
21.622189044952393,-1.33,3.64,0.78,3.95
21.62303590774536,-1.54,3.56,1.05,4.01
21.63317108154297,-1.41,3.77,1.54,4.3
21.643145084381104,-0.57,4.63,2.93,5.5
21.653171062469482,-0.15,5.12,4.52,6.83
21.67261290550232,0.3,5.0,3.11,5.89
21.67303490638733,0.4,5.32,-1.25,5.47
21.68331480026245,0.33,5.16,-4.28,6.71
21.69314694404602,0.55,3.6,-4.18,5.54
21.7032470703125,0.57,2.0,-2.58,3.31
21.723555088043213,0.89,0.45,-1.66,1.93
21.723971843719482,1.2,-0.88,-1.75,2.29
21.733195781707764,1.34,-1.9,-1.85,2.97
21.743125915527344,1.49,-2.47,-1.47,3.23
21.753187894821167,1.54,-2.2,-1.11,2.9
21.772491931915283,1.4,-1.33,-1.16,2.25
21.772998809814453,0.96,-0.94,-1.45,1.97
21.783273935317993,0.56,-0.36,-1.54,1.67
21.79305601119995,0.19,0.25,-1.43,1.46
21.8033127784729,-0.15,0.72,-1.14,1.35
21.822088956832886,-0.41,0.88,-0.83,1.27
21.823086977005005,-0.65,0.71,-0.7,1.19
21.83317279815674,-0.66,0.15,-0.59,0.89
21.843219995498657,-0.5,-0.81,-0.49,1.07
21.853256940841675,-0.29,-1.62,-0.25,1.66
21.872541904449463,-0.17,-2.26,-0.05,2.26
21.872965812683105,-0.05,-2.83,0.06,2.83
21.88332200050354,0.14,-3.3,-0.03,3.3
21.893127918243408,0.25,-3.63,-0.2,3.64
21.90328311920166,0.34,-3.8,-0.24,3.82
21.92343282699585,0.34,-3.88,-0.36,3.91
21.923850059509277,0.38,-3.89,-0.35,3.92
21.933198928833008,0.39,-3.74,-0.16,3.76
21.943237781524658,0.35,-3.42,0.07,3.43
21.95319890975952,0.3,-3.03,0.26,3.05
21.973306894302368,0.33,-2.62,0.38,2.66
21.973721981048584,0.35,-2.24,0.42,2.3
21.98328995704651,0.36,-1.88,0.41,1.95
21.99317979812622,0.4,-1.45,0.49,1.58
22.003350973129272,0.47,-1.02,0.69,1.31
22.023315906524658,0.47,-0.66,0.82,1.15
22.023696899414062,0.47,-0.36,0.98,1.14
22.033278942108154,0.49,-0.04,1.15,1.25
22.043291091918945,0.5,0.35,1.25,1.39
22.05327081680298,0.45,0.66,1.27,1.5
22.074094772338867,0.45,0.94,1.23,1.61
22.07451295852661,0.37,1.31,1.06,1.72
22.083338975906372,0.33,1.66,1.0,1.96
22.09317684173584,0.25,1.95,1.03,2.21
22.10332489013672,0.25,2.3,1.0,2.52
22.12477397918701,0.37,2.57,0.85,2.73
22.125185012817383,0.6,3.3,1.1,3.52
22.133302927017212,0.63,4.29,2.01,4.77
22.14319896697998,0.37,5.14,3.02,5.97
22.15335512161255,-0.28,5.51,2.71,6.14
22.174017906188965,-1.0,5.64,0.74,5.77
22.174438953399658,-1.52,5.63,-1.48,6.01
22.183259963989258,-1.63,4.72,-2.95,5.79
22.19309377670288,-1.51,3.44,-3.44,5.09
22.203314781188965,-1.43,2.12,-3.14,4.04
22.22312092781067,-1.29,0.93,-2.33,2.82
22.2235369682312,-1.22,0.01,-1.53,1.95
22.23322105407715,-1.14,-0.79,-1.16,1.8
22.243174076080322,-0.97,-1.36,-1.12,2.01
22.253294944763184,-0.94,-1.38,-1.21,2.06
22.27363395690918,-0.82,-0.96,-1.22,1.75
22.274037837982178,-0.69,-0.89,-1.43,1.82
22.28336477279663,-0.44,-0.87,-1.49,1.78
22.293179988861084,-0.21,-0.84,-1.31,1.57
22.3033709526062,-0.06,-0.79,-0.94,1.22
22.323182106018066,0.08,-0.84,-0.55,1.0
22.323604106903076,0.14,-0.89,-0.39,0.98
22.33319902420044,0.14,-0.96,-0.28,1.0
22.343224048614502,0.01,-1.11,-0.24,1.13
22.353289127349854,-0.05,-1.43,-0.3,1.46
22.373127937316895,-0.16,-1.87,-0.32,1.9
22.373539924621582,-0.17,-2.19,-0.2,2.2
22.38331389427185,-0.26,-2.56,-0.09,2.57
22.393270015716553,-0.23,-2.95,-0.08,2.96
22.403482913970947,-0.22,-3.22,-0.05,3.22
22.424070835113525,-0.2,-3.38,-0.03,3.38
22.42448902130127,-0.17,-3.42,0.1,3.42
22.433337926864624,-0.14,-3.27,0.33,3.28
22.44333291053772,-0.11,-3.04,0.56,3.09
22.45341396331787,-0.12,-2.73,0.66,2.81
22.47365093231201,-0.12,-2.36,0.65,2.45
22.474061965942383,-0.11,-1.93,0.63,2.03
22.48334789276123,-0.13,-1.5,0.49,1.58
22.49341106414795,-0.19,-1.09,0.26,1.13
22.503474950790405,-0.23,-0.72,0.22,0.78
22.525222778320312,-0.29,-0.39,0.2,0.52
22.525645971298218,-0.35,-0.04,0.28,0.45
22.53327703475952,-0.49,0.34,0.5,0.77
22.54345989227295,-0.62,0.77,0.92,1.35
22.5535089969635,-0.66,1.4,1.3,2.02
22.57487678527832,-0.71,1.96,1.27,2.44
22.57530689239502,-0.76,2.5,0.95,2.78
22.583446979522705,-0.86,3.06,0.73,3.26
22.59352684020996,-1.11,3.35,0.57,3.57
22.6035737991333,-1.35,3.38,0.52,3.67
22.62433910369873,-1.55,3.29,0.72,3.7
22.62475299835205,-1.26,3.6,1.53,4.1
22.633383989334106,-0.38,4.72,3.22,5.72
22.64365577697754,0.06,5.47,4.3,6.95
22.653470993041992,0.85,5.54,2.09,5.98
22.675163984298706,1.31,5.64,-2.38,6.26
22.675589084625244,0.77,5.18,-5.12,7.32
22.683456897735596,0.25,3.67,-4.63,5.91
22.693782806396484,0.2,2.16,-2.8,3.54
22.703474044799805,0.49,0.62,-1.77,1.93
22.72489094734192,0.87,-0.8,-1.61,1.99
22.72530198097229,1.04,-1.87,-1.26,2.48
22.733381986618042,1.11,-2.5,-0.92,2.88
22.74378991127014,1.07,-2.31,-0.93,2.71
22.75347399711609,0.74,-1.58,-0.96,1.99
22.774287939071655,0.25,-1.16,-1.35,1.79
22.774686813354492,-0.05,-0.52,-1.74,1.81
22.783452033996582,-0.28,0.15,-1.58,1.61
22.793738842010498,-0.42,0.71,-1.18,1.43
22.803532123565674,-0.56,0.99,-0.65,1.31
22.824716091156006,-0.63,0.92,-0.28,1.14
22.82508087158203,-0.45,0.39,-0.18,0.62
22.833244800567627,-0.22,-0.52,-0.27,0.62
22.843789100646973,-0.06,-1.43,-0.41,1.48
22.853447914123535,0.05,-2.0,-0.37,2.03
22.873848915100098,0.17,-2.45,-0.25,2.46
22.874260902404785,0.27,-2.91,-0.21,2.93
22.8833749294281,0.41,-3.26,-0.38,3.3
22.893258094787598,0.4,-3.42,-0.5,3.47
22.90346908569336,0.4,-3.46,-0.41,3.5
22.92473793029785,0.44,-3.49,-0.16,3.52
22.925153970718384,0.37,-3.42,0.11,3.44
22.933376789093018,0.31,-3.3,0.36,3.33
22.943500995635986,0.22,-2.99,0.55,3.04
22.95350408554077,0.17,-2.54,0.59,2.61
22.974690914154053,0.16,-2.15,0.42,2.19
22.97509789466858,0.19,-1.84,0.3,1.87
22.983519077301025,0.23,-1.55,0.23,1.58
22.993305921554565,0.35,-1.26,0.42,1.37
23.003533840179443,0.45,-1.07,0.55,1.28
23.024574995040894,0.53,-0.95,0.47,1.18
23.024989128112793,0.57,-0.75,0.54,1.08
23.03343892097473,0.54,-0.46,0.7,0.99
23.043515920639038,0.44,-0.24,0.67,0.83
23.05344796180725,0.44,0.03,0.73,0.85
23.075042009353638,0.44,0.41,0.97,1.14
23.075462818145752,0.59,0.9,1.31,1.69
23.08347797393799,0.55,1.41,1.41,2.06
23.09346103668213,0.53,1.93,1.22,2.34
23.103606939315796,0.67,2.25,0.85,2.49
23.12578296661377,0.77,2.53,0.34,2.66
23.126184940338135,0.94,2.83,0.29,2.99
23.133387088775635,0.87,3.32,0.92,3.55
23.143390893936157,0.83,4.23,2.23,4.85
23.153467893600464,0.31,4.76,3.26,5.77
23.17607593536377,-0.49,4.7,2.32,5.26
23.1764919757843,-1.06,4.74,-0.11,4.85
23.183475017547607,-1.26,4.59,-2.03,5.17
23.193461894989014,-1.11,3.47,-2.7,4.53
23.203689098358154,-1.0,2.53,-2.28,3.54
23.22676396369934,-1.21,1.54,-1.6,2.52
23.22718381881714,-1.35,0.63,-1.15,1.88
23.23344087600708,-1.47,-0.01,-1.09,1.83
23.243562936782837,-1.47,-0.29,-1.27,1.96
23.25361204147339,-1.44,-0.34,-1.49,2.09
23.276698112487793,-1.36,-0.18,-1.63,2.13
23.277114868164062,-1.26,-0.2,-1.7,2.12
23.283618927001953,-0.96,-0.33,-1.48,1.79
23.293521881103516,-0.53,-0.43,-1.16,1.34
23.303637981414795,-0.07,-0.43,-0.92,1.01
23.326864004135132,0.34,-0.48,-0.6,0.84
23.32728600502014,0.61,-0.6,-0.33,0.91
23.3338360786438,0.74,-0.71,-0.22,1.04
23.343481063842773,0.67,-1.01,-0.2,1.22
23.353631019592285,0.58,-1.45,-0.27,1.58
23.37648105621338,0.47,-1.97,-0.16,2.03
23.37686586380005,0.47,-2.4,-0.01,2.44
23.38359498977661,0.51,-2.79,0.06,2.83
23.39342212677002,0.45,-3.15,0.03,3.18
23.403618812561035,0.44,-3.37,-0.15,3.4
23.426930904388428,0.38,-3.42,-0.21,3.44
23.42735195159912,0.3,-3.37,-0.09,3.38
23.433510780334473,0.16,-3.2,0.05,3.2
23.443564891815186,-0.03,-3.0,0.18,3.0
23.453624963760376,-0.08,-2.74,0.37,2.76
23.477181911468506,-0.1,-2.43,0.5,2.48
23.4776029586792,-0.14,-1.98,0.53,2.05
23.483669996261597,-0.19,-1.56,0.54,1.66
23.49346685409546,-0.22,-1.21,0.51,1.33
23.503684997558594,-0.19,-0.86,0.35,0.94
23.526622772216797,-0.18,-0.53,0.22,0.6
23.526984930038452,-0.26,-0.26,0.07,0.37
23.53348398208618,-0.35,0.02,-0.12,0.37
23.543502807617188,-0.27,0.31,0.01,0.41
23.553518772125244,-0.47,0.66,0.47,0.93
23.57536292076111,-0.38,1.09,0.94,1.48
23.575763940811157,-0.6,1.52,1.18,2.01
23.583497047424316,-0.6,2.04,1.18,2.43
23.59345579147339,-0.6,2.53,1.06,2.8
23.603728771209717,-0.71,2.92,0.97,3.15
23.62700891494751,-1.0,2.99,0.94,3.28
23.62741708755493,-1.26,2.89,1.0,3.3
23.633480072021484,-1.4,2.65,1.18,3.22
23.64361000061035,-1.1,2.86,1.61,3.46
23.653603076934814,-0.27,3.97,2.93,4.94
23.67590093612671,0.16,4.85,4.21,6.42
23.67630100250244,0.8,4.98,2.38,5.57
23.683537006378174,1.34,5.27,-2.11,5.83
23.69337797164917,1.09,4.73,-4.91,6.9
23.703505992889404,0.73,2.93,-4.24,5.2
23.724859952926636,0.63,1.57,-2.31,2.86
23.725215911865234,0.91,0.31,-0.91,1.32
23.733552932739258,1.21,-0.91,-0.7,1.66
23.743530988693237,1.28,-1.81,-0.99,2.42
23.75346803665161,1.36,-2.21,-1.02,2.78
23.775819778442383,1.41,-1.84,-0.87,2.47
23.77623200416565,1.26,-0.96,-0.85,1.79
23.783589839935303,0.82,-0.47,-1.1,1.45
23.793439865112305,0.39,0.1,-1.51,1.56
23.80355978012085,-0.08,0.71,-1.64,1.78
23.826326847076416,-0.42,1.18,-1.29,1.79
23.826740980148315,-0.78,1.26,-0.81,1.68
23.83346199989319,-0.99,0.74,-0.76,1.45
23.84341812133789,-0.91,-0.3,-0.84,1.27
23.85353398323059,-0.57,-1.28,-0.72,1.57
23.876060962677002,-0.51,-2.03,-0.45,2.14
23.87646794319153,-0.28,-2.73,-0.15,2.74
23.88350486755371,-0.13,-3.38,0.06,3.38
23.893433094024658,0.14,-3.81,-0.04,3.81
23.903555870056152,0.36,-4.06,-0.21,4.08
23.926650047302246,0.5,-4.05,-0.27,4.08
23.92700695991516,0.52,-4.05,-0.13,4.08
23.933342933654785,0.53,-3.96,0.04,3.99
23.943476915359497,0.49,-3.54,0.25,3.58
23.953505992889404,0.43,-3.04,0.47,3.1
23.976787090301514,0.35,-2.43,0.71,2.55
23.97718596458435,0.33,-1.78,0.86,2.0
23.98354196548462,0.32,-1.3,0.95,1.64
23.99351978302002,0.33,-0.83,0.81,1.2
24.003634929656982,0.38,-0.4,0.67,0.86
24.026630878448486,0.46,-0.08,0.57,0.73
24.027034997940063,0.54,0.14,0.43,0.7
24.033397912979126,0.59,0.16,0.23,0.65
24.04355812072754,0.59,0.15,0.13,0.62
24.053536891937256,0.5,0.2,0.33,0.63
24.077297925949097,0.46,0.39,0.65,0.88
24.077702045440674,0.44,0.61,1.06,1.29
24.083547115325928,0.42,0.94,1.44,1.77
24.093440055847168,0.41,1.34,1.69,2.19
24.103575944900513,0.34,1.8,1.51,2.37
24.127657890319824,0.36,2.14,1.08,2.42
24.128067016601562,0.43,2.38,0.45,2.46
24.133590936660767,0.58,2.6,-0.14,2.66
24.14357900619507,0.63,3.02,0.14,3.08
24.153642892837524,0.59,3.76,1.41,4.05
24.176676988601685,0.11,4.34,2.62,5.07
24.177088975906372,-0.7,4.37,1.92,4.82
24.183670043945312,-1.43,4.12,-0.41,4.38
24.193524837493896,-1.6,3.81,-2.23,4.69
24.203711986541748,-1.35,2.72,-2.88,4.18
24.22687792778015,-1.13,1.84,-2.23,3.1
24.22729778289795,-1.14,1.19,-1.14,2.0
24.233604907989502,-1.21,0.87,-0.57,1.59
24.24359703063965,-1.34,0.79,-0.49,1.63
24.25366997718811,-1.39,0.81,-0.68,1.74
24.277774810791016,-1.47,0.82,-0.91,1.91
24.278192043304443,-1.53,0.81,-1.16,2.08
24.28359889984131,-1.41,0.64,-1.47,2.13
24.29353094100952,-1.16,0.39,-1.53,1.95
24.303632974624634,-0.83,0.16,-1.21,1.47
24.328067779541016,-0.57,-0.12,-0.91,1.08
24.32847499847412,-0.27,-0.38,-0.8,0.92
24.333584785461426,0.03,-0.63,-0.66,0.91
24.343642950057983,0.18,-1.05,-0.59,1.21
24.353679895401,0.19,-1.57,-0.65,1.7
24.3781681060791,0.23,-2.08,-0.67,2.19
24.378546953201294,0.23,-2.53,-0.57,2.6
24.383631944656372,0.24,-2.87,-0.56,2.93
24.393488883972168,0.3,-3.09,-0.52,3.14
24.40366792678833,0.3,-3.24,-0.39,3.27
24.427795886993408,0.26,-3.29,-0.25,3.3
24.428207874298096,0.2,-3.3,-0.22,3.31
24.433537006378174,0.18,-3.26,-0.05,3.26
24.443684101104736,0.1,-3.09,0.14,3.09
24.453734874725342,-0.01,-2.67,0.27,2.68
24.47902202606201,-0.1,-2.21,0.35,2.23
24.479448795318604,-0.19,-1.77,0.45,1.83
24.483662128448486,-0.28,-1.31,0.5,1.42
24.493613958358765,-0.26,-0.89,0.44,1.02
24.503822803497314,-0.22,-0.44,0.28,0.56
24.513672828674316,-0.21,0.03,0.16,0.26
24.529014110565186,-0.33,0.36,0.0,0.48
24.533641815185547,-0.51,0.58,-0.2,0.79
24.543760776519775,-0.71,0.7,-0.36,1.06
24.553749084472656,-0.75,0.78,-0.14,1.09
24.5637629032135,-0.86,0.87,0.18,1.23
24.578550815582275,-0.83,1.13,0.38,1.45
24.583582878112793,-0.69,1.42,0.52,1.66
24.593671798706055,-0.6,1.61,0.33,1.74
24.603904962539673,-0.51,1.81,0.11,1.88
24.613648891448975,-0.52,1.89,0.16,1.96
24.628705978393555,-0.73,1.67,0.34,1.85
24.6335289478302,-0.92,1.43,0.32,1.73
24.643760919570923,-1.16,1.31,0.3,1.77
24.653839111328125,-1.08,1.7,0.65,2.11
24.663739919662476,-0.54,2.82,1.89,3.43
24.678488969802856,-0.21,3.69,3.06,4.79
24.683735847473145,0.16,3.75,1.59,4.07
24.69371795654297,0.68,3.94,-1.94,4.44
24.70380210876465,0.69,4.04,-3.77,5.56
24.713608980178833,0.52,2.85,-2.76,4.0
24.72913408279419,0.55,1.74,-1.02,2.09
24.733582019805908,0.64,0.83,-0.55,1.18
24.743644952774048,0.93,-0.09,-1.18,1.5
24.753679990768433,1.1,-0.79,-1.57,2.07
24.763807773590088,1.1,-1.38,-1.49,2.3
24.778555870056152,1.14,-1.74,-1.4,2.5
24.783716917037964,1.01,-1.37,-1.22,2.09
24.793574810028076,0.62,-0.75,-1.22,1.56
24.803834915161133,0.28,-0.29,-1.4,1.45
24.813652992248535,-0.04,0.17,-1.45,1.46
24.82832908630371,-0.23,0.64,-1.24,1.41
24.833621978759766,-0.4,0.88,-0.93,1.34
24.843735933303833,-0.49,0.75,-0.64,1.1
24.853660106658936,-0.49,0.3,-0.39,0.69
24.86380910873413,-0.38,-0.4,-0.18,0.58
24.87885284423828,-0.18,-1.04,-0.03,1.05
24.883835792541504,-0.23,-1.51,0.03,1.52
24.893775939941406,-0.15,-1.91,0.05,1.91
24.9037868976593,-0.14,-2.29,0.05,2.29
24.913821935653687,-0.08,-2.52,-0.02,2.52
24.928557872772217,-0.03,-2.64,-0.17,2.64
24.933560848236084,0.03,-2.71,-0.23,2.71
24.94383478164673,0.02,-2.76,-0.19,2.76
24.95366096496582,0.09,-2.79,-0.11,2.79
24.96397304534912,0.07,-2.71,0.01,2.71
24.97961187362671,0.14,-2.51,0.14,2.51
24.98376703262329,0.13,-2.05,0.25,2.06
24.99367594718933,0.16,-1.64,0.32,1.67
25.003926992416382,0.24,-1.32,0.42,1.4
25.01373291015625,0.28,-1.02,0.43,1.14
25.028852939605713,0.37,-0.73,0.39,0.9
25.033622980117798,0.46,-0.53,0.43,0.82
25.043986797332764,0.55,-0.43,0.54,0.88
25.0537748336792,0.6,-0.36,0.56,0.89
25.063828945159912,0.58,-0.36,0.49,0.84
25.080014944076538,0.43,-0.38,0.52,0.77
25.0837459564209,0.43,-0.32,0.51,0.73
25.093867778778076,0.5,-0.06,0.46,0.68
25.10391902923584,0.65,0.26,0.52,0.87
25.113792896270752,0.65,0.53,0.62,1.04
25.129684925079346,0.52,0.86,0.67,1.2
25.13360595703125,0.36,1.14,0.61,1.34
25.144010066986084,0.31,1.43,0.47,1.53
25.15387797355652,0.42,1.7,0.16,1.75
25.16387391090393,0.57,2.07,0.15,2.15
25.18023109436035,0.64,2.79,0.74,2.95
25.183807849884033,0.56,3.82,1.87,4.28
25.193744897842407,0.05,4.47,2.27,5.01
25.20398712158203,-0.42,4.62,0.81,4.7
25.213791847229004,-0.96,4.49,-1.34,4.78
25.2305109500885,-1.43,3.76,-2.56,4.76
25.233829975128174,-1.39,2.42,-2.77,3.93
25.243885040283203,-1.24,1.46,-2.06,2.81
25.25398302078247,-1.23,0.62,-0.95,1.67
25.263926029205322,-1.27,-0.02,-0.3,1.3
25.280658960342407,-1.36,-0.3,-0.61,1.52
25.28377890586853,-1.2,-0.04,-1.26,1.74
25.293893814086914,-1.06,0.32,-1.54,1.89
25.304065942764282,-1.1,0.44,-1.77,2.12
25.31396484375,-0.94,0.43,-1.87,2.13
25.33010482788086,-0.77,0.31,-1.62,1.82
25.33373212814331,-0.64,0.12,-1.17,1.33
25.343925952911377,-0.56,-0.06,-0.72,0.91
25.353830814361572,-0.52,-0.34,-0.54,0.82
25.363959789276123,-0.35,-0.65,-0.48,0.88
25.38008999824524,-0.27,-0.96,-0.62,1.17
25.38375997543335,-0.2,-1.2,-0.67,1.38
25.39388084411621,-0.1,-1.43,-0.49,1.51
25.403886795043945,0.01,-1.7,-0.25,1.71
25.413829803466797,0.12,-1.98,-0.16,1.99
25.43105983734131,0.22,-2.15,-0.09,2.16
25.43395709991455,0.23,-2.23,-0.17,2.24
25.443814992904663,0.21,-2.27,-0.27,2.29
25.453869819641113,0.15,-2.23,-0.31,2.25
25.463820934295654,0.01,-2.14,-0.31,2.16
25.48110580444336,-0.11,-2.02,-0.3,2.04
25.483755111694336,-0.23,-1.87,-0.24,1.89
25.493853092193604,-0.38,-1.65,-0.1,1.69
25.503993034362793,-0.45,-1.36,0.1,1.43
25.51389980316162,-0.55,-1.11,0.18,1.25
25.530980110168457,-0.58,-0.88,0.15,1.06
25.53377890586853,-0.64,-0.62,0.11,0.89
25.54393696784973,-0.67,-0.34,0.07,0.75
25.55379581451416,-0.72,-0.13,0.02,0.73
25.563977003097534,-0.77,0.07,-0.02,0.77
25.58027195930481,-0.79,0.2,-0.12,0.82
25.583733081817627,-0.75,0.34,-0.12,0.83
25.59391689300537,-0.69,0.49,-0.04,0.84
25.60393190383911,-0.61,0.66,0.07,0.9
25.613914966583252,-0.56,0.83,0.21,1.02
25.63047695159912,-0.48,1.04,0.31,1.18
25.6337149143219,-0.45,1.19,0.38,1.32
25.643890857696533,-0.45,1.31,0.48,1.46
25.653718948364258,-0.45,1.46,0.62,1.64
25.664017915725708,-0.57,1.58,0.8,1.86
25.680745124816895,-0.75,1.59,0.79,1.92
25.68381404876709,-0.86,1.66,0.62,1.96
25.693904876708984,-0.77,1.99,0.72,2.25
25.703861951828003,-0.39,2.73,1.65,3.21
25.713829040527344,-0.19,3.28,2.86,4.35
25.73056983947754,0.15,3.32,2.11,3.93
25.73381495475769,0.62,3.28,-0.6,3.39
25.743990898132324,0.55,3.03,-2.33,3.86
25.754028797149658,0.49,2.27,-1.79,2.93
25.76397180557251,0.5,1.42,-1.08,1.85
25.78088092803955,0.56,0.39,-1.23,1.4
25.783829927444458,0.64,-0.74,-1.72,1.97
25.793939113616943,0.67,-1.67,-1.9,2.61
25.80403184890747,0.78,-2.28,-1.43,2.8
25.813912868499756,0.91,-2.69,-0.89,2.97
25.831161975860596,1.15,-2.66,-0.76,2.99
25.8337459564209,1.16,-1.84,-0.8,2.31
25.84404993057251,0.99,-1.01,-0.96,1.7
25.853728771209717,1.01,-0.27,-1.07,1.49
25.863996028900146,0.83,0.45,-1.27,1.58
25.881494998931885,0.66,1.18,-1.39,1.93
25.88380002975464,0.54,1.67,-1.26,2.16
25.89396595954895,0.35,1.8,-1.22,2.2
25.903882026672363,0.18,1.62,-1.02,1.92
25.91394591331482,0.08,0.97,-0.74,1.22
25.93104100227356,0.07,0.27,-0.45,0.52
25.933912992477417,-0.03,-0.24,-0.17,0.29
25.9440860748291,-0.04,-0.67,0.14,0.68
25.95397186279297,-0.03,-1.02,0.2,1.03
25.964037895202637,0.05,-1.34,0.17,1.35
25.98110008239746,0.13,-1.59,0.09,1.59
25.98386287689209,0.19,-1.74,0.0,1.75
25.994025945663452,0.19,-1.82,-0.07,1.83
26.0038480758667,0.18,-1.85,-0.11,1.86
26.013969898223877,0.16,-1.83,-0.11,1.84
26.031781911849976,0.13,-1.76,-0.08,1.76
26.03394389152527,0.15,-1.64,0.03,1.64
26.04414391517639,0.18,-1.43,0.21,1.45
26.053779125213623,0.25,-1.19,0.39,1.27
26.064060926437378,0.32,-0.98,0.36,1.09
26.08149480819702,0.43,-0.82,0.36,0.99
26.084105014801025,0.51,-0.75,0.41,0.99
26.094051837921143,0.54,-0.7,0.49,1.01
26.10387396812439,0.58,-0.7,0.59,1.08
26.114064931869507,0.55,-0.76,0.66,1.14
26.13257598876953,0.49,-0.81,0.73,1.19
26.134029865264893,0.48,-0.89,0.82,1.3
26.14396095275879,0.48,-0.87,0.86,1.31
26.15400981903076,0.53,-0.84,0.89,1.33
26.164029121398926,0.58,-0.75,0.74,1.2
26.18122386932373,0.65,-0.61,0.62,1.08
26.184048891067505,0.75,-0.49,0.58,1.06
26.193996906280518,0.8,-0.3,0.58,1.03
26.204030990600586,0.81,-0.04,0.71,1.07
26.214061975479126,0.74,0.31,0.85,1.16
26.23127293586731,0.73,0.69,0.92,1.36
26.234230995178223,0.77,0.99,0.95,1.57
26.24410390853882,0.8,1.2,0.9,1.7
26.253954887390137,0.89,1.38,0.71,1.78
26.26411199569702,0.92,1.51,0.46,1.82
26.280415058135986,0.75,1.82,0.45,2.01
26.284267902374268,0.63,2.42,0.99,2.68
26.294480800628662,0.44,2.93,1.88,3.5
26.30401611328125,0.08,3.23,2.0,3.79
26.314069986343384,-0.4,3.44,1.28,3.69
26.331281900405884,-0.66,3.6,0.8,3.74
26.334360122680664,-0.94,3.59,0.5,3.74
26.344197988510132,-1.06,3.09,-0.17,3.27
26.35405206680298,-1.05,2.29,-1.44,2.9
26.364115953445435,-0.94,1.48,-2.48,3.03
26.38165593147278,-0.82,0.77,-2.85,3.06
26.384428024291992,-0.77,0.24,-2.59,2.71
26.394185066223145,-0.87,-0.44,-1.97,2.19
26.40402603149414,-0.98,-0.89,-1.52,2.01
26.41410779953003,-1.08,-1.09,-1.28,1.99
26.43197202682495,-1.2,-1.03,-1.18,1.97
26.433856964111328,-1.17,-0.63,-1.23,1.81
26.444203853607178,-0.89,-0.16,-1.35,1.62
26.454062938690186,-0.61,0.11,-1.46,1.58
26.464136123657227,-0.32,0.48,-1.56,1.66
26.482068061828613,-0.05,0.8,-1.52,1.71
26.484020948410034,0.12,0.94,-1.46,1.74
26.49389100074768,0.26,0.9,-1.33,1.62
26.504132986068726,0.25,0.6,-1.15,1.32
26.51406192779541,0.2,0.0,-0.93,0.95
26.532166004180908,0.03,-0.62,-0.72,0.95
26.533795833587646,0.0,-1.12,-0.29,1.15
26.544157028198242,-0.06,-1.59,-0.08,1.59
26.55385398864746,-0.05,-1.95,-0.04,1.95
26.564093112945557,0.01,-2.21,-0.12,2.21
26.58276605606079,0.06,-2.33,-0.29,2.34
26.583988904953003,0.13,-2.27,-0.35,2.3
26.593990802764893,0.17,-2.14,-0.23,2.15
26.60406994819641,0.15,-1.98,-0.18,1.99
26.614119052886963,0.11,-1.69,-0.12,1.69
26.63241696357727,0.04,-1.29,0.09,1.29
26.63387107849121,-0.06,-1.0,0.21,1.02
26.644158840179443,-0.13,-0.78,0.2,0.81
26.654029846191406,-0.17,-0.59,0.18,0.63
26.66422200202942,-0.2,-0.45,0.12,0.5
26.683250904083252,-0.28,-0.38,0.05,0.47
26.683969020843506,-0.4,-0.31,0.03,0.5
26.69411277770996,-0.52,-0.28,0.01,0.59
26.70401692390442,-0.67,-0.35,-0.02,0.75
26.713985919952393,-0.78,-0.38,-0.02,0.86
26.732769012451172,-0.86,-0.34,-0.05,0.92
26.733800888061523,-0.82,-0.2,-0.03,0.84
26.74417996406555,-0.74,0.01,0.0,0.74
26.754117965698242,-0.67,0.24,0.01,0.71
26.764193058013916,-0.6,0.5,-0.01,0.78
26.782808780670166,-0.5,0.86,-0.01,0.99
26.783930778503418,-0.52,1.11,0.1,1.22
26.794100999832153,-0.63,1.23,0.17,1.39
26.80418109893799,-0.78,1.33,0.21,1.55
26.81406593322754,-0.95,1.3,0.36,1.64
26.832653999328613,-1.07,1.1,0.51,1.61
26.833987951278687,-1.18,0.88,0.51,1.55
26.84416699409485,-1.1,0.88,0.48,1.48
26.85396099090576,-0.85,1.44,0.92,1.9
26.864331007003784,-0.43,2.32,2.1,3.15
26.882921934127808,-0.11,2.9,2.69,3.95
26.883975982666016,0.4,2.96,1.15,3.2
26.894208908081055,0.61,3.06,-1.48,3.45
26.904103994369507,0.55,2.9,-2.35,3.77
26.914175987243652,0.51,2.28,-1.6,2.83
26.93313980102539,0.56,1.63,-0.88,1.93
26.93388795852661,0.7,0.89,-0.8,1.38
26.94414186477661,0.77,0.15,-1.22,1.45
26.95384979248047,0.8,-0.4,-1.82,2.02
26.964164972305298,0.79,-0.8,-2.06,2.34
26.98219108581543,0.88,-1.03,-1.8,2.25
26.983956813812256,0.97,-0.92,-1.64,2.11
26.99413299560547,0.95,-0.63,-1.81,2.13
27.00413990020752,0.87,-0.14,-2.07,2.24
27.014155864715576,0.65,0.51,-2.12,2.27
27.031946897506714,0.5,1.08,-1.84,2.19
27.033903121948242,0.35,1.53,-1.54,2.19
27.044241905212402,0.29,1.81,-1.44,2.33
27.053988933563232,0.29,1.82,-1.47,2.35
27.06431484222412,0.23,1.48,-1.74,2.29
27.082647800445557,0.21,0.95,-2.03,2.25
27.084124088287354,0.11,0.51,-2.02,2.08
27.094208002090454,0.05,0.13,-1.77,1.77
27.104186058044434,0.07,-0.24,-1.59,1.6
27.11413288116455,0.18,-0.54,-1.58,1.67
27.13249397277832,0.29,-0.77,-1.68,1.87
27.134057998657227,0.44,-0.88,-1.67,1.93
27.144221782684326,0.53,-0.99,-1.55,1.91
27.153998851776123,0.53,-0.96,-1.57,1.91
27.16421890258789,0.52,-0.92,-1.56,1.88
27.182281017303467,0.44,-0.88,-1.6,1.87
27.18402600288391,0.42,-0.75,-1.55,1.77
27.194151878356934,0.4,-0.6,-1.34,1.52
27.20408296585083,0.33,-0.43,-1.29,1.39
27.21417808532715,0.36,-0.31,-1.38,1.45
27.232705116271973,0.44,-0.27,-1.49,1.57
27.234083890914917,0.54,-0.19,-1.55,1.65
27.24420404434204,0.63,-0.17,-1.69,1.81
27.253993034362793,0.7,-0.2,-1.89,2.02
27.264195919036865,0.71,-0.22,-1.96,2.09
27.2829270362854,0.8,-0.08,-1.84,2.0
27.284055948257446,0.84,0.3,-1.44,1.69
27.294186115264893,0.78,0.72,-0.71,1.27
27.30412006378174,0.61,1.1,-0.19,1.27
27.314169883728027,0.27,1.38,-0.23,1.42
27.33473777770996,-0.05,1.47,-0.59,1.58
27.335119009017944,-0.24,1.47,-1.0,1.79
27.344275951385498,-0.14,1.57,-0.89,1.81
27.353975772857666,0.04,1.51,-0.47,1.58
27.364250898361206,0.06,1.2,-0.55,1.32
27.38308095932007,-0.09,0.78,-1.19,1.42
27.384155988693237,-0.35,0.39,-1.68,1.75
27.39417791366577,-0.46,0.01,-1.52,1.58
27.40415096282959,-0.54,-0.37,-0.95,1.15
27.414201974868774,-0.44,-0.62,-0.49,0.9
27.4337899684906,-0.28,-0.72,-0.36,0.85
27.43421506881714,-0.11,-0.69,-0.44,0.82
27.44421696662903,0.01,-0.55,-0.56,0.78
27.454077005386353,0.09,-0.42,-0.71,0.82
27.46429204940796,0.09,-0.32,-0.91,0.96
27.484061002731323,0.15,-0.21,-1.17,1.19
27.48447608947754,0.23,-0.17,-1.25,1.28
27.494214057922363,0.3,-0.16,-1.15,1.19
27.504100799560547,0.29,-0.22,-0.88,0.95
27.514326095581055,0.13,-0.27,-0.73,0.78
27.533512115478516,0.0,-0.23,-0.6,0.64
27.534042835235596,-0.1,-0.18,-0.54,0.57
27.544294834136963,-0.09,-0.17,-0.55,0.58
27.55394411087036,-0.06,-0.16,-0.61,0.63
27.564330101013184,-0.02,-0.06,-0.63,0.63
27.584744930267334,0.01,-0.02,-0.53,0.53
27.585065841674805,-0.01,-0.02,-0.53,0.53
27.59423589706421,-0.08,0.03,-0.6,0.6
27.60418200492859,-0.11,0.1,-0.62,0.63
27.61429500579834,-0.15,0.21,-0.57,0.62
27.634058952331543,-0.13,0.36,-0.46,0.59
27.63446283340454,-0.11,0.45,-0.37,0.59
27.644174098968506,-0.1,0.5,-0.31,0.59
27.65408492088318,-0.07,0.49,-0.33,0.59
27.66433596611023,-0.05,0.42,-0.48,0.63
27.684946060180664,-0.02,0.36,-0.64,0.73
27.6853289604187,0.05,0.3,-0.64,0.7
27.694229125976562,0.07,0.17,-0.64,0.66
27.704077005386353,0.07,0.08,-0.68,0.68
27.71417498588562,0.07,-0.03,-0.72,0.72
27.73455500602722,0.04,-0.08,-0.72,0.72
27.734943866729736,0.01,-0.08,-0.69,0.69
27.744285106658936,-0.01,-0.05,-0.66,0.66
27.754054069519043,-0.06,0.02,-0.56,0.56
27.76443386077881,-0.1,0.08,-0.5,0.51
27.784656047821045,-0.1,0.11,-0.41,0.43
27.785038948059082,-0.11,0.11,-0.33,0.36
27.794311046600342,-0.09,0.1,-0.32,0.34
27.80411696434021,-0.08,0.13,-0.28,0.31
27.81428599357605,-0.1,0.13,-0.21,0.26
27.83534288406372,-0.12,0.13,-0.23,0.29
27.835763931274414,-0.11,0.19,-0.21,0.3
27.844278812408447,-0.08,0.2,-0.17,0.27
27.853924989700317,-0.07,0.2,-0.17,0.27
27.864391803741455,-0.07,0.25,-0.17,0.31
27.88328194618225,-0.11,0.35,-0.18,0.4
27.88413095474243,-0.15,0.38,-0.13,0.42
27.894289016723633,-0.19,0.33,-0.07,0.38
27.904051780700684,-0.19,0.29,-0.09,0.35
27.91431498527527,-0.2,0.24,-0.18,0.36
27.934051036834717,-0.2,0.22,-0.21,0.36
27.93446397781372,-0.21,0.18,-0.24,0.36
27.944427013397217,-0.19,0.14,-0.31,0.38
27.95411992073059,-0.2,0.1,-0.29,0.36
27.964407920837402,-0.19,0.09,-0.33,0.39
27.98469305038452,-0.2,0.12,-0.36,0.42
27.985074996948242,-0.2,0.13,-0.26,0.35
27.994273900985718,-0.22,0.1,-0.14,0.27
28.004068851470947,-0.22,0.1,-0.15,0.28
28.014391899108887,-0.25,0.11,-0.18,0.32
28.034048080444336,-0.24,0.13,-0.26,0.37
28.034506797790527,-0.23,0.14,-0.28,0.38
28.044392108917236,-0.2,0.11,-0.22,0.31
28.054239988327026,-0.18,0.08,-0.12,0.23
28.064383029937744,-0.19,0.06,-0.06,0.2
28.083854913711548,-0.25,0.05,-0.07,0.26
28.084278106689453,-0.2,0.06,-0.01,0.2
28.094208002090454,-0.12,-0.02,-0.01,0.12
28.105540990829468,-0.03,-0.05,-0.07,0.09
28.114171028137207,-0.01,-0.05,-0.02,0.05
28.134757041931152,-0.09,-0.04,-0.07,0.12
28.135118007659912,-0.14,-0.03,-0.08,0.16
28.144426822662354,-0.15,-0.01,-0.03,0.15
28.15449810028076,-0.13,0.0,0.01,0.13
28.16439390182495,-0.08,-0.01,0.05,0.09
28.183752059936523,-0.03,0.0,0.0,0.03
28.184202909469604,0.01,0.03,-0.09,0.09
28.194313049316406,0.01,0.09,-0.13,0.15
28.204505920410156,0.01,0.13,-0.15,0.19
28.21427297592163,-0.01,0.12,-0.15,0.19
28.2342369556427,-0.01,0.07,-0.11,0.13
28.234652042388916,0.0,0.02,-0.03,0.03
28.244297981262207,0.01,-0.01,0.03,0.03
28.25447988510132,-0.01,-0.02,-0.05,0.05
28.26441478729248,0.0,-0.01,-0.04,0.04
28.284369945526123,-0.01,0.03,-0.03,0.04
28.28474497795105,-0.02,0.07,-0.06,0.09
28.29436683654785,-0.02,0.09,-0.07,0.11
28.304687976837158,-0.02,0.08,-0.05,0.09
28.31430196762085,-0.01,0.08,-0.06,0.1
28.33424186706543,-0.02,0.1,-0.06,0.11
28.334622859954834,-0.01,0.09,0.02,0.09
28.3443341255188,-0.01,0.07,0.08,0.1
28.35463809967041,0.01,0.07,0.02,0.07
28.364418983459473,0.03,0.07,-0.02,0.07
28.384366035461426,-0.02,0.04,-0.04,0.06
28.38479709625244,0.01,0.0,-0.08,0.08
28.394472122192383,0.05,-0.03,0.05,0.07
28.40483593940735,0.07,-0.07,0.16,0.18
28.414348125457764,0.07,-0.1,0.13,0.17
28.43464493751526,0.07,-0.09,0.1,0.15
28.435059070587158,0.06,-0.11,-0.08,0.14
28.44438099861145,-0.2,0.51,-1.22,1.33
28.45421290397644,0.18,-0.02,0.67,0.69
28.468392848968506,0.02,-0.35,0.18,0.39
28.474222898483276,0.35,-0.34,0.76,0.9
28.484490871429443,0.07,-0.27,0.44,0.52
28.49433398246765,-0.02,0.09,-0.05,0.1
28.504541873931885,-0.07,0.25,-0.3,0.39
28.520913124084473,0.06,0.06,-0.23,0.24
28.524248123168945,0.07,0.08,-0.19,0.21
28.53444194793701,0.02,0.18,-0.09,0.2
28.544424057006836,0.01,0.12,-0.03,0.12
28.55446696281433,-0.03,0.04,0.01,0.05
28.568900108337402,-0.02,-0.01,0.14,0.14
28.5744149684906,-0.02,-0.06,0.18,0.19
28.584398984909058,-0.02,-0.1,0.12,0.15
28.594407081604004,0.01,-0.07,0.07,0.09
28.604456901550293,0.01,-0.03,0.01,0.03
28.61933708190918,0.01,0.03,-0.07,0.07
28.62431812286377,0.0,0.06,-0.1,0.11
28.634337902069092,0.01,0.06,-0.05,0.07
28.64444398880005,0.01,0.04,-0.05,0.06
28.65440082550049,0.02,0.05,-0.04,0.06
28.670248985290527,0.01,0.07,0.01,0.07
28.674203872680664,0.02,0.08,0.0,0.08
28.68441390991211,-0.05,0.04,-0.04,0.07
28.69447612762451,-0.09,0.02,-0.06,0.11
28.704440116882324,-0.02,0.02,-0.07,0.07
28.72028684616089,0.0,0.02,-0.09,0.09
28.724442958831787,0.1,0.02,-0.1,0.14
28.7344970703125,0.09,-0.02,0.0,0.09
28.744534969329834,-0.02,-0.05,-0.01,0.05
28.754486083984375,-0.09,-0.04,0.09,0.13
28.770843982696533,-0.1,-0.01,0.22,0.24
28.774338006973267,-0.1,0.02,0.18,0.2
28.78444790840149,-0.03,0.06,0.07,0.09
28.79447078704834,-0.03,0.09,-0.04,0.1
28.80458092689514,-0.02,0.1,-0.15,0.18
28.820866107940674,-0.04,0.08,-0.19,0.21
28.824318885803223,-0.06,0.04,-0.13,0.14
28.834354877471924,-0.08,-0.02,0.02,0.08
28.84445595741272,-0.08,-0.06,0.07,0.12
28.854466915130615,-0.04,-0.11,0.12,0.16
28.871352910995483,-0.04,-0.15,0.1,0.18
28.874332904815674,-0.04,-0.15,0.06,0.16
28.88451910018921,-0.05,-0.11,0.05,0.13
28.894457817077637,-0.05,-0.06,0.05,0.09
28.904489994049072,-0.07,-0.04,0.05,0.09
28.92140007019043,-0.06,-0.02,0.01,0.06
28.92433190345764,-0.03,0.0,-0.02,0.03
28.9344220161438,-0.01,0.01,-0.01,0.01
28.944583892822266,0.0,0.04,-0.02,0.04
28.954442024230957,0.0,0.06,-0.04,0.07
28.97068190574646,-0.04,0.05,0.0,0.06
28.974199771881104,-0.04,0.05,-0.03,0.07
28.98438596725464,-0.04,0.03,-0.03,0.05
28.99441909790039,-0.04,-0.01,0.04,0.05
29.004617929458618,-0.06,-0.04,0.09,0.11
29.020369052886963,-0.06,-0.03,0.15,0.16
29.02448081970215,-0.09,-0.02,0.09,0.12
29.034472942352295,-0.06,0.01,0.03,0.06
29.04463005065918,-0.07,0.04,0.01,0.08
29.05434799194336,-0.04,0.02,0.05,0.06
29.06983494758606,-0.03,0.02,0.05,0.06
29.07431697845459,-0.04,0.01,0.02,0.04
29.08450698852539,-0.05,-0.01,0.01,0.05
29.094552040100098,-0.06,-0.02,0.04,0.07
29.10447597503662,-0.06,-0.02,0.07,0.09
29.120646953582764,-0.05,-0.04,0.09,0.11
29.124516010284424,-0.03,-0.04,0.12,0.13
29.13441801071167,-0.03,-0.01,0.14,0.14
29.14464282989502,-0.04,-0.02,0.1,0.1
29.15449285507202,-0.03,-0.03,0.06,0.07
29.17130184173584,-0.03,-0.03,0.05,0.06
29.174328804016113,-0.05,-0.02,0.05,0.07
29.184441089630127,-0.05,-0.04,0.1,0.11
29.194651126861572,-0.06,-0.05,0.08,0.11
29.204577922821045,-0.05,-0.03,0.03,0.06
29.221543788909912,-0.02,-0.02,0.06,0.06
29.224535942077637,0.01,-0.01,0.07,0.07
29.234446048736572,0.0,-0.01,0.06,0.06
29.24441695213318,0.0,-0.02,0.06,0.06
29.254456996917725,-0.02,-0.02,0.07,0.07
29.27098298072815,-0.07,-0.03,0.05,0.09
29.274374961853027,-0.04,-0.04,0.02,0.06
29.28451895713806,-0.02,-0.04,0.03,0.05
29.294578075408936,-0.01,-0.03,0.04,0.05
29.30458688735962,0.02,0.01,0.06,0.06
29.320161819458008,0.0,0.03,0.1,0.1
29.324389934539795,-0.09,-0.01,0.08,0.12
29.334784030914307,0.01,-0.07,0.06,0.09
29.34464192390442,-0.03,-0.05,0.23,0.23
29.354536056518555,-0.16,0.16,-0.27,0.35
29.369781970977783,0.06,0.02,-0.3,0.3
29.374361991882324,0.08,-0.05,0.12,0.15
29.38561487197876,0.01,-0.08,0.16,0.17
29.394579887390137,-0.02,-0.05,0.21,0.21
29.40461492538452,-0.06,-0.02,0.11,0.12
29.420350074768066,0.0,0.0,0.13,0.13
29.424413919448853,0.04,0.04,0.04,0.06
29.434520959854126,0.06,0.14,-0.02,0.15
29.444655895233154,0.01,0.1,0.06,0.11
29.454599857330322,-0.1,0.1,-0.18,0.22
