time,ax,ay,az,atotal
0.004292011260986328,-0.12,-0.06,-0.06,0.14
0.004570960998535156,-0.13,-0.22,0.05,0.26
0.004866123199462891,-0.03,-0.16,0.12,0.2
0.0051059722900390625,0.13,0.0,0.13,0.18
0.005312919616699219,0.13,0.14,0.11,0.22
0.01462697982788086,0.17,0.2,0.06,0.26
0.020707130432128906,0.22,0.17,-0.05,0.28
0.030559062957763672,0.19,0.15,-0.15,0.28
0.041500091552734375,0.22,0.13,-0.2,0.32
0.09894108772277832,0.21,0.16,-0.18,0.31
0.09920310974121094,0.23,0.09,-0.24,0.34
0.09944510459899902,0.19,-0.01,-0.2,0.27
0.09965896606445312,0.08,-0.01,-0.17,0.18
0.09989309310913086,-0.04,-0.08,-0.12,0.14
0.1004021167755127,-0.16,-0.18,-0.07,0.25
0.11046314239501953,-0.25,-0.21,-0.02,0.32
0.12058210372924805,-0.27,-0.2,0.06,0.34
0.1305079460144043,-0.2,-0.19,0.12,0.3
0.1414332389831543,-0.14,-0.17,0.14,0.26
0.2001791000366211,-0.11,-0.14,0.13,0.22
0.20043325424194336,-0.06,-0.07,0.1,0.13
0.200667142868042,-0.05,-0.03,0.05,0.07
0.2008962631225586,-0.08,0.0,0.01,0.08
0.20112323760986328,-0.07,0.01,0.0,0.07
0.20135021209716797,-0.05,0.03,-0.01,0.05
0.2105269432067871,0.02,0.09,-0.01,0.09
0.22052311897277832,0.04,0.11,-0.03,0.12
0.23038196563720703,0.02,0.09,-0.09,0.12
0.24128007888793945,0.02,0.08,-0.14,0.16
0.29945993423461914,-0.01,0.05,-0.16,0.16
0.29971909523010254,-0.03,0.04,-0.15,0.15
0.2999691963195801,0.0,0.04,-0.1,0.1
0.3002052307128906,0.01,0.05,-0.03,0.05
0.30043697357177734,-0.01,0.08,0.03,0.08
0.30064916610717773,-0.01,0.1,0.08,0.12
0.31086206436157227,0.02,0.08,0.09,0.12
0.3203239440917969,0.05,0.09,0.09,0.13
0.3302581310272217,0.05,0.07,0.05,0.09
0.3410301208496094,0.04,0.04,0.01,0.05
0.39988112449645996,0.0,0.05,-0.06,0.07
0.4001350402832031,0.02,0.02,-0.1,0.1
0.40036916732788086,0.07,0.01,-0.09,0.11
0.40055203437805176,0.13,0.01,-0.09,0.15
0.40077805519104004,0.14,0.0,-0.1,0.17
0.4010009765625,0.1,-0.01,-0.12,0.15
0.4102461338043213,0.05,-0.06,-0.13,0.15
0.42031407356262207,-0.04,-0.1,-0.11,0.15
0.43020105361938477,-0.12,-0.12,-0.05,0.17
0.44106101989746094,-0.11,-0.11,0.0,0.15
0.49946022033691406,-0.07,-0.1,0.04,0.12
0.49973106384277344,-0.03,-0.09,0.08,0.12
0.49993896484375,-0.01,-0.09,0.09,0.12
0.5001530647277832,-0.03,-0.09,0.05,0.1
0.5003619194030762,-0.03,-0.08,0.04,0.09
0.5005931854248047,-0.02,-0.05,0.02,0.05
0.5099539756774902,-0.03,-0.02,0.01,0.03
0.5200231075286865,-0.04,0.0,-0.01,0.04
0.5298600196838379,-0.05,0.01,-0.01,0.05
0.5407531261444092,-0.07,0.0,0.0,0.07
0.599973201751709,-0.07,-0.01,0.02,0.07
0.6002092361450195,-0.02,-0.01,0.03,0.03
0.6004462242126465,0.04,-0.02,0.05,0.06
0.6006770133972168,0.08,-0.06,0.03,0.1
0.6009020805358887,0.09,-0.1,0.02,0.13
0.6010842323303223,0.09,-0.09,0.02,0.12
0.6100130081176758,0.1,-0.07,0.0,0.12
0.6200780868530273,0.09,-0.07,-0.03,0.11
0.6297080516815186,0.09,-0.07,-0.03,0.11
0.6407630443572998,0.1,-0.09,-0.04,0.14
0.6999459266662598,0.09,-0.09,-0.07,0.14
0.7001810073852539,0.09,-0.1,-0.09,0.16
0.7003979682922363,0.1,-0.11,-0.09,0.17
0.7006120681762695,0.1,-0.09,-0.01,0.13
0.7008471488952637,0.09,-0.05,0.18,0.2
0.701056957244873,0.09,-0.03,0.38,0.39
0.709895133972168,0.15,-0.04,0.56,0.58
0.7199540138244629,0.23,-0.09,0.66,0.7
0.729708194732666,0.33,-0.18,0.7,0.79
0.7407469749450684,0.46,-0.32,0.7,0.89
0.7999930381774902,0.58,-0.39,0.68,0.97
0.8002419471740723,0.73,-0.46,0.62,1.06
0.8004710674285889,0.82,-0.63,0.55,1.17
0.8007001876831055,0.88,-0.72,0.51,1.24
0.8009231090545654,0.91,-0.81,0.54,1.33
0.8011479377746582,0.92,-0.84,0.61,1.38
0.8096621036529541,0.95,-0.84,0.67,1.43
0.819633960723877,1.01,-0.82,0.64,1.44
0.8296160697937012,1.06,-0.74,0.62,1.43
0.8405652046203613,1.05,-0.66,0.53,1.34
0.9003241062164307,1.01,-0.63,0.41,1.25
0.9005742073059082,0.91,-0.57,0.32,1.12
0.9007902145385742,0.71,-0.46,0.32,0.9
0.9010171890258789,0.54,-0.39,0.35,0.75
0.9012432098388672,0.46,-0.29,0.4,0.67
0.9014649391174316,0.39,-0.24,0.46,0.64
0.90960693359375,0.25,-0.26,0.52,0.63
0.9196839332580566,0.14,-0.3,0.51,0.6
0.9295010566711426,0.07,-0.36,0.4,0.54
0.940521240234375,0.02,-0.45,0.25,0.51
1.0016212463378906,0.03,-0.6,0.08,0.6
1.001878261566162,0.11,-0.89,-0.2,0.91
1.0021131038665771,0.18,-1.28,-0.6,1.42
1.0023431777954102,0.1,-1.74,-0.94,1.98
1.002568244934082,-0.09,-2.19,-1.05,2.43
1.0027942657470703,-0.5,-2.43,-0.68,2.57
1.009507179260254,-1.21,-2.53,0.22,2.81
1.019613265991211,-2.1,-2.49,1.51,3.59
1.0293800830841064,-2.85,-2.36,3.05,4.79
1.0403940677642822,-3.15,-2.24,4.67,6.06
1.10209321975708,-2.69,-1.96,5.91,6.78
1.1023521423339844,-1.32,-1.33,6.3,6.57
1.1025900840759277,0.17,-0.46,6.02,6.03
1.102816104888916,1.03,0.23,5.1,5.2
1.103044033050537,1.6,0.65,4.39,4.71
1.1032710075378418,1.22,1.01,3.38,3.73
1.109386920928955,1.14,0.77,2.23,2.62
1.11948823928833,1.19,0.16,1.25,1.73
1.129302978515625,1.07,-0.38,0.49,1.23
1.1401009559631348,1.1,-0.86,-0.01,1.39
1.2045159339904785,1.11,-1.29,-0.2,1.71
1.204789161682129,1.01,-1.61,-0.18,1.9
1.2050361633300781,0.91,-1.9,0.01,2.1
1.205275058746338,0.73,-2.13,0.36,2.28
1.2055151462554932,0.64,-2.26,0.67,2.44
1.2057521343231201,1.12,-2.32,0.87,2.71
1.2092399597167969,1.57,-2.39,1.06,3.04
1.2194321155548096,1.56,-2.43,1.27,3.15
1.2296290397644043,1.37,-2.47,1.46,3.17
1.239835262298584,1.09,-2.49,1.62,3.16
1.301443099975586,0.67,-2.29,1.76,2.96
1.3017010688781738,0.19,-2.01,1.89,2.76
1.301943063735962,-0.32,-1.72,2.03,2.67
1.3021750450134277,-0.74,-1.31,2.16,2.63
1.3024001121520996,-1.06,-0.95,2.22,2.63
1.3026189804077148,-1.33,-0.64,2.18,2.63
1.3090760707855225,-1.48,-0.28,2.09,2.57
1.3192360401153564,-1.55,0.02,2.0,2.53
1.3296921253204346,-1.51,0.4,1.93,2.48
1.3401460647583008,-1.4,0.81,1.91,2.5
1.4028539657592773,-1.33,1.06,1.96,2.59
1.4031119346618652,-1.3,1.32,2.14,2.83
1.403351068496704,-1.42,1.46,2.53,3.24
1.4035840034484863,-1.51,1.67,3.09,3.82
1.4038140773773193,-1.39,2.1,3.7,4.47
1.4040379524230957,-1.19,2.41,4.18,4.96
1.4089112281799316,-1.22,2.54,4.5,5.3
1.4191091060638428,-1.36,2.58,4.61,5.45
1.4291820526123047,-1.41,2.68,4.44,5.37
1.4400510787963867,-1.61,2.82,4.11,5.23
1.5027189254760742,-1.75,2.91,3.76,5.06
1.502974033355713,-1.59,2.97,3.24,4.67
1.503204107284546,-1.32,3.12,2.49,4.2
1.5034379959106445,-0.95,3.29,1.55,3.75
1.5036640167236328,-0.41,3.27,0.54,3.33
1.503890037536621,0.15,3.0,-0.49,3.04
1.5089480876922607,0.72,2.37,-1.42,2.85
1.5190250873565674,1.2,1.56,-2.18,2.93
1.5292181968688965,1.64,0.98,-2.75,3.34
1.5399022102355957,1.7,0.29,-3.06,3.51
1.603456974029541,1.59,-0.29,-3.13,3.52
1.6037192344665527,1.51,-0.83,-2.95,3.41
1.6039619445800781,1.45,-1.34,-2.6,3.26
1.6042001247406006,1.36,-1.89,-2.14,3.16
1.6044330596923828,1.31,-2.48,-1.59,3.22
1.6046631336212158,1.34,-3.01,-0.95,3.42
1.6088142395019531,1.49,-3.57,-0.15,3.87
1.618847131729126,1.75,-3.98,0.7,4.4
1.6288361549377441,2.07,-4.05,1.55,4.8
1.639578104019165,2.4,-3.89,2.23,5.08
1.7037839889526367,2.64,-3.5,2.58,5.08
1.7040410041809082,2.4,-2.96,2.56,4.59
1.704275131225586,1.58,-2.59,2.21,3.75
1.7045059204101562,0.99,-2.41,1.61,3.06
1.7047309875488281,0.71,-2.21,0.93,2.5
1.7049510478973389,0.5,-2.0,0.25,2.07
1.7087311744689941,0.27,-1.9,-0.38,1.95
1.718846082687378,-0.14,-2.0,-0.94,2.21
1.7288720607757568,-0.56,-2.1,-1.42,2.59
1.7396759986877441,-0.91,-2.08,-1.74,2.86
1.804142951965332,-1.22,-2.1,-1.98,3.13
1.8043980598449707,-1.53,-2.06,-2.12,3.32
1.8046422004699707,-1.75,-1.93,-2.11,3.35
1.8048782348632812,-1.71,-1.85,-1.99,3.21
1.8051080703735352,-1.52,-1.78,-1.71,2.89
1.805340051651001,-1.17,-1.67,-1.18,2.35
1.8087141513824463,-0.7,-1.57,-0.26,1.73
1.8186631202697754,0.04,-1.33,1.12,1.73
1.8287291526794434,1.34,-0.63,3.09,3.42
1.8396210670471191,2.98,0.58,5.72,6.47
1.9044201374053955,3.86,1.6,7.43,8.52
1.9046659469604492,3.96,2.5,7.6,8.92
1.9048981666564941,3.95,3.29,6.99,8.67
1.9051251411437988,3.81,3.71,5.77,7.84
1.9053449630737305,3.52,3.84,4.27,6.73
1.9055631160736084,3.05,3.51,3.08,5.57
1.9085659980773926,2.27,2.94,2.4,4.42
1.9185800552368164,1.67,2.71,2.0,3.75
1.928612232208252,1.24,3.06,1.22,3.51
1.9394879341125488,0.68,3.39,0.05,3.45
2.004354953765869,-0.33,2.77,-1.43,3.13
2.0046141147613525,-0.8,1.75,-2.85,3.43
2.0048611164093018,-0.98,0.86,-3.81,4.02
2.005101203918457,-1.94,0.02,-4.33,4.74
2.0053350925445557,-3.29,-0.67,-4.36,5.5
2.0055720806121826,-4.58,-1.07,-4.01,6.18
2.0084400177001953,-5.53,-1.34,-3.37,6.61
2.018437147140503,-5.97,-1.44,-2.6,6.66
2.0284831523895264,-5.79,-1.12,-1.83,6.17
2.0393550395965576,-4.59,-0.42,-1.23,4.77
2.103940010070801,-2.92,0.3,-0.65,3.0
2.1041860580444336,-1.69,0.7,0.15,1.83
2.104419231414795,-0.52,0.72,1.0,1.33
2.1046440601348877,0.67,0.24,2.09,2.2
2.104872226715088,1.51,-0.36,3.09,3.45
2.1050939559936523,2.14,-0.92,3.57,4.26
2.108281135559082,2.56,-1.59,3.34,4.49
2.118213176727295,2.63,-2.2,2.4,4.18
2.1283650398254395,2.48,-2.64,1.14,3.79
2.139153003692627,2.38,-3.1,-0.06,3.9
2.2045390605926514,2.33,-3.48,-0.98,4.3
2.2048110961914062,2.11,-3.76,-1.56,4.58
2.205052137374878,1.79,-4.07,-1.82,4.8
2.2052860260009766,1.6,-4.46,-2.04,5.15
2.205519199371338,1.47,-4.74,-2.2,5.42
2.205754041671753,1.52,-4.7,-2.16,5.39
2.208178997039795,1.61,-4.45,-1.85,5.08
2.2180891036987305,1.45,-4.11,-1.32,4.55
2.228281021118164,1.03,-3.59,-0.71,3.8
2.239154100418091,0.6,-2.74,-0.02,2.8
2.30440616607666,0.23,-1.63,0.75,1.8
2.304659128189087,-0.26,-0.28,1.55,1.59
2.304892063140869,-0.88,1.2,2.4,2.82
2.3051180839538574,-1.68,2.53,3.26,4.45
2.3053460121154785,-2.4,3.54,4.18,5.98
2.3055672645568848,-2.67,4.2,5.04,7.08
2.3081111907958984,-2.93,4.46,5.37,7.57
2.3180551528930664,-3.1,4.34,4.74,7.13
2.3281760215759277,-2.62,4.09,3.38,5.91
2.338860034942627,-1.89,3.71,1.84,4.55
2.4053831100463867,-1.67,3.66,0.95,4.13
2.4059910774230957,-1.06,3.81,0.61,4.0
2.4062321186065674,-0.78,3.67,0.21,3.75
2.4064669609069824,-0.74,3.4,-0.17,3.48
2.406696081161499,-0.66,3.12,-0.69,3.26
2.4069230556488037,-0.47,2.75,-1.51,3.17
2.4079642295837402,-0.02,2.2,-2.23,3.13
2.417912006378174,0.59,1.77,-2.37,3.01
2.4280920028686523,1.22,1.62,-1.85,2.74
2.4387850761413574,1.79,1.59,-1.04,2.61
2.4480230808258057,2.31,1.48,-0.61,2.81
2.5057082176208496,2.62,1.18,-0.76,2.97
2.5059609413146973,2.48,0.66,-1.16,2.81
2.506195068359375,2.16,0.03,-1.62,2.7
2.5064120292663574,1.8,-0.54,-1.94,2.7
2.5066399574279785,1.37,-1.11,-2.0,2.66
2.5078229904174805,0.92,-1.54,-1.82,2.55
2.517740249633789,0.55,-1.83,-1.47,2.41
2.527959108352661,0.33,-2.11,-1.02,2.36
2.5387110710144043,0.24,-2.36,-0.6,2.44
2.5479049682617188,0.22,-2.52,-0.28,2.54
2.6059341430664062,0.22,-2.76,-0.1,2.77
2.6061880588531494,0.09,-3.01,0.07,3.01
2.606426239013672,-0.09,-3.22,0.08,3.22
2.606656074523926,-0.21,-3.51,-0.14,3.51
2.6068801879882812,-0.38,-3.8,-0.43,3.84
2.6077311038970947,-0.67,-4.08,-0.78,4.2
2.617661952972412,-1.07,-4.24,-1.14,4.51
2.6278300285339355,-1.43,-4.31,-1.42,4.75
2.6385600566864014,-1.69,-4.25,-1.61,4.84
2.647844076156616,-1.79,-4.06,-1.78,4.78
2.7062692642211914,-1.88,-3.84,-1.91,4.68
2.706524133682251,-1.94,-3.59,-1.93,4.51
2.706761121749878,-1.92,-3.4,-1.7,4.25
2.7069902420043945,-1.9,-3.23,-1.07,3.89
2.7072372436523438,-1.84,-2.79,0.07,3.34
2.7076780796051025,-1.3,-1.55,1.85,2.74
2.7175302505493164,0.08,0.38,4.68,4.69
2.727642059326172,1.69,2.48,7.66,8.22
2.738384246826172,3.32,4.98,9.28,11.04
2.747735023498535,5.42,7.53,8.74,12.74
2.803645133972168,7.6,8.98,6.76,13.56
2.8038949966430664,8.32,8.62,4.19,12.69
2.8041281700134277,6.96,7.16,1.75,10.13
2.8043501377105713,3.88,4.34,0.0,5.82
2.8045759201049805,1.53,2.58,-0.95,3.14
2.807465076446533,0.15,2.06,-1.52,2.56
2.817467212677002,-0.23,1.97,-2.12,2.9
2.827686071395874,-0.78,1.58,-2.75,3.26
2.8383350372314453,-1.94,1.0,-3.32,3.97
2.847564220428467,-3.48,0.31,-3.63,5.03
2.903675079345703,-5.19,-0.21,-3.57,6.3
2.903921127319336,-6.34,-0.39,-3.15,7.09
2.9041552543640137,-6.97,-0.57,-2.51,7.43
2.9043850898742676,-7.3,-0.92,-1.91,7.6
2.904616117477417,-6.19,-0.6,-1.65,6.43
2.907431125640869,-3.97,-0.07,-1.56,4.26
2.9173591136932373,-2.19,0.11,-1.3,2.54
2.9275259971618652,-1.06,0.18,-0.71,1.28
2.9382131099700928,-0.19,0.25,0.07,0.32
2.947449207305908,0.61,0.19,0.85,1.06
3.0041542053222656,1.43,-0.23,1.59,2.15
3.004401206970215,2.11,-0.88,2.19,3.16
3.004639148712158,2.49,-1.56,2.54,3.88
3.00486421585083,2.56,-2.27,2.4,4.17
3.00508713722229,2.47,-2.88,1.58,4.1
3.0073111057281494,2.43,-3.36,0.52,4.17
3.017207145690918,2.37,-3.78,-0.31,4.47
3.027405261993408,2.22,-4.07,-0.96,4.73
3.0379140377044678,2.08,-4.31,-1.39,4.98
3.0474181175231934,1.9,-4.69,-1.71,5.34
3.1046509742736816,1.39,-4.94,-1.92,5.47
3.1049022674560547,0.93,-5.1,-2.04,5.57
3.105135917663574,0.42,-4.99,-1.98,5.38
3.1053662300109863,0.2,-4.72,-1.71,5.02
3.1055891513824463,0.42,-4.28,-1.34,4.5
3.107213020324707,0.32,-3.5,-0.86,3.61
3.1171841621398926,-0.11,-2.49,-0.25,2.5
3.1273021697998047,-0.55,-1.39,0.51,1.57
3.137820243835449,-0.97,-0.19,1.42,1.73
3.1472220420837402,-1.56,0.99,2.51,3.11
3.2056779861450195,-2.39,2.25,3.69,4.93
3.205937147140503,-3.06,3.41,4.71,6.57
3.2061872482299805,-3.29,4.35,5.22,7.54
3.2064220905303955,-2.99,5.39,4.64,7.71
3.2066800594329834,-2.05,5.73,2.89,6.73
3.2069170475006104,-0.94,5.61,0.83,5.74
3.217367172241211,-0.42,5.65,-0.37,5.67
3.2270801067352295,-0.42,5.36,-0.7,5.42
3.2375941276550293,-0.9,4.83,-0.3,4.92
3.247051239013672,-0.85,4.23,0.18,4.31
3.306260108947754,-0.15,3.85,0.06,3.85
3.3065481185913086,0.45,3.46,-0.84,3.58
3.306788921356201,0.67,2.86,-1.89,3.49
3.3070192337036133,0.88,2.15,-2.52,3.42
3.3072471618652344,1.25,1.61,-2.43,3.17
3.3074750900268555,1.8,1.15,-1.85,2.82
3.317345142364502,2.32,0.88,-1.27,2.78
3.3270721435546875,2.49,0.86,-1.07,2.84
3.3375871181488037,2.41,0.72,-1.27,2.81
3.346972942352295,2.29,0.45,-1.56,2.8
3.4063329696655273,2.1,0.23,-1.7,2.71
3.4066109657287598,1.69,0.06,-1.68,2.38
3.4068570137023926,1.13,-0.27,-1.57,1.95
3.407088041305542,0.7,-0.69,-1.38,1.69
3.4073219299316406,0.45,-1.14,-1.06,1.62
3.407550096511841,0.24,-1.58,-0.7,1.74
3.41694712638855,0.08,-1.96,-0.38,1.99
3.426943063735962,-0.02,-2.43,-0.03,2.43
3.4373841285705566,-0.16,-2.83,0.17,2.83
3.4469480514526367,-0.31,-3.14,0.11,3.15
3.506464958190918,-0.5,-3.41,-0.13,3.44
3.5067250728607178,-0.65,-3.57,-0.55,3.67
3.5069632530212402,-0.68,-3.78,-1.05,3.98
3.507194995880127,-0.77,-4.04,-1.64,4.42
3.507427215576172,-0.93,-4.34,-2.22,4.96
3.50765323638916,-1.1,-4.56,-2.67,5.39
3.516767978668213,-1.27,-4.6,-2.93,5.59
3.5268900394439697,-1.38,-4.44,-2.96,5.51
3.5375311374664307,-1.64,-4.21,-2.77,5.29
3.5469961166381836,-2.07,-3.79,-2.2,4.84
3.6065521240234375,-2.69,-3.49,-1.12,4.54
3.6067991256713867,-3.14,-3.26,0.45,4.54
3.607029914855957,-1.91,-2.15,2.67,3.92
3.6072580814361572,0.53,-0.03,5.84,5.86
3.6074790954589844,2.51,2.16,8.58,9.19
3.6077051162719727,3.6,4.39,9.21,10.81
3.616734027862549,4.84,6.53,7.8,11.26
3.626829147338867,6.72,7.67,5.46,11.56
3.637214183807373,7.98,7.86,3.13,11.63
3.6467509269714355,6.83,6.84,1.28,9.75
3.70330810546875,4.16,4.46,0.04,6.09
3.7035610675811768,2.43,3.23,-0.61,4.08
3.703792095184326,1.5,2.8,-1.08,3.35
3.7040152549743652,0.75,2.46,-1.53,2.99
3.704240083694458,-0.3,2.19,-2.25,3.15
3.7065141201019287,-1.86,1.65,-3.05,3.93
3.7165701389312744,-3.39,0.69,-3.68,5.05
3.726659059524536,-4.52,-0.05,-3.88,5.95
3.7371530532836914,-5.47,-0.67,-3.47,6.51
3.7466440200805664,-6.39,-1.28,-2.45,6.96
3.8042821884155273,-6.72,-1.9,-1.55,7.15
3.804539203643799,-5.63,-1.61,-0.91,5.92
3.8047800064086914,-3.38,-0.24,0.01,3.38
3.8050131797790527,-2.24,0.38,0.96,2.46
3.805239200592041,-1.53,1.03,1.58,2.42
3.8063201904296875,-0.62,1.49,1.65,2.3
3.8164901733398438,0.42,1.4,1.22,1.9
3.826536178588867,1.43,0.94,0.47,1.77
3.8370471000671387,2.32,0.34,-0.25,2.35
3.8465211391448975,3.01,-0.52,-0.79,3.15
3.904613971710205,3.23,-1.41,-1.15,3.7
3.904874086380005,3.08,-2.06,-1.33,3.93
3.905118942260742,2.69,-2.67,-1.28,4.0
3.90535306930542,2.31,-3.3,-1.06,4.16
3.905588150024414,1.96,-3.97,-0.94,4.52
3.9061622619628906,1.62,-4.59,-0.98,4.96
3.916304111480713,1.39,-5.11,-1.09,5.4
3.9263761043548584,1.2,-5.58,-1.23,5.83
3.936826229095459,0.93,-5.78,-1.34,6.0
3.946455955505371,0.64,-5.79,-1.33,5.97
4.0061750411987305,0.32,-5.46,-1.28,5.61
4.006430149078369,0.06,-4.74,-1.17,4.88
4.006667137145996,-0.09,-3.97,-0.91,4.07
4.006900072097778,-0.51,-2.86,-0.35,2.92
4.007133960723877,-1.38,-1.47,0.47,2.07
4.007359981536865,-2.34,0.09,1.63,2.85
4.0162811279296875,-3.12,1.76,3.11,4.74
4.026381969451904,-3.48,3.49,4.67,6.78
4.036888122558594,-3.43,5.01,5.79,8.38
4.046427249908447,-3.12,6.22,5.97,9.16
4.10598611831665,-2.4,6.75,4.89,8.67
4.106245040893555,-1.69,6.24,2.68,6.99
4.106479167938232,-0.98,5.4,0.25,5.49
4.106705188751221,-0.74,4.65,-1.42,4.91
4.106935977935791,-0.61,4.23,-1.91,4.68
4.107158184051514,-0.59,3.91,-1.3,4.16
4.1163330078125,-0.72,3.64,-0.33,3.72
4.126176118850708,-0.37,3.57,-0.02,3.58
4.136872053146362,0.08,3.3,-0.75,3.38
4.146252155303955,0.36,2.51,-1.91,3.17
4.206467151641846,0.41,1.57,-2.65,3.1
4.206723213195801,0.49,0.86,-2.62,2.8
4.2069549560546875,0.99,0.36,-1.89,2.16
4.207180976867676,1.8,0.18,-0.99,2.06
4.207406044006348,2.42,0.34,-0.53,2.5
4.207633972167969,2.34,0.53,-0.6,2.47
4.216241121292114,1.96,0.37,-0.95,2.2
4.226028919219971,1.6,0.08,-1.34,2.08
4.2371320724487305,1.27,-0.09,-1.61,2.05
4.246082067489624,1.03,-0.17,-1.74,2.02
4.306364059448242,0.79,-0.39,-1.8,2.0
4.3066160678863525,0.41,-0.7,-1.72,1.9
4.3068530559539795,0.03,-1.06,-1.55,1.87
4.307078123092651,-0.23,-1.47,-1.34,2.0
4.30730414390564,-0.37,-1.84,-1.15,2.2
4.3075270652771,-0.46,-2.27,-0.95,2.5
4.315922260284424,-0.6,-2.7,-0.75,2.86
4.325901031494141,-0.73,-3.09,-0.65,3.24
4.3891191482543945,-0.85,-3.56,-0.66,3.71
4.389385223388672,-0.9,-3.87,-0.78,4.04
4.389623165130615,-0.91,-4.17,-0.97,4.37
4.389848232269287,-0.95,-4.5,-1.27,4.77
4.390078067779541,-1.07,-4.69,-1.54,5.05
4.390299081802368,-1.22,-4.78,-1.77,5.24
4.395811080932617,-1.35,-4.79,-1.89,5.32
4.405695915222168,-1.56,-4.68,-1.87,5.27
4.4158971309661865,-1.9,-4.14,-1.63,4.83
4.425938129425049,-2.16,-3.4,-1.17,4.19
4.4904820919036865,-1.97,-2.42,-0.48,3.15
4.49074125289917,-1.42,-1.07,0.51,1.84
4.490984916687012,-0.61,0.27,1.91,2.02
4.491217136383057,1.17,1.62,4.12,4.57
4.4914491176605225,3.67,3.28,6.99,8.54
4.4916770458221436,5.69,4.94,8.65,11.47
4.495654106140137,7.37,6.84,7.92,12.79
4.505569934844971,8.72,7.73,5.76,12.99
4.515789031982422,8.68,7.26,3.2,11.75
4.525690078735352,6.13,5.55,1.4,8.38
4.590264081954956,2.67,2.97,0.16,3.99
4.590513229370117,0.82,1.65,-0.54,1.92
4.590750217437744,-0.06,1.07,-0.82,1.34
4.590977191925049,-0.56,1.17,-1.04,1.66
4.5912041664123535,-0.98,1.3,-1.31,2.08
4.591429233551025,-1.65,1.27,-1.7,2.68
4.595651149749756,-3.0,0.78,-2.04,3.71
4.605432987213135,-4.16,0.4,-2.31,4.77
4.615634918212891,-5.06,0.29,-2.42,5.61
4.625563144683838,-6.11,-0.33,-2.18,6.49
4.636405944824219,-6.57,-0.83,-2.13,6.95
4.69028902053833,-5.7,-1.0,-2.37,6.25
4.690544128417969,-3.73,-0.73,-2.52,4.56
4.690777063369751,-2.13,-0.08,-1.93,2.87
4.69101095199585,-1.18,0.71,-0.99,1.69
4.691236972808838,-0.38,1.46,-0.12,1.51
4.69535493850708,0.49,1.75,0.41,1.86
4.7053611278533936,1.4,1.62,0.61,2.22
4.715593099594116,2.35,1.03,0.92,2.72
4.725513935089111,3.06,-0.02,1.01,3.22
4.7363362312316895,3.21,-1.04,0.82,3.47
4.790757179260254,2.9,-2.03,0.41,3.56
4.79150915145874,2.64,-2.96,-0.09,3.96
4.791752099990845,2.53,-3.67,-0.62,4.5
4.791981220245361,2.3,-4.06,-1.04,4.78
4.792210102081299,2.27,-4.47,-1.38,5.19
4.795316219329834,2.22,-4.88,-1.61,5.59
4.80644416809082,1.98,-5.3,-1.66,5.89
4.815447092056274,1.43,-5.56,-1.52,5.93
4.825448989868164,0.69,-5.67,-1.21,5.83
4.8362321853637695,-0.08,-5.48,-0.86,5.54
4.891226053237915,-0.52,-4.78,-0.59,4.84
4.891479015350342,-0.44,-3.6,-0.31,3.64
4.8917131423950195,-0.53,-2.25,0.01,2.31
4.891939163208008,-1.17,-0.88,0.35,1.5
4.892159938812256,-2.04,0.68,0.91,2.33
4.895174026489258,-2.48,2.16,1.71,3.7
4.9051830768585205,-2.47,3.41,2.63,4.96
4.915281057357788,-2.35,4.43,3.65,6.2
4.925277233123779,-2.44,5.16,4.31,7.15
4.936193943023682,-2.21,5.53,3.73,7.02
4.991897106170654,-1.66,5.45,2.17,6.09
4.992153167724609,-0.98,5.0,0.35,5.1
4.9923882484436035,-0.69,4.76,-0.74,4.86
4.992619037628174,-0.16,4.71,-0.93,4.8
4.9928460121154785,0.02,4.31,-0.72,4.36
4.995016098022461,-0.1,4.05,-0.49,4.08
5.005029201507568,0.02,3.9,-0.83,3.98
5.015268087387085,0.2,3.22,-1.71,3.65
5.025169134140015,0.48,2.14,-2.4,3.25
5.036064147949219,0.89,1.14,-2.27,2.69
5.092429161071777,1.56,0.87,-1.29,2.2
5.092684268951416,2.47,1.3,-0.04,2.79
5.092919111251831,3.15,1.76,0.71,3.67
5.093139171600342,3.28,1.8,0.6,3.78
5.0933661460876465,3.0,1.37,-0.13,3.3
5.094912052154541,2.53,0.66,-0.97,2.78
5.105178117752075,2.07,-0.08,-1.55,2.58
5.115140914916992,1.63,-0.56,-1.77,2.47
5.124996185302734,1.24,-0.88,-1.78,2.34
5.1359381675720215,0.84,-1.14,-1.7,2.21
5.192790985107422,0.4,-1.47,-1.59,2.2
5.193052053451538,0.06,-1.79,-1.48,2.32
5.193284034729004,-0.17,-2.08,-1.34,2.48
5.193512916564941,-0.27,-2.45,-1.22,2.75
5.193717002868652,-0.27,-2.89,-1.15,3.12
5.194876194000244,-0.35,-3.33,-1.18,3.55
5.205408096313477,-0.41,-3.73,-1.23,3.94
5.215039253234863,-0.52,-4.05,-1.33,4.29
5.224985122680664,-0.6,-4.35,-1.5,4.64
5.235783100128174,-0.62,-4.57,-1.69,4.91
5.293248176574707,-0.8,-4.63,-1.91,5.07
5.293498992919922,-1.06,-4.72,-2.02,5.24
5.293729066848755,-1.38,-4.74,-1.95,5.3
5.293945074081421,-1.79,-4.7,-1.7,5.3
5.294166088104248,-2.39,-4.54,-1.19,5.26
5.2948291301727295,-2.99,-3.96,-0.45,4.98
5.304925918579102,-3.27,-3.09,0.39,4.51
5.314932107925415,-2.83,-1.65,1.33,3.53
5.324792146682739,-1.55,0.2,2.41,2.87
5.335726261138916,0.53,2.18,4.25,4.8
5.395884990692139,3.01,4.58,6.65,8.61
5.396137237548828,5.79,6.98,8.0,12.09
5.396362066268921,8.38,8.97,7.4,14.33
5.39659309387207,9.44,9.12,5.53,14.24
5.396815061569214,7.84,7.64,3.46,11.48
5.397036075592041,3.96,4.66,1.76,6.36
5.404796123504639,1.47,2.69,0.18,3.07
5.4148850440979,0.01,1.53,-0.83,1.74
5.424562931060791,-0.79,1.01,-1.68,2.11
5.435574054718018,-1.11,0.94,-2.38,2.78
5.49361515045166,-1.47,0.78,-2.75,3.21
5.493871212005615,-2.43,0.23,-2.81,3.72
5.4941041469573975,-3.64,-0.5,-2.7,4.55
5.494356155395508,-4.72,-1.18,-2.29,5.37
5.494580268859863,-5.26,-1.45,-1.69,5.71
5.494800090789795,-5.15,-1.34,-0.96,5.4
5.504639148712158,-4.31,-0.93,-0.42,4.42
5.5147740840911865,-3.22,-0.52,-0.33,3.27
5.524655103683472,-2.32,-0.2,-0.39,2.36
5.535469055175781,-1.74,0.18,-0.31,1.77
5.594302177429199,-1.02,0.67,-0.1,1.22
5.594552993774414,-0.13,1.37,0.12,1.38
5.594786167144775,0.66,1.91,0.11,2.02
5.595012187957764,1.47,1.93,-0.15,2.43
5.595242023468018,2.12,1.58,-0.36,2.66
5.59546422958374,2.49,0.92,-0.17,2.65
5.604635238647461,2.53,-0.13,0.11,2.53
5.61459493637085,2.3,-1.2,0.16,2.59
5.6244001388549805,2.16,-2.19,-0.11,3.07
5.635332107543945,2.09,-3.17,-0.54,3.83
5.6946351528167725,1.99,-3.96,-1.08,4.56
5.694881916046143,1.9,-4.63,-1.48,5.21
5.69511604309082,1.64,-5.25,-1.81,5.79
5.695343971252441,1.29,-5.8,-2.09,6.29
5.695568084716797,0.84,-6.17,-2.16,6.59
5.695796012878418,0.35,-6.36,-2.05,6.69
5.704411029815674,-0.22,-6.34,-1.8,6.59
5.714409112930298,-0.46,-5.94,-1.36,6.11
5.724260091781616,-0.1,-4.96,-0.82,5.02
5.735267162322998,-0.3,-3.48,-0.07,3.49
5.795042037963867,-1.3,-1.81,0.81,2.37
5.7952961921691895,-2.9,-0.06,1.87,3.45
5.795527935028076,-4.22,1.91,3.18,5.61
5.7957539558410645,-4.12,3.8,4.64,7.27
5.795976161956787,-2.75,5.36,5.9,8.43
5.796202182769775,-1.31,6.78,6.58,9.53
5.8043532371521,-0.26,7.81,5.75,9.7
5.814353942871094,0.28,7.74,3.36,8.44
5.824189186096191,0.47,7.07,0.45,7.09
5.8351891040802,0.32,6.35,-1.61,6.55
5.895547151565552,-0.06,5.39,-2.55,5.96
5.895803928375244,-0.74,4.49,-2.23,5.06
5.8960371017456055,-0.94,3.73,-1.52,4.13
5.89626407623291,-0.66,2.97,-1.3,3.3
5.896484136581421,-0.32,2.26,-1.6,2.78
5.896708011627197,0.14,1.18,-2.04,2.36
5.904247045516968,0.61,-0.04,-1.93,2.02
5.914154052734375,1.01,-1.02,-1.27,1.91
5.92400598526001,1.35,-1.49,-0.36,2.04
5.935070991516113,1.73,-1.1,0.23,2.06
5.996109962463379,2.22,-0.47,0.28,2.28
5.996363162994385,2.49,-0.04,-0.11,2.49
5.996600151062012,2.43,0.08,-0.67,2.52
5.996825218200684,2.11,0.11,-1.1,2.38
5.997053146362305,1.62,-0.05,-1.36,2.11
5.997276067733765,1.18,-0.23,-1.51,1.93
6.004037141799927,0.75,-0.42,-1.52,1.74
6.014133930206299,0.39,-0.69,-1.42,1.62
6.023886203765869,0.16,-0.98,-1.24,1.58
6.034984111785889,0.07,-1.32,-1.03,1.67
6.096785068511963,0.03,-1.69,-0.76,1.85
6.097030162811279,-0.03,-2.07,-0.54,2.13
6.0972630977630615,-0.24,-2.54,-0.41,2.58
6.0974860191345215,-0.53,-3.04,-0.51,3.12
6.097710132598877,-0.81,-3.53,-0.72,3.69
6.097934246063232,-1.04,-3.9,-1.0,4.15
6.1039509773254395,-1.14,-4.14,-1.37,4.5
6.114051103591919,-1.26,-4.36,-1.76,4.86
6.123975038528442,-1.46,-4.45,-2.02,5.1
6.134860992431641,-1.72,-4.45,-2.16,5.23
6.196841239929199,-2.12,-4.5,-2.14,5.41
6.197097063064575,-2.64,-4.4,-1.92,5.47
6.197325229644775,-3.11,-4.13,-1.56,5.4
6.1975531578063965,-3.19,-3.65,-0.99,4.94
6.1977760791778564,-2.56,-2.6,-0.14,3.65
6.198001146316528,-1.39,-1.01,1.17,2.07
6.203756093978882,0.19,0.69,3.21,3.28
6.213923931121826,2.45,2.31,5.69,6.61
6.223973035812378,4.69,3.96,7.86,9.97
6.234662055969238,6.77,5.82,8.38,12.24
6.297810077667236,8.55,7.09,7.27,13.27
6.298064231872559,8.88,7.21,5.44,12.66
6.2982940673828125,6.99,6.06,3.42,9.86
6.298516035079956,4.51,4.25,1.7,6.42
6.2987401485443115,2.47,3.55,0.37,4.34
6.298964977264404,0.94,3.36,-0.61,3.54
6.303678035736084,-0.15,3.3,-1.46,3.61
6.313787937164307,-1.26,3.27,-2.44,4.27
6.324065208435059,-2.64,2.89,-3.43,5.2
6.33463716506958,-4.27,1.83,-4.26,6.3
6.398044109344482,-5.84,0.66,-4.77,7.56
6.398301124572754,-6.79,-0.34,-4.74,8.28
6.398536205291748,-7.12,-1.24,-4.04,8.27
6.398761034011841,-6.15,-1.29,-3.19,7.04
6.398987054824829,-4.31,-0.63,-2.41,4.97
6.399213075637817,-3.03,-0.37,-1.4,3.35
6.403615951538086,-1.87,0.21,-0.36,1.91
6.413737058639526,-0.8,0.85,0.62,1.32
6.423685073852539,0.24,1.1,1.34,1.75
6.43454122543335,1.17,1.14,1.65,2.32
6.497581958770752,1.86,0.76,1.66,2.6
6.497828960418701,2.3,0.02,1.43,2.7
6.4980621337890625,2.44,-0.93,1.0,2.79
6.498288154602051,2.25,-1.86,0.35,2.94
6.4985151290893555,1.99,-2.62,-0.37,3.31
6.498740196228027,1.84,-3.22,-0.92,3.82
6.5034379959106445,1.67,-3.7,-1.31,4.26
6.5134360790252686,1.33,-4.13,-1.57,4.61
6.523514270782471,0.96,-4.59,-1.78,5.01
6.534373044967651,0.61,-4.93,-1.98,5.34
6.598724126815796,0.12,-5.2,-2.05,5.59
6.598984241485596,-0.21,-5.32,-1.9,5.65
6.599222183227539,0.07,-5.36,-1.64,5.6
6.59945011138916,0.5,-5.11,-1.2,5.27
6.599676132202148,0.2,-4.61,-0.59,4.65
6.59990119934082,-0.26,-3.9,0.03,3.9
6.60333514213562,-0.67,-2.78,0.6,2.92
6.613497257232666,-1.09,-1.29,1.28,2.11
6.623465061187744,-1.53,0.3,2.08,2.59
6.634393215179443,-1.95,1.92,2.98,4.04
6.699279069900513,-2.14,3.49,3.66,5.49
6.699528217315674,-2.21,4.83,3.96,6.62
6.699754238128662,-2.4,5.63,3.71,7.15
6.6999831199646,-2.46,5.85,2.64,6.87
6.700209140777588,-2.19,5.54,1.01,6.04
6.7004289627075195,-1.71,5.04,-0.69,5.36
6.703285217285156,-1.22,4.36,-1.72,4.84
6.713338136672974,-0.81,3.96,-1.36,4.26
6.723388195037842,-0.69,3.56,-0.06,3.62
6.734206199645996,-0.85,3.29,1.18,3.59
6.799875259399414,-0.6,3.27,1.42,3.61
6.80013108253479,-0.07,3.35,0.59,3.4
6.800361156463623,0.49,2.88,-0.89,3.05
6.8005900382995605,0.88,2.1,-2.08,3.08
6.8008131980896,1.22,1.45,-2.48,3.12
6.801033020019531,1.75,0.9,-2.04,2.83
6.8030900955200195,2.4,0.6,-1.28,2.78
6.8132171630859375,2.81,0.7,-0.85,3.01
6.823256015777588,2.84,0.79,-0.93,3.09
6.8340911865234375,2.59,0.6,-1.31,2.96
6.899892091751099,2.19,0.26,-1.69,2.77
6.900143146514893,1.76,0.07,-1.81,2.52
6.900373935699463,1.43,-0.22,-1.69,2.22
6.9006030559539795,1.01,-0.45,-1.43,1.8
6.900828123092651,0.57,-0.66,-1.09,1.39
6.901051998138428,0.29,-0.89,-0.72,1.18
6.9030210971832275,0.11,-1.17,-0.4,1.24
6.9130859375,-0.08,-1.5,-0.15,1.5
6.923217058181763,-0.3,-1.89,0.04,1.91
6.933895111083984,-0.46,-2.31,0.08,2.35
7.00033712387085,-0.63,-2.82,-0.03,2.88
7.000592231750488,-0.87,-3.31,-0.29,3.43
7.000830173492432,-1.1,-3.65,-0.64,3.86
7.001054048538208,-1.17,-4.01,-1.04,4.3
7.001275062561035,-1.24,-4.35,-1.47,4.75
7.001502990722656,-1.42,-4.71,-1.9,5.27
7.0029191970825195,-1.64,-5.14,-2.23,5.83
7.012954235076904,-2.03,-5.57,-2.39,6.39
7.023003101348877,-2.69,-5.7,-2.31,6.71
7.033915042877197,-3.4,-5.38,-1.92,6.64
7.10068416595459,-3.88,-4.78,-1.24,6.28
7.100934028625488,-3.85,-3.79,-0.39,5.41
7.1011741161346436,-3.23,-2.25,0.56,3.97
7.101400136947632,-2.12,-0.44,1.72,2.76
7.101630210876465,-0.43,1.39,3.29,3.59
7.101853132247925,1.88,3.33,5.4,6.61
7.1027491092681885,4.79,5.24,7.5,10.32
7.112881183624268,7.7,6.94,8.2,13.21
7.12290620803833,9.29,7.93,6.65,13.9
7.1336071491241455,10.02,8.6,4.19,13.85
7.199053049087524,8.11,6.99,1.77,10.85
7.199306964874268,4.6,4.35,-0.06,6.33
7.199540138244629,2.13,2.85,-0.94,3.68
7.199764251708984,0.54,2.3,-1.37,2.73
7.199991226196289,-0.43,2.25,-1.66,2.82
7.200218200683594,-1.18,2.24,-2.09,3.28
7.202652931213379,-2.43,1.72,-2.54,3.91
7.2126359939575195,-4.01,0.94,-2.8,4.98
7.222679138183594,-5.37,0.07,-2.93,6.11
7.233436107635498,-6.12,-0.84,-2.71,6.74
7.299777984619141,-6.35,-1.9,-2.25,6.99
7.300028085708618,-6.03,-2.66,-1.87,6.85
7.300260066986084,-4.34,-2.42,-1.64,5.23
7.300487041473389,-2.47,-1.53,-1.21,3.14
7.300711154937744,-1.62,-0.77,-0.38,1.83
7.300933122634888,-1.11,-0.23,0.3,1.17
7.302573204040527,-0.31,0.45,0.68,0.87
7.312435150146484,0.52,0.81,0.78,1.23
7.322591066360474,1.3,0.97,0.64,1.74
7.333389043807983,2.07,0.85,0.39,2.27
7.400288105010986,2.73,0.33,0.24,2.76
7.4005351066589355,2.97,-0.37,0.25,3.0
7.400769233703613,2.72,-1.11,0.1,2.93
7.40099310874939,2.18,-1.75,-0.25,2.8
7.401217937469482,1.72,-2.3,-0.66,2.94
7.401438236236572,1.37,-2.91,-1.04,3.38
7.402406215667725,1.14,-3.46,-1.25,3.85
7.412589073181152,1.04,-3.97,-1.38,4.32
7.422561168670654,1.0,-4.44,-1.47,4.78
7.433465003967285,0.85,-4.7,-1.42,4.98
7.4425740242004395,0.74,-4.79,-1.21,4.99
7.5002601146698,0.62,-4.67,-0.8,4.77
7.500511169433594,0.35,-4.33,-0.32,4.35
7.500739097595215,0.23,-3.79,0.15,3.79
7.500967025756836,0.11,-3.09,0.59,3.14
7.501188039779663,-0.32,-2.18,0.94,2.39
7.50230598449707,-0.98,-1.01,1.31,1.92
7.512474060058594,-1.67,0.47,1.68,2.41
7.522470951080322,-1.94,1.97,2.05,3.44
7.533227920532227,-1.93,3.11,2.46,4.41
7.542415142059326,-2.22,3.77,2.83,5.21
7.600569248199463,-2.82,4.17,3.0,5.86
7.600815057754517,-2.91,4.51,2.62,5.97
7.601055145263672,-2.4,4.69,1.58,5.5
7.601277112960815,-1.6,4.91,0.35,5.17
7.601510047912598,-1.1,5.36,-0.17,5.47
7.60227108001709,-0.2,5.78,-0.17,5.78
7.612214088439941,-0.09,5.58,-0.02,5.58
7.622391223907471,-0.46,5.19,-0.09,5.21
7.633178234100342,-0.5,4.88,-0.75,4.96
7.64224100112915,0.04,4.4,-1.76,4.73
7.701742172241211,0.56,3.37,-2.63,4.31
7.701990127563477,0.9,2.31,-2.89,3.8
7.702222108840942,1.24,1.32,-2.43,3.03
7.702449083328247,1.66,0.64,-1.57,2.37
7.702677249908447,2.06,0.27,-0.86,2.24
7.702905178070068,2.15,-0.07,-0.69,2.25
7.712079048156738,1.88,-0.31,-1.02,2.16
7.722290992736816,1.66,-0.55,-1.41,2.24
7.732929229736328,1.55,-0.81,-1.56,2.34
7.742187023162842,1.39,-0.96,-1.56,2.29
7.801891088485718,1.09,-1.08,-1.47,2.12
7.8021440505981445,0.71,-1.3,-1.33,1.99
7.8023762702941895,0.39,-1.57,-1.12,1.96
7.802602052688599,0.08,-1.85,-0.85,2.03
7.802823066711426,-0.19,-2.1,-0.62,2.19
7.803045034408569,-0.37,-2.38,-0.38,2.43
7.81197714805603,-0.5,-2.77,-0.22,2.82
7.822163105010986,-0.55,-3.2,-0.23,3.25
7.832811117172241,-0.6,-3.6,-0.37,3.66
7.8420939445495605,-0.73,-4.0,-0.6,4.11
7.902307987213135,-0.89,-4.31,-0.92,4.49
7.902559041976929,-1.15,-4.56,-1.27,4.87
7.902792930603027,-1.49,-4.81,-1.57,5.27
7.9030232429504395,-1.79,-4.9,-1.76,5.5
7.903243064880371,-2.06,-4.88,-1.83,5.6
7.903469085693359,-2.39,-4.79,-1.72,5.62
7.911855220794678,-2.78,-4.51,-1.44,5.49
7.922097206115723,-3.1,-4.08,-0.92,5.2
7.932685136795044,-3.08,-3.49,-0.25,4.66
7.941970109939575,-2.57,-2.67,0.66,3.76
8.002401113510132,-1.59,-1.38,1.75,2.73
8.002650260925293,-0.2,0.13,3.12,3.12
8.00287914276123,2.05,2.22,4.95,5.79
8.003101110458374,4.57,4.6,6.7,9.32
8.003324031829834,7.17,6.77,7.47,12.37
8.003541946411133,9.18,8.4,6.58,14.07
8.011751174926758,9.71,8.67,4.45,13.75
8.021955966949463,8.48,7.77,2.22,11.71
8.03261423110962,5.34,5.12,0.58,7.42
8.041913032531738,2.8,3.33,-0.35,4.36
8.103297233581543,0.99,2.79,-0.84,3.07
8.103548049926758,-0.44,2.72,-1.39,3.08
8.10378909111023,-1.27,2.46,-1.95,3.38
8.104013919830322,-1.93,2.06,-2.34,3.66
8.104236125946045,-3.11,1.14,-2.52,4.16
8.104459047317505,-4.54,0.13,-2.45,5.16
8.111654043197632,-5.83,-0.66,-2.07,6.22
8.121805191040039,-6.56,-1.18,-1.5,6.83
8.132360935211182,-6.22,-1.16,-1.0,6.4
8.141794204711914,-5.23,-0.74,-0.83,5.34
8.203393936157227,-4.14,-0.51,-1.03,4.29
8.203642129898071,-3.25,-0.42,-1.14,3.46
8.203872203826904,-2.16,-0.03,-0.84,2.31
8.204108238220215,-1.11,0.32,-0.39,1.21
8.204338073730469,-0.15,0.65,-0.11,0.67
8.20456314086914,0.8,0.82,-0.22,1.16
8.211626052856445,1.69,0.65,-0.5,1.87
8.221796035766602,2.3,0.15,-0.38,2.33
8.23220705986023,2.59,-0.72,0.13,2.69
8.241703987121582,2.54,-1.65,0.67,3.1
8.30406403541565,2.39,-2.55,0.76,3.57
8.304322242736816,2.2,-3.29,0.41,3.97
8.304551124572754,1.94,-3.8,-0.2,4.27
8.30477523803711,1.72,-4.27,-0.74,4.66
8.305000066757202,1.5,-4.71,-1.21,5.08
8.305223941802979,1.03,-5.04,-1.48,5.35
8.311845064163208,0.59,-5.28,-1.59,5.54
8.321670055389404,0.21,-5.42,-1.55,5.64
8.332154035568237,-0.19,-5.43,-1.28,5.58
8.341543197631836,-0.35,-5.11,-0.91,5.2
8.404634952545166,0.03,-4.18,-0.33,4.19
8.404884099960327,0.08,-2.92,0.38,2.94
8.405117988586426,-0.48,-1.48,1.06,1.88
8.405343055725098,-1.16,-0.07,1.63,2.0
8.405570030212402,-1.55,1.37,2.21,3.02
8.405793190002441,-1.52,2.93,2.89,4.38
8.411416053771973,-0.98,4.29,3.36,5.53
8.421572208404541,-0.16,5.15,3.43,6.18
8.432031154632568,-0.52,5.34,3.24,6.26
8.441466093063354,-1.6,5.17,2.58,5.99
8.505128145217896,-1.72,4.98,1.43,5.45
8.505375146865845,-1.33,4.91,0.04,5.08
8.50560712814331,-0.97,5.26,-0.89,5.42
8.50583004951477,-0.35,5.41,-1.04,5.52
8.506055116653442,0.02,4.53,-0.59,4.56
8.506277084350586,-0.1,3.59,-0.2,3.59
8.511248111724854,0.35,2.95,-0.58,3.02
8.521317958831787,0.82,2.13,-1.59,2.78
8.531853199005127,1.09,1.15,-2.55,3.0
8.541330099105835,0.93,-0.08,-2.94,3.08
8.606306076049805,0.47,-0.99,-2.61,2.83
8.606551170349121,0.36,-1.45,-1.67,2.24
8.606779098510742,0.92,-1.07,-0.59,1.52
8.607010126113892,1.93,-0.06,0.16,1.93
8.607230186462402,2.34,0.77,0.56,2.52
8.607454061508179,2.22,1.32,0.64,2.66
8.611184120178223,1.93,1.53,0.4,2.49
8.621380090713501,1.86,1.54,-0.07,2.41
8.631866931915283,1.74,1.3,-0.66,2.27
8.641302108764648,1.37,0.95,-1.23,2.07
8.705549240112305,0.93,0.46,-1.6,1.9
8.705801963806152,0.52,-0.07,-1.75,1.82
8.70603322982788,0.12,-0.64,-1.73,1.84
8.706264019012451,-0.22,-1.22,-1.61,2.03
8.706485271453857,-0.4,-1.76,-1.51,2.35
8.706704139709473,-0.53,-2.38,-1.45,2.83
8.711080074310303,-0.73,-3.02,-1.41,3.41
8.72124719619751,-0.86,-3.56,-1.47,3.94
8.73185920715332,-0.84,-4.03,-1.67,4.44
8.74121618270874,-0.75,-4.54,-1.92,4.98
8.806498050689697,-0.87,-5.02,-2.13,5.52
8.80674695968628,-1.18,-5.39,-2.19,5.93
8.80698013305664,-1.8,-5.72,-2.08,6.34
8.807208061218262,-2.56,-5.9,-1.75,6.66
8.807430267333984,-3.15,-5.79,-1.33,6.72
8.807651996612549,-3.51,-5.36,-0.79,6.45
8.810882091522217,-3.66,-4.7,-0.02,5.95
8.82105302810669,-3.23,-3.45,1.17,4.86
8.83150315284729,-2.17,-1.6,2.8,3.88
8.841001033782959,-0.6,0.65,4.77,4.85
8.907037258148193,2.04,2.98,6.63,7.54
8.907283067703247,4.67,4.96,8.21,10.66
8.907506942749023,7.07,6.75,8.23,12.77
8.907727241516113,9.14,7.87,6.38,13.64
8.907948970794678,9.72,7.81,3.42,12.92
8.90816593170166,7.2,6.22,0.53,9.52
8.910856246948242,3.44,3.66,-1.48,5.23
8.921061992645264,0.89,1.89,-2.17,3.01
8.931442260742188,-0.71,0.77,-2.07,2.31
8.940952062606812,-1.34,0.51,-1.82,2.31
9.008018016815186,-1.06,0.66,-1.56,1.99
9.008268117904663,-1.32,0.96,-1.59,2.27
9.008499145507812,-2.49,0.85,-1.9,3.24
9.008726119995117,-3.63,0.82,-2.0,4.22
9.008950233459473,-4.23,0.59,-1.82,4.64
9.009172916412354,-4.97,-0.22,-1.19,5.11
9.010798931121826,-5.03,-0.49,-0.63,5.09
9.020901203155518,-3.45,0.07,-0.32,3.46
9.031352996826172,-1.95,0.76,0.09,2.09
9.040877103805542,-1.63,1.27,0.68,2.17
9.108609199523926,-1.0,1.77,1.09,2.3
9.108866214752197,-0.22,2.33,1.18,2.62
9.109095096588135,0.34,2.51,0.66,2.61
9.10931921005249,0.93,2.3,-0.4,2.51
9.109539031982422,1.61,1.72,-1.54,2.81
9.109759092330933,1.96,0.8,-2.38,3.18
9.110692977905273,1.95,-0.07,-2.62,3.26
9.12066125869751,1.75,-0.82,-2.32,3.01
9.131192207336426,1.41,-1.66,-1.62,2.71
9.140737056732178,1.18,-2.36,-1.05,2.83
9.208953142166138,0.85,-2.93,-0.7,3.13
9.209198951721191,0.56,-3.51,-0.53,3.59
9.209424018859863,0.35,-4.26,-0.5,4.3
9.209650039672852,0.44,-4.9,-0.65,4.96
9.20987319946289,0.8,-5.43,-0.87,5.55
9.210122108459473,0.86,-5.92,-1.08,6.07
9.210556030273438,0.55,-6.29,-1.17,6.42
9.22065019607544,0.06,-6.29,-1.09,6.38
9.2309889793396,-0.32,-6.07,-0.86,6.13
9.240641117095947,-0.15,-5.23,-0.67,5.27
9.30938720703125,-0.17,-3.9,-0.37,3.92
9.3096342086792,-0.85,-2.29,0.06,2.44
9.309868097305298,-1.58,-0.68,0.68,1.84
9.310111045837402,-2.05,0.68,1.42,2.58
9.31033706665039,-2.25,2.17,2.35,3.91
9.31055498123169,-1.79,3.69,3.45,5.35
9.310778141021729,-1.13,4.93,4.47,6.75
9.32054615020752,-0.88,5.84,4.83,7.62
9.331361055374146,-0.81,6.16,3.88,7.32
9.340551137924194,-0.66,6.06,1.92,6.39
9.410157203674316,-0.12,5.83,-0.16,5.83
9.410412073135376,0.14,5.95,-1.27,6.08
9.410644054412842,0.09,5.82,-1.16,5.93
9.410871028900146,-0.47,5.07,-0.44,5.11
9.411097049713135,-0.6,4.39,-0.03,4.43
9.411320209503174,0.1,3.85,-0.44,3.87
9.411539077758789,0.6,3.11,-1.36,3.44
9.420423984527588,0.8,2.19,-2.22,3.21
9.43141794204712,0.7,0.99,-2.49,2.76
9.440463066101074,0.55,-0.04,-2.02,2.09
9.510836124420166,0.7,-0.63,-1.09,1.44
9.511088132858276,1.2,-0.72,-0.38,1.45
9.511322021484375,1.82,-0.46,-0.37,1.91
9.511555194854736,2.21,-0.24,-0.8,2.36
9.511778116226196,2.12,-0.25,-1.19,2.44
9.512002944946289,1.94,-0.46,-1.36,2.41
9.512206077575684,1.9,-0.68,-1.36,2.43
9.520390033721924,1.75,-0.76,-1.33,2.32
9.59438705444336,1.39,-0.86,-1.27,2.06
9.594636917114258,0.98,-1.06,-1.16,1.85
9.594869136810303,0.53,-1.32,-1.04,1.76
9.595097064971924,0.14,-1.59,-0.9,1.83
9.595323085784912,-0.14,-1.89,-0.76,2.04
9.595541954040527,-0.36,-2.26,-0.61,2.36
9.595767974853516,-0.49,-2.62,-0.49,2.71
9.600066184997559,-0.51,-2.96,-0.52,3.04
9.610198974609375,-0.6,-3.33,-0.64,3.44
9.620196104049683,-0.7,-3.71,-0.83,3.86
9.695735931396484,-0.73,-3.96,-1.11,4.17
9.69599723815918,-0.71,-4.24,-1.4,4.52
9.696227073669434,-0.83,-4.41,-1.59,4.76
9.696458101272583,-1.09,-4.49,-1.62,4.89
9.696682929992676,-1.51,-4.56,-1.46,5.02
9.696908950805664,-2.22,-4.55,-1.04,5.16
9.697140216827393,-3.02,-4.27,-0.48,5.25
9.700022220611572,-3.54,-3.62,0.12,5.06
9.71010708808899,-3.48,-2.27,0.73,4.21
9.720067977905273,-2.59,-0.47,1.39,2.97
9.795825004577637,-1.02,1.45,2.42,2.99
9.796072959899902,1.33,3.29,3.9,5.27
9.79630422592163,4.04,4.69,5.41,8.22
9.79653024673462,6.79,5.84,6.11,10.84
9.796748161315918,8.92,6.59,5.33,12.3
9.79696798324585,9.68,6.53,3.73,12.25
9.797183990478516,7.13,5.07,2.46,9.08
9.799808979034424,3.59,2.93,1.59,4.89
9.810027122497559,1.67,1.78,1.02,2.64
9.819897174835205,0.66,1.64,0.49,1.83
9.830718040466309,0.05,2.1,-0.18,2.1
9.89637804031372,-0.5,2.23,-0.97,2.48
9.896625995635986,-1.19,2.0,-1.7,2.88
9.896859169006348,-2.36,1.63,-2.14,3.57
9.89708423614502,-3.94,0.88,-2.21,4.6
9.897309064865112,-5.16,0.09,-2.0,5.53
9.897531032562256,-5.88,-0.46,-1.62,6.11
9.899657249450684,-5.54,-0.55,-1.12,5.67
9.909786224365234,-4.23,-0.2,-0.94,4.33
9.919803142547607,-3.04,0.07,-1.03,3.21
9.930644035339355,-2.51,0.13,-0.95,2.68
9.996674060821533,-1.75,0.46,-0.71,1.94
9.996931076049805,-0.95,0.8,-0.54,1.35
9.997166156768799,-0.11,0.9,-0.77,1.18
9.997395992279053,0.79,0.86,-1.27,1.72
9.997619152069092,1.63,0.56,-1.68,2.4
9.997846126556396,2.17,0.04,-1.74,2.78
9.999614238739014,2.48,-0.64,-1.46,2.94
10.00974702835083,2.65,-1.52,-0.8,3.15
10.019747257232666,2.32,-2.45,-0.41,3.39
10.030617237091064,2.16,-2.84,-0.2,3.57
10.096781253814697,2.08,-3.29,-0.18,3.89
10.097029209136963,1.88,-3.62,-0.31,4.09
10.097265243530273,1.58,-3.98,-0.4,4.3
10.09748911857605,1.4,-4.28,-0.48,4.52
10.097692012786865,1.25,-4.48,-0.48,4.67
10.097906112670898,0.89,-4.57,-0.38,4.67
10.099569082260132,0.58,-4.41,-0.19,4.45
10.109620094299316,0.27,-4.15,0.0,4.15
10.119637966156006,-0.22,-3.56,0.08,3.56
10.130427122116089,-0.39,-2.56,0.13,2.59
10.197309017181396,-0.45,-1.39,0.2,1.47
10.197565078735352,-0.7,-0.14,0.27,0.76
10.197800159454346,-0.95,0.96,0.42,1.41
10.198029041290283,-1.26,1.94,0.78,2.44
10.198252201080322,-1.82,2.71,1.47,3.58
10.198956966400146,-2.3,3.4,2.25,4.68
10.199428081512451,-2.37,4.11,2.79,5.5
10.209534168243408,-2.05,4.46,2.79,5.64
10.21947717666626,-1.8,4.51,2.07,5.27
10.230342149734497,-1.55,4.26,1.05,4.65
10.298190116882324,-0.53,3.95,0.09,3.98
10.29888916015625,0.26,4.05,-0.25,4.06
10.299127101898193,0.61,3.94,-0.2,3.99
10.299358129501343,0.0,3.58,-0.05,3.58
10.29958724975586,-0.21,3.63,-0.07,3.63
10.299814224243164,-0.22,3.48,-0.47,3.51
10.300049066543579,-0.36,2.9,-1.14,3.13
10.309407234191895,-0.16,2.16,-1.6,2.69
10.319247245788574,0.57,1.73,-1.66,2.46
10.33019208908081,1.87,1.76,-1.39,2.92
10.398839950561523,2.97,1.87,-1.02,3.65
10.399092197418213,3.44,1.89,-0.98,4.04
10.399326086044312,3.28,1.79,-1.45,4.0
10.399556159973145,2.68,1.39,-2.17,3.71
10.399778127670288,2.01,0.88,-2.7,3.47
10.399996042251587,1.47,0.4,-2.8,3.18
10.400215148925781,0.86,0.06,-2.52,2.66
10.409456253051758,0.14,-0.31,-2.06,2.08
10.419145107269287,-0.41,-0.77,-1.55,1.77
10.430166244506836,-0.62,-1.18,-1.06,1.7
10.499204158782959,-0.6,-1.64,-0.67,1.87
10.499445915222168,-0.5,-2.11,-0.3,2.18
10.499690055847168,-0.39,-2.64,-0.04,2.66
10.499918937683105,-0.34,-3.23,0.05,3.24
10.500152111053467,-0.37,-3.68,-0.04,3.69
10.500391960144043,-0.47,-4.14,-0.29,4.17
10.500614166259766,-0.64,-4.45,-0.62,4.53
10.509205102920532,-0.86,-4.74,-0.99,4.91
10.51904296875,-1.09,-4.86,-1.34,5.15
10.529983043670654,-1.36,-4.9,-1.62,5.33
10.599698066711426,-1.6,-5.07,-1.84,5.62
10.59996509552002,-1.99,-5.04,-1.92,5.74
10.60019826889038,-2.47,-4.9,-1.79,5.77
10.600449085235596,-3.02,-4.75,-1.4,5.8
10.600681066513062,-3.38,-4.31,-0.82,5.53
10.600924015045166,-3.09,-3.48,-0.04,4.65
10.601147174835205,-2.21,-2.21,0.93,3.26
10.609097957611084,-1.13,-0.79,1.94,2.38
10.618927001953125,0.07,0.65,3.06,3.12
10.62984323501587,2.14,2.17,4.32,5.28
10.700423240661621,4.9,3.76,5.68,8.39
10.700668096542358,7.26,5.15,6.52,11.03
10.700896263122559,9.19,6.11,6.14,12.62
10.701123237609863,10.36,6.57,4.79,13.16
10.70134711265564,9.28,5.99,3.03,11.45
10.701563119888306,6.05,4.25,1.26,7.5
10.701786041259766,2.95,2.43,0.07,3.82
10.708920001983643,0.86,1.5,-0.36,1.76
10.719011068344116,-0.53,1.47,-0.69,1.7
10.729736089706421,-1.43,1.58,-1.0,2.35
10.800950050354004,-2.12,1.42,-1.57,2.99
10.801207065582275,-2.87,1.15,-2.25,3.82
10.801441192626953,-3.84,0.58,-2.75,4.75
10.801671981811523,-4.86,0.11,-2.98,5.7
10.801894187927246,-5.61,-0.34,-2.87,6.31
10.802114963531494,-5.85,-0.73,-2.32,6.33
10.802334070205688,-5.08,-0.76,-1.79,5.43
10.808861255645752,-3.99,-0.24,-1.59,4.3
10.818741083145142,-2.98,0.38,-1.42,3.32
10.829607009887695,-2.37,0.91,-0.97,2.71
10.901326179504395,-1.48,1.59,-0.45,2.21
10.901575088500977,-0.67,2.14,-0.05,2.24
10.901801109313965,0.04,2.52,0.05,2.52
10.902029037475586,0.82,2.65,0.01,2.77
10.902250051498413,1.52,2.26,0.0,2.72
10.90247106552124,2.0,1.44,0.22,2.47
10.902688980102539,2.19,0.28,0.55,2.27
10.90871810913086,2.1,-0.9,0.55,2.35
10.9185791015625,1.92,-1.84,0.31,2.67
10.929572105407715,1.79,-2.6,0.0,3.15
11.00223708152771,1.67,-3.24,-0.35,3.66
11.002506256103516,1.63,-3.83,-0.64,4.21
11.002740144729614,1.43,-4.41,-0.84,4.71
11.002970218658447,1.12,-4.88,-1.01,5.1
11.003196239471436,0.9,-5.28,-1.16,5.48
11.003421068191528,0.5,-5.66,-1.2,5.8
11.003643035888672,-0.07,-5.9,-1.14,6.0
11.008575916290283,-0.59,-5.91,-1.15,6.04
11.018494129180908,-1.19,-5.64,-1.02,5.85
11.029422044754028,-1.43,-5.04,-0.62,5.27
11.102219104766846,-0.85,-3.98,-0.13,4.07
11.1024751663208,-0.79,-2.68,0.64,2.86
11.102707147598267,-1.12,-1.04,1.72,2.3
11.102934122085571,-1.65,0.73,3.04,3.53
11.10316514968872,-2.34,2.51,4.41,5.58
11.103390216827393,-2.78,4.51,5.49,7.62
11.103613138198853,-2.89,6.14,5.78,8.91
11.108456134796143,-2.72,7.12,4.7,8.95
11.11834716796875,-2.05,7.21,2.38,7.86
11.129323959350586,-1.24,6.61,-0.29,6.73
11.203176021575928,-0.37,5.97,-2.5,6.48
11.203431129455566,0.02,5.13,-3.37,6.13
11.203667163848877,-0.11,4.24,-2.95,5.16
11.203893184661865,-0.4,3.48,-1.62,3.85
11.204119205474854,-0.25,2.93,-0.38,2.96
11.204339981079102,0.13,2.12,-0.16,2.13
11.20456314086914,0.47,1.35,-1.22,1.87
11.20818305015564,0.7,0.63,-2.41,2.58
11.218267917633057,0.96,-0.09,-2.8,2.96
11.22918701171875,1.53,-0.91,-2.34,2.94
11.304122924804688,2.45,-1.38,-1.25,3.07
11.304373264312744,3.17,-1.07,-0.26,3.35
11.304605960845947,2.99,-0.26,0.28,3.01
11.304829120635986,2.67,0.34,0.37,2.71
11.305054187774658,2.55,0.69,0.09,2.64
11.305273056030273,2.31,1.06,-0.32,2.56
11.305491924285889,2.02,1.15,-0.68,2.42
11.308272123336792,1.59,1.06,-0.89,2.1
11.318198204040527,1.03,0.76,-1.02,1.63
11.329020977020264,0.51,0.38,-1.11,1.27
11.40437126159668,0.06,-0.05,-1.15,1.15
11.40463399887085,-0.32,-0.53,-1.18,1.33
11.404868125915527,-0.51,-1.03,-1.21,1.66
11.405104160308838,-0.64,-1.5,-1.26,2.06
11.405330181121826,-0.77,-1.94,-1.24,2.42
11.40555214881897,-0.9,-2.57,-1.15,2.95
11.405774116516113,-1.14,-3.23,-1.08,3.59
11.408052921295166,-1.26,-3.75,-1.04,4.09
11.417995929718018,-1.15,-4.13,-1.13,4.43
11.428919076919556,-1.05,-4.34,-1.21,4.62
11.504954099655151,-1.09,-4.64,-1.24,4.92
11.505200147628784,-1.26,-4.85,-1.25,5.16
11.505430221557617,-1.53,-4.93,-1.13,5.28
11.50563907623291,-1.93,-4.93,-0.87,5.36
11.505865097045898,-2.51,-4.83,-0.5,5.46
11.50609302520752,-2.93,-4.42,-0.11,5.3
11.506316184997559,-2.96,-3.63,0.36,4.69
11.507987976074219,-2.54,-2.41,0.9,3.61
11.518162250518799,-1.68,-0.8,1.59,2.44
11.528974056243896,-0.39,0.89,2.46,2.64
11.605221271514893,2.0,2.67,3.71,4.98
11.605472087860107,4.64,4.34,5.33,8.29
11.605700969696045,6.92,5.69,6.42,11.02
11.605923175811768,8.64,6.61,5.69,12.27
11.606145143508911,8.9,6.8,3.83,11.83
11.606362104415894,6.52,5.57,2.11,8.83
11.60657811164856,3.45,3.61,0.75,5.04
11.6079580783844,1.38,2.54,0.15,2.89
11.618349075317383,-0.14,2.2,0.08,2.2
11.628878116607666,-0.87,2.24,-0.2,2.41
11.705976963043213,-0.96,2.21,-0.8,2.53
11.706229209899902,-1.43,2.18,-1.56,3.03
11.706464052200317,-2.76,1.88,-2.3,4.05
11.706686973571777,-4.15,1.57,-2.64,5.16
11.706912994384766,-5.12,1.04,-2.53,5.8
11.70713210105896,-6.06,0.16,-2.13,6.42
11.707371234893799,-6.29,-0.42,-1.58,6.49
11.707784175872803,-5.06,-1.06,-1.38,5.35
11.718454122543335,-3.09,-0.96,-1.47,3.55
11.728723049163818,-1.36,-0.35,-1.22,1.86
11.806835174560547,-0.62,0.29,-0.49,0.84
11.807094097137451,-0.33,0.66,0.03,0.73
11.807354927062988,0.4,0.86,0.17,0.96
11.80757999420166,1.03,0.76,0.14,1.28
11.807804107666016,1.48,0.31,0.08,1.51
11.808025121688843,1.84,-0.32,0.01,1.86
11.808244228363037,2.02,-1.06,0.02,2.28
11.808467149734497,2.08,-1.73,-0.22,2.71
11.817809104919434,1.98,-2.37,-0.52,3.13
11.828624248504639,1.83,-2.98,-0.9,3.61
11.906981945037842,1.61,-3.47,-1.22,4.01
11.907254219055176,1.4,-3.91,-1.35,4.36
11.907465934753418,1.21,-4.35,-1.35,4.71
11.907693147659302,0.98,-4.78,-1.21,5.02
11.907922267913818,0.77,-5.11,-0.94,5.25
11.908151149749756,0.53,-5.3,-0.55,5.35
11.908353090286255,0.11,-5.3,-0.05,5.3
11.908575057983398,-0.23,-4.94,0.46,4.96
11.917693138122559,-0.29,-4.2,0.82,4.28
11.928514957427979,-0.31,-3.25,1.0,3.41
12.008055210113525,-0.67,-2.04,1.21,2.46
12.00831913948059,-1.08,-0.71,1.56,2.02
12.008553981781006,-1.42,0.84,2.01,2.6
12.008779048919678,-1.7,2.42,2.47,3.85
12.009007930755615,-1.71,3.81,2.76,5.0
12.009228229522705,-1.57,4.83,2.63,5.71
12.009448051452637,-1.63,5.24,2.16,5.89
12.009651184082031,-1.83,5.24,1.5,5.74
12.017609119415283,-1.79,4.82,0.61,5.17
12.028364181518555,-1.4,4.26,-0.39,4.5
12.108592987060547,-0.64,4.02,-1.15,4.22
12.108850002288818,-0.12,3.98,-0.91,4.08
12.109082221984863,0.37,3.55,-0.05,3.56
12.109308242797852,-0.05,3.04,0.72,3.12
12.109519958496094,-0.33,3.01,0.76,3.12
12.10974407196045,-0.11,3.05,-0.08,3.05
12.109966039657593,0.25,2.37,-1.26,2.69
12.110188007354736,0.52,1.42,-1.99,2.49
12.117420196533203,0.82,0.64,-1.98,2.23
12.128167152404785,1.28,0.04,-1.22,1.76
12.210072040557861,1.65,0.14,-0.24,1.67
12.210328102111816,2.07,0.71,0.28,2.2
12.210559129714966,2.42,1.26,0.17,2.73
12.210785150527954,2.46,1.49,-0.47,2.91
12.211007118225098,2.12,1.41,-1.34,2.87
12.211230039596558,1.73,1.02,-2.1,2.9
12.211450099945068,1.29,0.53,-2.62,2.96
12.211668968200684,0.68,0.04,-2.81,2.89
12.217239141464233,0.06,-0.37,-2.66,2.68
12.228148937225342,-0.46,-0.83,-2.29,2.47
12.310267925262451,-0.79,-1.3,-1.79,2.34
12.310517072677612,-1.0,-1.68,-1.19,2.28
12.3107430934906,-1.03,-2.06,-0.59,2.37
12.3109712600708,-1.02,-2.42,0.0,2.62
12.311196088790894,-0.95,-2.89,0.37,3.06
12.311420917510986,-0.93,-3.51,0.44,3.65
12.311643123626709,-0.96,-4.02,0.22,4.13
12.311861991882324,-0.88,-4.43,-0.18,4.52
12.317132949829102,-0.87,-4.7,-0.54,4.81
12.327836990356445,-1.09,-4.88,-0.82,5.06
12.410821914672852,-1.4,-4.97,-1.03,5.26
12.411080121994019,-1.82,-5.03,-1.16,5.47
12.41131591796875,-2.45,-4.89,-1.24,5.6
12.411540985107422,-2.99,-4.68,-1.19,5.67
12.411771059036255,-3.29,-4.25,-1.08,5.48
12.411996126174927,-3.15,-3.54,-0.9,4.82
12.412219047546387,-2.46,-2.42,-0.44,3.47
12.412444114685059,-1.3,-0.97,0.37,1.66
12.41704797744751,0.53,0.66,1.67,1.87
12.427845001220703,3.02,2.61,3.72,5.45
12.511418104171753,5.53,4.73,6.22,9.57
12.511660099029541,8.13,6.63,7.75,13.04
12.511897087097168,10.13,7.92,7.49,14.88
12.51212215423584,10.45,8.13,5.67,14.4
12.5123450756073,7.85,6.24,3.21,10.52
12.51256513595581,3.79,3.51,1.09,5.27
12.512790203094482,1.41,2.05,-0.37,2.51
12.513009071350098,-0.01,1.82,-1.15,2.15
12.516922950744629,-1.3,2.29,-1.67,3.11
12.527770042419434,-1.96,2.37,-2.09,3.71
12.612327098846436,-2.19,1.92,-2.64,3.93
12.61259126663208,-2.91,1.27,-3.16,4.47
12.612823009490967,-4.02,0.25,-3.46,5.3
12.613048076629639,-4.97,-0.66,-3.35,6.02
12.613276958465576,-5.7,-1.26,-2.85,6.49
12.613498210906982,-5.8,-1.63,-2.12,6.38
12.613718032836914,-4.88,-1.18,-1.34,5.19
12.613938093185425,-3.49,-0.52,-0.83,3.62
12.616847038269043,-2.35,-0.1,-0.35,2.37
12.627540111541748,-1.37,0.35,0.28,1.44
12.712045192718506,-0.19,0.86,0.86,1.23
12.712289094924927,0.95,1.08,1.21,1.87
12.712517261505127,1.89,1.22,1.31,2.6
12.712735176086426,2.53,1.01,1.2,2.97
12.712954998016357,2.79,0.41,1.07,3.01
12.71318006515503,2.64,-0.51,0.96,2.85
12.71340012550354,2.38,-1.47,0.48,2.83
12.71362018585205,2.17,-2.32,-0.21,3.18
12.716756105422974,2.14,-3.01,-0.89,3.79
12.727558135986328,1.93,-3.53,-1.37,4.25
12.812948226928711,1.42,-3.97,-1.56,4.49
12.813190937042236,0.73,-4.29,-1.47,4.59
12.813415050506592,0.01,-4.61,-1.27,4.78
12.813642978668213,-0.46,-4.9,-1.05,5.03
12.813863039016724,-0.5,-5.14,-0.88,5.23
12.814082145690918,-0.02,-5.01,-0.67,5.05
12.814301013946533,0.15,-4.56,-0.25,4.56
12.814517974853516,-0.1,-4.02,0.22,4.02
12.816657066345215,-0.32,-3.27,0.7,3.35
12.827295064926147,-0.56,-2.26,1.22,2.62
12.836555004119873,-0.92,-1.01,1.79,2.25
12.913227081298828,-1.2,0.48,2.33,2.66
12.913471221923828,-1.43,1.94,2.8,3.69
12.913701057434082,-1.57,3.4,3.26,4.96
12.913928031921387,-1.55,4.71,3.55,6.09
12.914152145385742,-1.67,5.53,3.45,6.72
12.914375066757202,-1.73,5.59,2.75,6.46
12.914595127105713,-1.35,5.29,1.34,5.62
12.916527271270752,-0.71,5.04,-0.4,5.1
12.927346229553223,-0.27,4.86,-1.65,5.13
12.93662714958191,0.19,4.39,-2.16,4.89
13.01413106918335,-0.04,3.86,-1.89,4.29
13.014380931854248,-0.47,3.36,-1.33,3.64
13.014610052108765,-0.42,3.04,-1.24,3.3
13.014836072921753,-0.1,2.69,-1.66,3.16
13.015056133270264,0.35,1.95,-2.24,2.99
13.015274047851562,0.87,1.04,-2.32,2.68
13.015492916107178,1.47,0.27,-1.7,2.26
13.016406059265137,1.89,0.34,-0.68,2.03
13.027151107788086,2.1,0.97,0.19,2.32
13.036383152008057,2.53,1.34,0.42,2.89
13.114553928375244,2.7,1.39,0.03,3.03
13.114797115325928,2.5,1.03,-0.66,2.78
13.115028142929077,2.13,0.51,-1.25,2.52
13.11525297164917,1.65,-0.03,-1.56,2.27
13.11548113822937,1.33,-0.44,-1.65,2.16
13.115705013275146,1.02,-0.87,-1.59,2.07
13.11592411994934,0.64,-1.32,-1.39,2.02
13.11622405052185,0.39,-1.72,-1.13,2.09
13.127032041549683,0.24,-2.09,-0.9,2.28
13.136321067810059,0.1,-2.43,-0.64,2.51
13.214952945709229,-0.11,-2.79,-0.45,2.82
13.2151780128479,-0.3,-3.22,-0.45,3.26
13.215407133102417,-0.47,-3.66,-0.55,3.73
13.215630054473877,-0.71,-4.09,-0.69,4.2
13.215882062911987,-0.91,-4.43,-0.86,4.6
13.21610403060913,-1.06,-4.63,-1.03,4.86
13.216323137283325,-1.3,-4.76,-1.21,5.08
13.216544151306152,-1.65,-4.84,-1.31,5.27
13.226941108703613,-2.13,-4.82,-1.26,5.41
13.236227035522461,-2.7,-4.68,-1.05,5.5
13.316084146499634,-3.1,-4.38,-0.77,5.42
13.316329956054688,-3.28,-3.87,-0.4,5.08
13.316562175750732,-3.02,-3.1,0.09,4.32
13.316787242889404,-2.17,-1.93,0.95,3.05
13.317013263702393,-0.89,-0.28,2.22,2.4
13.317234992980957,1.08,1.83,3.93,4.46
13.317450046539307,3.67,3.97,5.73,7.87
13.317667961120605,5.83,5.98,6.89,10.82
13.326754093170166,7.73,7.27,6.18,12.27
13.33622121810913,9.15,7.78,3.97,12.64
13.41686725616455,8.67,7.03,1.6,11.27
13.41710615158081,5.33,4.67,-0.2,7.08
13.417341232299805,2.48,2.83,-1.05,3.9
13.417563915252686,0.84,1.99,-0.78,2.29
13.417801141738892,0.49,2.16,-0.39,2.24
13.418020248413086,0.42,2.51,-0.19,2.55
13.418240070343018,-0.5,2.64,-0.45,2.72
13.418458938598633,-1.78,2.39,-1.16,3.19
13.42670202255249,-2.95,1.55,-1.81,3.79
13.436299085617065,-3.86,0.15,-2.06,4.37
13.517463207244873,-4.58,-1.18,-1.99,5.13
13.51770806312561,-4.72,-1.98,-1.55,5.34
13.517944097518921,-3.74,-1.33,-0.78,4.04
13.51817011833191,-2.92,-0.29,-0.07,2.93
13.518393993377686,-2.83,0.08,0.22,2.83
13.518623113632202,-2.43,0.57,0.32,2.51
13.51884126663208,-1.67,1.03,0.25,1.97
13.519059181213379,-0.78,1.38,-0.01,1.58
13.526548147201538,0.09,1.59,-0.54,1.68
13.53599214553833,0.74,1.61,-1.19,2.13
13.61827802658081,1.23,1.19,-1.71,2.41
13.618521213531494,1.52,0.35,-1.94,2.48
13.61875295639038,1.59,-0.64,-1.82,2.5
13.618983268737793,1.47,-1.65,-1.52,2.68
13.619204044342041,1.42,-2.57,-1.29,3.2
13.61942195892334,1.44,-3.53,-1.12,3.97
13.619645118713379,1.36,-4.32,-0.91,4.61
13.619868040084839,1.25,-5.0,-0.69,5.19
13.626500129699707,1.07,-5.66,-0.56,5.78
13.635873079299927,0.87,-6.2,-0.47,6.27
13.719516038894653,0.65,-6.58,-0.42,6.62
13.719765186309814,0.43,-6.67,-0.45,6.69
13.719995021820068,0.12,-6.44,-0.31,6.44
13.720218181610107,0.13,-5.68,-0.06,5.68
13.720448970794678,0.5,-4.22,0.26,4.25
13.720673084259033,0.32,-2.61,0.65,2.7
13.720895051956177,-0.21,-1.01,1.17,1.55
13.721117973327637,-0.91,0.69,1.97,2.27
13.72637414932251,-1.53,2.48,2.85,4.07
13.735759258270264,-1.83,4.06,3.52,5.67
13.82029414176941,-1.74,5.17,3.58,6.52
13.820538997650146,-1.58,5.74,2.79,6.57
13.82076907157898,-1.56,5.84,1.39,6.2
13.820998191833496,-1.62,5.61,-0.07,5.83
13.821224212646484,-1.35,5.21,-1.53,5.59
13.821444034576416,-0.64,4.77,-2.66,5.49
13.821666240692139,-0.32,4.2,-2.5,4.89
13.821892261505127,-0.58,3.58,-1.31,3.85
13.826072216033936,-1.09,3.21,0.33,3.4
13.835602045059204,-0.97,3.01,1.33,3.43
13.920804977416992,-0.65,2.84,1.18,3.14
13.921048164367676,-0.27,2.49,0.03,2.5
13.921276092529297,0.09,1.71,-1.3,2.14
13.921491146087646,0.47,1.03,-1.82,2.14
13.921719074249268,1.21,0.66,-1.46,2.0
13.921937942504883,2.22,0.86,-0.67,2.47
13.922163009643555,2.78,1.2,-0.22,3.03
13.92266321182251,2.78,1.17,-0.5,3.05
13.92601203918457,2.51,0.92,-1.23,2.94
13.935451984405518,2.22,0.56,-1.85,2.94
14.021223068237305,1.8,0.23,-2.13,2.79
14.021471977233887,1.35,-0.06,-2.22,2.59
14.02170205116272,0.97,-0.26,-2.07,2.3
14.02192497253418,0.63,-0.58,-1.66,1.86
14.022158145904541,0.26,-1.0,-1.22,1.59
14.022386074066162,-0.03,-1.49,-0.83,1.7
14.02292513847351,-0.25,-2.11,-0.42,2.16
14.02315616607666,-0.49,-2.71,-0.03,2.75
14.02591323852539,-0.7,-3.3,0.18,3.37
14.035380125045776,-0.9,-3.85,0.18,3.95
14.121528148651123,-1.22,-4.27,0.05,4.44
14.12177324295044,-1.44,-4.51,-0.19,4.73
14.122004985809326,-1.46,-4.68,-0.54,4.93
14.122234106063843,-1.43,-4.82,-0.87,5.1
14.12245798110962,-1.48,-4.91,-1.16,5.25
14.12268614768982,-1.65,-5.02,-1.33,5.44
14.123417139053345,-1.83,-5.03,-1.39,5.53
14.123672008514404,-2.16,-4.93,-1.27,5.53
14.125741004943848,-2.56,-4.61,-0.94,5.35
14.135326147079468,-2.5,-3.86,-0.52,4.62
14.222451210021973,-1.94,-2.74,0.08,3.35
14.222699165344238,-1.33,-1.28,1.04,2.11
14.222929954528809,-0.61,0.41,2.44,2.54
14.223652124404907,0.95,2.51,4.31,5.07
14.223886013031006,3.17,4.58,6.16,8.3
14.224110126495361,5.47,6.22,6.79,10.71
14.224333047866821,7.9,7.43,5.57,12.19
14.224550247192383,9.57,7.77,3.11,12.71
14.225575923919678,9.52,6.97,0.13,11.79
14.235230922698975,6.16,4.95,-1.74,8.09
14.32332706451416,2.33,2.74,-2.3,4.26
14.323580265045166,0.22,1.58,-1.76,2.37
14.32384204864502,-0.94,1.48,-1.02,2.02
14.324083089828491,-1.25,1.83,-0.55,2.28
14.32430911064148,-1.61,2.01,-0.69,2.66
14.324552059173584,-2.85,1.62,-1.14,3.47
14.32478404045105,-4.25,0.7,-1.42,4.53
14.3250150680542,-5.34,-0.46,-1.3,5.51
14.325943946838379,-5.8,-1.55,-0.9,6.07
14.335161209106445,-5.13,-2.19,-0.36,5.58
14.425032138824463,-3.45,-1.35,0.05,3.7
14.425292015075684,-2.55,-0.25,0.43,2.59
14.425528049468994,-2.35,0.38,0.78,2.5
14.425755977630615,-1.9,0.8,0.87,2.23
14.425987243652344,-0.91,1.49,0.71,1.88
14.42621111869812,0.02,1.94,0.16,1.94
14.42643117904663,0.96,2.34,-0.66,2.61
14.426653146743774,1.72,2.22,-1.6,3.23
14.427595138549805,2.08,1.64,-2.49,3.63
14.434972047805786,2.15,0.68,-2.93,3.69
14.524829149246216,2.03,-0.58,-2.8,3.5
14.525079250335693,1.71,-1.81,-2.3,3.38
14.525317192077637,1.35,-2.91,-1.73,3.64
14.525542259216309,1.06,-3.82,-1.16,4.13
14.525773048400879,0.86,-4.54,-0.49,4.64
14.525991916656494,0.75,-5.03,0.04,5.08
14.526215076446533,0.71,-5.41,0.31,5.46
14.526432991027832,0.67,-5.65,0.35,5.7
14.527346134185791,0.56,-5.8,0.31,5.83
14.534836053848267,0.45,-5.85,0.26,5.87
14.625790119171143,0.37,-5.54,0.23,5.55
14.626044034957886,0.2,-4.94,0.24,4.94
14.626283168792725,-0.06,-4.05,0.36,4.06
14.626511096954346,-0.34,-2.93,0.54,2.99
14.626739978790283,-0.8,-1.73,0.77,2.05
14.626960039138794,-1.39,-0.15,1.19,1.83
14.627182960510254,-1.89,1.63,1.82,3.08
14.62740421295166,-2.02,3.42,2.52,4.7
14.628342151641846,-1.82,5.04,3.1,6.19
14.634705066680908,-1.56,5.94,3.41,7.02
14.726136207580566,-1.6,6.03,2.93,6.89
14.726397037506104,-1.61,5.62,1.41,6.01
14.726624011993408,-1.26,5.02,-0.59,5.2
14.726855039596558,-0.71,4.49,-2.35,5.11
14.727078914642334,-0.46,4.38,-2.93,5.28
14.727298259735107,-0.2,4.25,-2.13,4.75
14.727517127990723,-0.46,3.79,-0.59,3.86
14.727735042572021,-0.74,3.81,0.71,3.94
14.728662014007568,-0.67,3.75,0.87,3.9
14.734570980072021,-0.41,3.63,0.01,3.65
14.826570987701416,-0.14,3.12,-1.16,3.33
14.826826095581055,0.26,2.31,-1.88,2.98
14.827064037322998,0.86,1.45,-1.92,2.55
14.827290058135986,1.49,0.71,-1.37,2.14
14.827515125274658,2.06,0.5,-0.78,2.25
14.827737092971802,2.34,0.7,-0.71,2.54
14.827960014343262,2.32,0.66,-1.13,2.66
14.82817792892456,2.11,0.45,-1.7,2.74
14.829122066497803,1.89,0.06,-2.07,2.8
14.834404945373535,1.69,-0.41,-2.09,2.71
14.926833152770996,1.25,-0.79,-1.93,2.43
14.927083969116211,0.68,-1.06,-1.72,2.13
14.927317142486572,0.21,-1.36,-1.43,1.98
14.927540063858032,-0.12,-1.67,-1.08,1.99
14.92776107788086,-0.33,-1.98,-0.79,2.15
14.927979946136475,-0.47,-2.39,-0.48,2.48
14.928203105926514,-0.61,-2.85,-0.22,2.92
14.928421974182129,-0.72,-3.24,-0.14,3.32
14.929341077804565,-0.79,-3.74,-0.17,3.82
14.93431305885315,-0.93,-4.18,-0.29,4.29
15.027960062026978,-1.1,-4.48,-0.5,4.64
15.028217077255249,-1.25,-4.75,-0.79,4.97
15.02845311164856,-1.43,-4.92,-1.15,5.25
15.028680086135864,-1.7,-5.06,-1.44,5.52
15.028907060623169,-1.93,-5.07,-1.58,5.65
15.029128074645996,-2.26,-4.97,-1.57,5.68
15.029346942901611,-2.72,-4.87,-1.36,5.74
15.029569149017334,-3.25,-4.53,-0.96,5.65
15.030519008636475,-3.5,-3.95,-0.46,5.29
15.03416919708252,-3.18,-3.01,0.21,4.38
15.127807140350342,-2.36,-1.64,1.12,3.08
15.128053188323975,-1.03,-0.11,2.28,2.5
15.128286123275757,0.99,1.76,4.06,4.53
15.128507137298584,3.35,4.18,6.23,8.21
15.128729104995728,6.04,6.34,7.7,11.66
15.128947257995605,8.55,7.92,7.3,13.75
15.12916612625122,10.08,8.47,5.24,14.17
15.129383087158203,9.89,7.83,2.32,12.82
15.130299091339111,6.78,5.58,-0.13,8.78
15.13415813446045,3.06,3.04,-1.48,4.56
15.2292160987854,0.87,1.77,-1.75,2.63
15.229478120803833,-0.66,1.53,-1.49,2.23
15.229706048965454,-1.48,1.85,-1.34,2.72
15.229936122894287,-1.53,2.1,-1.49,2.99
15.230160236358643,-1.88,1.82,-1.84,3.19
15.230381965637207,-2.74,0.97,-2.14,3.6
15.230607032775879,-3.95,-0.17,-2.11,4.48
15.23083209991455,-5.08,-1.25,-1.79,5.52
15.231775045394897,-5.49,-2.22,-1.27,6.05
15.234015941619873,-5.13,-2.46,-0.6,5.72
15.330032110214233,-4.04,-1.62,-0.17,4.35
15.330297946929932,-3.07,-0.88,0.0,3.19
15.330530166625977,-2.64,-0.31,0.16,2.66
15.330753087997437,-1.94,0.27,0.26,1.97
15.33098316192627,-0.95,0.89,0.21,1.31
15.331202983856201,-0.1,1.31,-0.07,1.31
15.331422090530396,0.66,1.58,-0.6,1.81
15.331640243530273,1.32,1.64,-1.23,2.43
15.332547187805176,1.7,1.33,-1.69,2.74
15.333906173706055,1.81,0.76,-1.83,2.68
15.431499004364014,1.77,-0.03,-1.66,2.42
15.43175220489502,1.52,-0.91,-1.23,2.15
15.431971073150635,1.19,-1.63,-0.75,2.15
15.432199954986572,1.05,-2.44,-0.39,2.68
15.432422161102295,1.08,-3.08,-0.13,3.26
15.432642936706543,1.21,-3.64,0.04,3.83
15.432868003845215,1.14,-4.17,0.07,4.32
15.433085918426514,1.08,-4.53,0.02,4.65
15.434062957763672,0.95,-4.89,-0.12,4.98
15.434288024902344,0.7,-5.04,-0.2,5.09
15.53167200088501,0.36,-4.97,-0.21,4.98
15.531940937042236,-0.04,-4.7,-0.11,4.7
15.532173156738281,-0.31,-4.08,0.09,4.09
15.532398223876953,-0.46,-3.11,0.35,3.16
15.53262710571289,-0.66,-1.96,0.59,2.15
15.532852172851562,-1.04,-0.6,0.84,1.46
15.533071994781494,-1.61,0.86,1.17,2.16
15.533324241638184,-1.97,2.31,1.58,3.42
15.534261226654053,-1.81,3.64,2.02,4.53
15.534489154815674,-1.48,4.44,2.37,5.24
15.632861137390137,-1.87,4.72,2.53,5.67
15.633138179779053,-1.91,4.88,2.01,5.61
15.633366107940674,-1.26,4.95,0.68,5.15
15.633588075637817,-0.81,5.05,-0.68,5.15
15.633810043334961,-0.78,5.35,-1.12,5.52
15.634037017822266,-0.59,5.32,-0.57,5.38
15.634263038635254,-0.67,5.19,0.65,5.27
15.634486198425293,-0.93,4.65,1.58,4.99
15.635426044464111,-0.83,4.07,1.38,4.37
15.6356520652771,-0.36,3.89,0.18,3.91
15.73354721069336,0.23,3.51,-1.17,3.7
15.733801126480103,0.78,2.57,-2.16,3.44
15.734035015106201,1.34,1.48,-2.54,3.23
15.734261989593506,1.79,0.52,-2.35,2.99
15.73448896408081,1.97,-0.13,-1.87,2.71
15.734714031219482,1.79,-0.53,-1.56,2.43
15.734941005706787,1.6,-0.85,-1.61,2.42
15.735162258148193,1.35,-1.15,-1.84,2.55
15.736110210418701,1.06,-1.39,-1.92,2.59
15.736338138580322,1.02,-1.54,-1.65,2.47
15.834651947021484,1.35,-1.62,-1.2,2.42
15.834886074066162,1.37,-1.62,-0.7,2.23
15.8351149559021,1.08,-1.63,-0.27,1.97
15.835349082946777,0.96,-1.71,0.07,1.96
15.835571050643921,0.89,-1.85,0.36,2.08
15.835792064666748,0.74,-2.07,0.47,2.24
15.836018085479736,0.5,-2.41,0.43,2.49
15.836238145828247,0.22,-2.75,0.22,2.76
15.837177038192749,-0.08,-3.09,-0.08,3.09
15.837406158447266,-0.43,-3.43,-0.41,3.48
15.934513092041016,-0.81,-3.74,-0.75,3.89
15.934766054153442,-1.17,-4.01,-1.06,4.3
15.935001134872437,-1.4,-4.24,-1.36,4.66
15.93522596359253,-1.65,-4.44,-1.59,4.99
15.935451984405518,-1.89,-4.54,-1.76,5.22
15.935672044754028,-2.19,-4.61,-1.75,5.39
15.935895919799805,-2.56,-4.41,-1.46,5.3
15.936115264892578,-3.04,-3.93,-0.9,5.04
15.93705701828003,-3.54,-3.04,-0.16,4.66
15.937286138534546,-3.41,-1.69,0.75,3.87
16.035991191864014,-2.48,-0.1,1.75,3.03
16.03624200820923,-1.04,1.6,2.73,3.33
16.03647208213806,0.87,3.28,3.61,4.95
16.03669309616089,3.0,4.55,4.38,6.99
16.036919116973877,4.99,5.45,4.57,8.68
16.03713607788086,6.83,5.98,3.93,9.89
16.037357091903687,8.18,6.11,2.47,10.5
16.03757405281067,8.2,5.48,0.58,9.87
16.038514137268066,5.72,3.81,-0.89,6.93
16.03874111175537,2.88,2.07,-1.54,3.86
16.136552095413208,0.96,0.66,-1.24,1.7
16.136837005615234,-0.09,0.15,-0.13,0.21
16.137070178985596,-0.12,0.75,0.8,1.1
16.1372971534729,0.21,1.6,1.37,2.11
16.13752794265747,-0.56,1.89,1.39,2.41
16.137764930725098,-1.54,1.86,0.81,2.54
16.13798999786377,-2.21,1.62,0.04,2.74
16.138206005096436,-3.1,0.83,-0.7,3.28
16.139127254486084,-3.83,-0.23,-1.39,4.08
16.139353036880493,-4.45,-1.19,-1.78,4.93
16.143051147460938,-4.42,-1.28,-1.89,4.97
16.23759913444519,-3.53,-0.42,-1.75,3.96
16.237856149673462,-2.77,0.28,-1.44,3.13
16.23809313774109,-2.32,0.85,-1.17,2.73
16.238318920135498,-1.8,1.53,-0.98,2.55
16.23854398727417,-1.14,1.96,-0.87,2.42
16.238765239715576,-0.37,2.26,-0.95,2.47
16.23898696899414,0.32,2.25,-1.24,2.58
16.239896059036255,0.79,1.72,-1.67,2.52
16.240121126174927,0.99,0.81,-2.11,2.46
16.243035078048706,0.95,-0.12,-2.23,2.42
16.337954998016357,0.81,-1.27,-1.81,2.35
16.338200092315674,0.7,-2.37,-0.99,2.66
16.338425159454346,0.74,-3.22,-0.3,3.31
16.338649034500122,0.85,-3.82,0.13,3.91
16.338871955871582,0.98,-4.31,0.31,4.43
16.339094161987305,1.08,-4.56,0.36,4.69
16.33931303024292,1.13,-4.82,0.22,4.95
16.34021306037903,1.07,-5.12,-0.03,5.23
16.340440034866333,0.89,-5.2,-0.16,5.27
16.342813968658447,0.83,-5.1,-0.16,5.16
16.439229011535645,0.67,-4.83,0.04,4.87
16.439475059509277,0.52,-4.21,0.27,4.25
16.439702033996582,0.39,-3.47,0.56,3.53
16.43993091583252,0.21,-2.41,0.94,2.59
16.440156936645508,-0.23,-1.16,1.41,1.84
16.440378189086914,-0.66,0.28,1.93,2.05
16.44063115119934,-1.0,1.49,2.27,2.89
16.44153904914856,-1.27,2.62,2.36,3.74
16.441766262054443,-1.38,3.52,2.14,4.34
16.44279718399048,-1.45,3.95,1.66,4.52
16.539459228515625,-1.73,4.11,0.77,4.52
16.53970503807068,-2.04,4.0,-0.4,4.5
16.539937019348145,-2.1,3.77,-1.58,4.59
16.540168046951294,-1.85,3.73,-2.53,4.87
16.540390968322754,-1.44,3.9,-2.64,4.92
16.540607929229736,-1.0,4.01,-1.7,4.46
16.540836095809937,-1.01,4.11,-0.02,4.23
16.54173517227173,-0.9,3.95,1.11,4.2
16.5419602394104,-0.52,3.77,1.15,3.97
16.542480945587158,-0.05,3.68,0.13,3.68
16.641228199005127,0.4,3.12,-1.31,3.4
16.641464233398438,0.74,2.31,-2.42,3.42
16.64168906211853,1.16,1.55,-2.87,3.46
16.641916036605835,1.85,1.07,-2.66,3.41
16.642163038253784,2.78,0.81,-2.11,3.58
16.642388105392456,3.29,0.61,-1.7,3.75
16.64260721206665,3.0,0.35,-1.58,3.4
16.64351224899292,2.59,0.0,-1.64,3.06
16.643738269805908,2.26,-0.32,-1.56,2.76
16.64395809173584,1.92,-0.55,-1.28,2.37
16.74157214164734,1.56,-0.7,-0.82,1.89
16.74184226989746,1.21,-0.89,-0.32,1.53
16.742103099822998,0.88,-1.04,0.13,1.36
16.74233603477478,0.61,-1.17,0.4,1.37
16.742558002471924,0.37,-1.4,0.48,1.52
16.742781162261963,0.16,-1.76,0.38,1.8
16.74300503730774,-0.07,-2.15,0.24,2.16
16.743943214416504,-0.22,-2.54,0.02,2.54
16.744177103042603,-0.32,-2.86,-0.3,2.89
16.74440312385559,-0.47,-3.08,-0.62,3.17
16.842961072921753,-0.68,-3.24,-0.93,3.43
16.843218088150024,-0.83,-3.37,-1.29,3.7
16.843454122543335,-1.0,-3.53,-1.61,4.0
16.84367799758911,-1.3,-3.79,-1.86,4.41
16.843907117843628,-1.57,-3.96,-1.97,4.69
16.844133138656616,-1.78,-4.14,-1.9,4.89
16.844356060028076,-2.15,-4.27,-1.64,5.05
16.944250106811523,-2.72,-4.12,-1.21,5.08
16.94449520111084,-3.18,-3.88,-0.66,5.05
16.944733142852783,-3.11,-3.3,-0.09,4.53
16.945284128189087,-2.24,-2.17,0.45,3.15
16.945516109466553,-0.92,-0.86,1.18,1.72
16.945738077163696,0.47,0.6,2.14,2.27
16.945960998535156,1.87,2.01,3.31,4.3
16.94617795944214,3.56,3.19,4.47,6.54
16.946401119232178,5.22,4.11,5.15,8.4
16.946617126464844,6.53,4.65,4.92,9.4
16.947554111480713,7.11,4.87,3.78,9.41
16.947779178619385,6.31,4.42,2.21,8.01
16.947999954223633,4.32,3.34,0.82,5.52
16.952195167541504,2.48,2.21,-0.18,3.32
17.06091809272766,1.78,1.65,-0.34,2.45
17.061159133911133,1.83,2.01,0.09,2.71
17.061388969421387,1.27,2.75,0.62,3.09
17.061612129211426,0.13,3.14,0.71,3.22
17.06231117248535,-1.0,2.97,0.04,3.13
17.062544107437134,-2.0,2.27,-1.15,3.23
17.063462257385254,-2.78,1.57,-2.29,3.92
17.063690185546875,-3.4,0.47,-2.99,4.55
17.06391716003418,-4.1,-0.76,-3.17,5.23
17.064137935638428,-4.69,-1.58,-2.68,5.62
17.064356088638306,-4.74,-1.84,-1.91,5.43
17.072171211242676,-4.2,-0.89,-1.11,4.43
17.178996086120605,-3.67,0.15,-0.34,3.68
17.179256916046143,-3.19,0.93,0.24,3.33
17.179485082626343,-2.48,1.88,0.52,3.15
17.179713249206543,-1.7,2.68,0.29,3.18
17.180652141571045,-0.7,3.37,-0.38,3.46
17.180881023406982,0.3,3.62,-1.37,3.88
17.181106090545654,1.25,3.11,-2.54,4.2
17.181326150894165,2.13,1.99,-3.58,4.61
17.181573152542114,2.5,0.68,-4.06,4.81
17.181801080703735,2.28,-0.75,-3.55,4.28
17.18202805519104,1.73,-1.99,-2.36,3.53
17.191859245300293,1.11,-2.89,-0.96,3.24
17.295818090438843,0.79,-3.5,0.17,3.59
17.296067237854004,0.95,-4.01,0.86,4.2
17.297027111053467,1.25,-4.26,1.26,4.61
17.297255992889404,1.34,-4.36,1.29,4.74
17.297479152679443,1.26,-4.47,1.05,4.76
17.297698974609375,1.01,-4.56,0.75,4.73
17.297900199890137,0.73,-4.56,0.42,4.63
17.29812002182007,0.39,-4.48,0.06,4.49
17.298343181610107,0.07,-4.28,-0.3,4.29
17.29856300354004,-0.1,-3.96,-0.52,3.99
17.301733016967773,-0.26,-3.42,-0.57,3.47
17.311811923980713,-0.51,-2.59,-0.43,2.67
17.514591217041016,-0.74,-1.57,-0.12,1.73
17.515182971954346,-1.05,-0.37,0.35,1.16
17.515421152114868,-1.47,0.88,1.0,1.98
17.515652179718018,-1.81,2.11,1.69,3.25
17.515878200531006,-1.94,3.18,2.32,4.38
17.51608109474182,-1.94,4.02,2.57,5.15
17.516301155090332,-1.83,4.61,2.07,5.37
17.516524076461792,-1.47,4.85,0.81,5.13
17.516744136810303,-0.87,4.73,-0.77,4.87
17.516966104507446,-0.39,4.51,-2.07,4.97
17.517913103103638,-0.33,4.37,-2.49,5.04
17.518142223358154,-0.23,4.08,-1.91,4.51
17.518362998962402,-0.51,3.75,-0.49,3.81
17.51858615875244,-0.88,3.26,0.78,3.46
17.518805980682373,-0.91,2.81,1.04,3.13
17.51902413368225,-0.56,2.65,0.33,2.72
17.51924204826355,-0.23,2.22,-0.83,2.38
17.51946496963501,0.16,1.48,-1.88,2.39
17.519683122634888,0.74,0.62,-2.36,2.54
17.519901037216187,1.5,-0.06,-2.22,2.67
17.52220392227173,2.22,-0.3,-1.65,2.78
17.63179612159729,2.6,-0.05,-1.01,2.78
17.63207507133484,2.69,0.24,-0.74,2.8
17.63233208656311,2.55,0.31,-0.88,2.71
17.632583141326904,2.33,0.16,-1.25,2.64
17.632827043533325,2.08,-0.1,-1.64,2.65
17.633073091506958,1.93,-0.35,-1.84,2.68
17.63331413269043,1.72,-0.51,-1.78,2.52
17.633553981781006,1.34,-0.55,-1.56,2.12
17.63379716873169,0.9,-0.48,-1.29,1.64
17.634775161743164,0.67,-0.4,-1.0,1.26
17.63502311706543,0.53,-0.41,-0.72,0.98
17.641313076019287,0.37,-0.58,-0.48,0.83
17.74936294555664,0.22,-0.86,-0.31,0.94
17.749608993530273,0.07,-1.17,-0.27,1.2
17.74983501434326,-0.1,-1.46,-0.36,1.5
17.75006413459778,-0.34,-1.68,-0.52,1.79
17.750285148620605,-0.64,-1.85,-0.72,2.08
17.75050926208496,-0.89,-1.93,-0.97,2.33
17.750729084014893,-1.11,-1.95,-1.19,2.53
17.7516770362854,-1.33,-1.98,-1.34,2.73
17.751907110214233,-1.52,-2.04,-1.42,2.91
17.752178192138672,-1.77,-2.1,-1.42,3.09
17.75239896774292,-2.12,-2.13,-1.28,3.26
17.761341094970703,-2.48,-2.09,-1.05,3.4
17.866382122039795,-2.66,-1.95,-0.79,3.39
17.866626262664795,-2.15,-1.49,-0.62,2.68
17.86685609817505,-1.07,-0.76,-0.58,1.43
17.867079257965088,-0.22,-0.22,-0.47,0.56
17.867306232452393,0.37,0.32,-0.26,0.55
17.868207931518555,0.91,0.68,-0.07,1.13
17.868433952331543,1.47,0.96,0.1,1.75
17.86865210533142,2.02,1.21,0.24,2.36
17.86887216567993,2.35,1.34,0.39,2.73
17.86908721923828,2.24,1.28,0.58,2.64
17.871032238006592,1.99,0.99,0.74,2.34
17.98293924331665,1.63,0.61,0.74,1.89
17.983201026916504,1.06,0.16,0.73,1.29
17.98344111442566,0.93,0.02,0.81,1.23
17.98367214202881,1.02,0.57,1.02,1.55
17.984642028808594,0.62,1.57,1.28,2.11
17.984883069992065,-0.05,2.36,1.4,2.74
17.9851131439209,-0.54,2.97,1.27,3.27
17.985347270965576,-0.78,3.34,0.91,3.54
17.985575199127197,-1.08,3.28,0.27,3.46
17.985799074172974,-1.52,2.77,-0.65,3.22
17.98602294921875,-1.79,1.94,-1.68,3.12
17.99092197418213,-1.85,1.02,-2.45,3.23
18.10005521774292,-1.86,0.41,-2.73,3.32
18.10031008720398,-2.13,0.22,-2.48,3.27
18.101235151290894,-2.62,0.41,-1.99,3.31
18.101466178894043,-2.7,0.73,-1.56,3.2
18.10169005393982,-2.41,1.17,-1.25,2.95
18.101916074752808,-1.97,1.58,-0.99,2.71
18.10213613510132,-1.55,1.85,-0.71,2.51
18.1023530960083,-1.19,1.93,-0.55,2.33
18.102570056915283,-0.87,1.61,-0.61,1.92
18.102787017822266,-0.7,0.98,-0.9,1.5
18.10301113128662,-0.48,0.27,-1.27,1.38
18.110811233520508,-0.08,-0.42,-1.61,1.66
18.322452068328857,0.31,-1.01,-1.85,2.13
18.322708129882812,0.61,-1.45,-1.93,2.48
18.32294225692749,0.82,-1.76,-1.86,2.68
18.32317018508911,0.96,-1.98,-1.67,2.76
18.323392152786255,1.03,-2.1,-1.39,2.72
18.323593139648438,1.03,-2.13,-0.97,2.55
18.323816061019897,0.98,-2.16,-0.56,2.43
18.324036121368408,0.89,-2.17,-0.29,2.36
18.324254035949707,0.8,-2.03,-0.19,2.19
18.324471950531006,0.69,-1.84,-0.14,1.97
18.325379133224487,0.54,-1.57,-0.08,1.66
18.325606107711792,0.41,-1.33,-0.04,1.39
18.325830936431885,0.21,-1.08,-0.03,1.1
18.32605004310608,0.05,-0.76,-0.09,0.76
18.32627296447754,0.0,-0.37,-0.19,0.41
18.326491117477417,-0.1,0.02,-0.36,0.37
18.326714038848877,-0.23,0.48,-0.57,0.77
18.326931953430176,-0.42,0.95,-0.83,1.32
18.327150106430054,-0.68,1.31,-1.13,1.85
18.32737398147583,-1.03,1.55,-1.42,2.34
18.32822608947754,-1.5,1.63,-1.67,2.77
18.33063316345215,-1.87,1.51,-1.93,3.08
18.43698811531067,-2.0,1.4,-2.22,3.29
18.43724012374878,-1.92,1.35,-2.46,3.4
18.437448978424072,-1.79,1.41,-2.46,3.35
18.437674045562744,-1.74,1.59,-1.98,3.07
18.437896251678467,-1.75,1.91,-0.92,2.74
18.438115119934082,-1.67,2.4,0.56,2.97
18.438339233398438,-1.35,2.93,1.97,3.77
18.438557147979736,-0.8,3.29,2.63,4.28
18.43947124481201,-0.35,3.25,2.05,3.85
18.439697265625,0.08,2.93,0.55,2.98
18.440519094467163,0.45,2.16,-1.18,2.5
18.55302405357361,0.62,1.22,-2.57,2.91
18.553271055221558,0.74,0.26,-3.54,3.62
18.553504943847656,0.89,-0.56,-4.06,4.19
18.553730010986328,0.92,-1.28,-4.12,4.41
18.553956985473633,0.68,-1.8,-3.78,4.24
18.554177045822144,0.31,-2.01,-3.07,3.68
18.554399967193604,0.05,-2.03,-2.15,2.95
18.55533218383789,0.02,-1.72,-1.19,2.09
18.555559158325195,0.3,-1.15,-0.28,1.22
18.555779933929443,0.5,-0.48,0.61,0.92
18.556003093719482,0.49,0.05,1.35,1.43
18.560335159301758,0.47,0.62,1.76,1.92
18.672712087631226,0.5,1.25,1.84,2.27
18.67297601699829,0.42,1.73,1.66,2.43
18.673230171203613,0.31,2.1,1.17,2.42
18.67347002029419,0.32,2.22,0.4,2.27
18.673716068267822,0.37,1.99,-0.54,2.09
18.674735069274902,0.21,1.54,-1.51,2.16
18.6749849319458,-0.18,0.85,-2.4,2.55
18.675233125686646,-0.62,0.19,-3.08,3.14
18.6754732131958,-1.06,-0.31,-3.51,3.67
18.675713062286377,-1.36,-0.71,-3.73,4.03
18.675951957702637,-1.69,-0.96,-3.63,4.11
18.680163145065308,-2.06,-1.04,-3.29,4.01
18.788527011871338,-2.35,-1.03,-2.84,3.82
18.788774013519287,-2.43,-0.93,-2.31,3.47
18.789001941680908,-1.97,-0.62,-1.72,2.68
18.789907932281494,-1.04,-0.16,-1.07,1.5
18.790138244628906,-0.32,0.31,-0.34,0.56
18.790359020233154,0.22,0.61,0.34,0.73
18.79058003425598,0.8,0.67,0.78,1.3
18.79079508781433,1.31,0.56,0.83,1.64
18.79101324081421,1.43,0.22,0.56,1.55
18.791234970092773,0.94,-0.34,0.18,1.01
18.79145312309265,0.51,-0.76,-0.17,0.93
18.90712809562683,0.39,-0.91,-0.46,1.09
18.907392978668213,0.38,-0.81,-0.77,1.18
18.908348083496094,0.38,-0.63,-1.04,1.27
18.908596992492676,0.4,-0.39,-1.2,1.32
18.908803939819336,0.42,-0.1,-1.2,1.27
18.909027099609375,0.41,0.12,-1.12,1.19
18.909246921539307,0.35,0.22,-0.96,1.04
18.909468173980713,0.39,0.25,-0.78,0.9
18.909685134887695,0.45,0.22,-0.59,0.77
18.909903049468994,0.38,0.18,-0.38,0.56
18.910117149353027,0.31,0.19,-0.18,0.4
18.910332202911377,0.29,0.24,-0.05,0.37
19.027005195617676,0.26,0.31,0.0,0.4
19.02725911140442,0.21,0.24,-0.04,0.32
19.027498245239258,0.14,0.18,-0.18,0.29
19.027729988098145,-0.01,0.13,-0.33,0.35
19.02796220779419,-0.16,0.1,-0.51,0.54
19.02819299697876,-0.28,0.08,-0.75,0.8
19.028419017791748,-0.43,0.04,-0.93,1.02
19.028624057769775,-0.56,0.04,-1.04,1.18
19.028851985931396,-0.63,0.03,-1.14,1.3
19.029078006744385,-0.64,-0.01,-1.19,1.35
19.029949188232422,-0.63,0.01,-1.15,1.31
19.03015899658203,-0.63,0.03,-1.01,1.19
19.14441704750061,-0.64,0.11,-0.77,1.0
19.144695043563843,-0.58,0.28,-0.57,0.86
19.144943237304688,-0.45,0.4,-0.46,0.75
19.145191192626953,-0.37,0.44,-0.39,0.69
19.145434141159058,-0.36,0.45,-0.28,0.64
19.145650148391724,-0.37,0.45,-0.18,0.6
19.145888090133667,-0.36,0.5,-0.1,0.62
19.146100997924805,-0.36,0.51,-0.07,0.62
19.14713191986084,-0.31,0.5,-0.12,0.6
19.147381067276,-0.27,0.44,-0.21,0.55
19.14762306213379,-0.18,0.32,-0.33,0.49
19.257821083068848,-0.14,0.22,-0.44,0.51
19.258069038391113,-0.12,0.13,-0.55,0.57
19.258296966552734,-0.09,-0.01,-0.66,0.66
19.258527040481567,-0.1,-0.11,-0.7,0.71
19.25874900817871,-0.08,-0.16,-0.67,0.69
19.258952140808105,-0.03,-0.16,-0.61,0.63
19.25917100906372,-0.02,-0.15,-0.49,0.51
19.26008701324463,-0.01,-0.09,-0.33,0.34
19.26031494140625,0.02,-0.03,-0.12,0.12
19.260534048080444,0.04,0.08,0.04,0.09
19.260756015777588,0.05,0.17,0.13,0.21
19.2609760761261,0.07,0.24,0.2,0.32
19.378153085708618,0.11,0.29,0.2,0.36
19.378427028656006,0.1,0.31,0.13,0.35
19.378653049468994,0.1,0.29,0.01,0.3
19.37890100479126,0.08,0.25,-0.14,0.29
19.37917423248291,0.05,0.2,-0.28,0.34
19.38014006614685,0.01,0.13,-0.35,0.37
19.38036608695984,0.03,0.04,-0.38,0.38
19.380587100982666,0.09,0.02,-0.35,0.36
19.380810260772705,0.16,-0.01,-0.29,0.33
19.38102912902832,0.2,-0.08,-0.2,0.29
19.38124418258667,0.19,-0.13,-0.1,0.25
19.381460189819336,0.18,-0.15,0.03,0.23
19.495681047439575,0.14,-0.14,0.18,0.26
19.49595308303833,0.12,-0.11,0.29,0.33
19.496209144592285,0.14,-0.1,0.32,0.36
19.49717903137207,0.17,-0.12,0.33,0.39
19.49740505218506,0.13,-0.11,0.32,0.36
19.49762511253357,0.05,-0.04,0.29,0.29
19.497846126556396,0.03,0.0,0.16,0.16
19.49806499481201,-0.01,-0.01,-0.01,0.01
19.498289108276367,-0.05,-0.03,-0.12,0.13
19.49850606918335,-0.1,0.01,-0.17,0.19
19.498707056045532,-0.07,0.01,-0.22,0.23
19.49944305419922,-0.06,0.0,-0.23,0.23
19.608986139297485,-0.05,-0.01,-0.19,0.19
19.60993504524231,-0.05,-0.02,-0.12,0.13
19.610167980194092,-0.07,-0.05,-0.04,0.09
19.610400199890137,-0.09,-0.06,0.07,0.12
19.6106219291687,-0.08,-0.1,0.15,0.19
19.610846042633057,-0.07,-0.14,0.19,0.24
19.611066102981567,-0.08,-0.15,0.22,0.27
19.611282110214233,-0.1,-0.11,0.23,0.27
19.611499071121216,-0.09,-0.06,0.13,0.16
19.61172103881836,-0.11,0.04,0.06,0.13
19.611937999725342,-0.14,0.1,-0.03,0.17
19.834583044052124,-0.12,0.08,-0.14,0.2
19.834834098815918,-0.09,0.04,-0.16,0.18
19.83507013320923,-0.1,-0.02,-0.14,0.17
19.835294246673584,-0.14,-0.06,-0.1,0.18
19.835499048233032,-0.14,-0.07,-0.05,0.16
19.83572006225586,-0.15,-0.11,-0.01,0.18
19.83594012260437,-0.12,-0.1,0.02,0.15
19.836162090301514,-0.06,-0.04,0.08,0.1
19.836380004882812,0.03,0.01,0.06,0.06
19.836600065231323,0.06,0.04,0.04,0.08
19.837529182434082,0.06,0.11,0.01,0.12
19.837754249572754,0.03,0.13,-0.07,0.15
19.837976932525635,0.05,0.08,-0.14,0.16
19.838176250457764,0.07,0.07,-0.14,0.17
19.838396072387695,0.05,0.04,-0.09,0.11
19.838617086410522,0.05,0.0,-0.01,0.05
19.838792085647583,0.05,0.0,0.07,0.08
19.83899211883545,0.05,-0.09,0.09,0.13
19.83921504020691,0.06,-0.08,0.15,0.18
19.83941125869751,0.04,-0.06,0.15,0.16
19.840256214141846,0.05,-0.04,0.07,0.09
19.840473175048828,0.06,-0.04,-0.01,0.07
19.840692043304443,0.07,-0.06,-0.06,0.11
19.849088191986084,0.07,-0.02,-0.07,0.1
19.961979150772095,0.08,0.02,-0.08,0.11
19.96221399307251,0.07,0.05,-0.08,0.11
19.9624662399292,0.06,0.06,-0.05,0.09
19.962700128555298,0.07,0.09,0.0,0.11
19.962910175323486,0.07,0.09,0.04,0.12
19.9631290435791,0.05,0.04,0.05,0.08
19.964028120040894,0.02,0.02,0.02,0.03
19.964230060577393,0.02,0.0,0.01,0.02
19.964450120925903,0.04,-0.03,-0.03,0.05
19.964669227600098,0.07,-0.04,-0.04,0.09
19.964893102645874,0.11,-0.03,-0.05,0.12
20.080137252807617,0.15,0.01,-0.04,0.15
20.080384254455566,0.16,0.05,-0.03,0.17
20.080615997314453,0.14,0.09,-0.02,0.16
20.080831050872803,0.13,0.1,0.04,0.16
20.081034183502197,0.13,0.09,0.14,0.21
20.08193612098694,0.2,0.06,0.15,0.25
20.08216905593872,-0.19,0.36,-0.51,0.65
20.082393169403076,0.18,-0.29,-0.11,0.35
20.082611083984375,-0.03,0.07,0.18,0.19
20.08283305168152,0.05,0.15,0.31,0.34
20.08304715156555,0.08,0.18,0.21,0.28
20.08326816558838,-0.12,0.24,-0.01,0.26
