time,ax,ay,az,atotal
0.013160943984985352,-0.35,-0.15,0.26,0.46
0.0189058780670166,-0.23,-0.08,0.2,0.31
0.02669215202331543,-0.23,-0.04,-0.01,0.23
0.03774619102478027,-0.19,-0.15,-0.33,0.4
0.04640793800354004,-0.21,-0.32,-0.59,0.7
0.057070016860961914,-0.24,-0.46,-0.66,0.83
0.06676602363586426,-0.23,-0.57,-0.6,0.85
0.0767509937286377,-0.2,-0.64,-0.53,0.85
0.0875709056854248,-0.11,-0.68,-0.44,0.81
0.09734606742858887,0.02,-0.74,-0.23,0.77
0.10823893547058105,0.13,-0.72,0.0,0.73
0.12484192848205566,0.23,-0.63,0.14,0.68
0.12697386741638184,0.34,-0.46,0.19,0.6
0.14121794700622559,0.41,-0.25,0.18,0.51
0.14653515815734863,0.47,-0.02,0.15,0.49
0.15716004371643066,0.48,0.13,0.11,0.5
0.16688895225524902,0.47,0.26,0.06,0.54
0.17722201347351074,0.41,0.38,0.02,0.55
0.18752408027648926,0.34,0.43,-0.03,0.54
0.19697785377502441,0.25,0.44,-0.09,0.51
0.20762896537780762,0.14,0.45,-0.14,0.49
0.22345805168151855,0.02,0.44,-0.2,0.48
0.22641897201538086,-0.09,0.44,-0.22,0.5
0.24141502380371094,-0.2,0.41,-0.25,0.52
0.2462151050567627,-0.26,0.34,-0.25,0.49
0.2574179172515869,-0.31,0.29,-0.23,0.48
0.2665441036224365,-0.37,0.23,-0.23,0.49
0.27727603912353516,-0.38,0.14,-0.24,0.47
0.2872340679168701,-0.37,0.01,-0.23,0.43
0.29807114601135254,-0.32,-0.12,-0.19,0.39
0.307981014251709,-0.3,-0.22,-0.14,0.39
0.32254719734191895,-0.28,-0.27,-0.07,0.39
0.3270070552825928,-0.23,-0.3,-0.01,0.37
0.3415849208831787,-0.2,-0.29,0.06,0.35
0.3460981845855713,-0.17,-0.29,0.12,0.35
0.3568909168243408,-0.16,-0.29,0.18,0.37
0.366657018661499,-0.16,-0.26,0.24,0.38
0.3767850399017334,-0.16,-0.2,0.34,0.42
0.38706302642822266,-0.18,-0.13,0.43,0.48
0.39764404296875,-0.17,-0.02,0.5,0.52
0.40774106979370117,-0.14,0.11,0.52,0.54
0.4235241413116455,-0.13,0.22,0.53,0.58
0.4263160228729248,-0.15,0.3,0.5,0.6
0.43999218940734863,-0.15,0.33,0.46,0.58
0.4461839199066162,-0.19,0.28,0.41,0.53
0.4570310115814209,-0.2,0.19,0.34,0.43
0.4665639400482178,-0.22,0.1,0.25,0.34
0.47669196128845215,-0.25,-0.06,0.14,0.29
0.4865291118621826,-0.32,-0.27,0.08,0.42
0.49693894386291504,-0.35,-0.45,0.06,0.57
0.5076470375061035,-0.38,-0.6,0.1,0.71
0.524940013885498,-0.41,-0.75,0.15,0.86
0.5265171527862549,-0.41,-0.85,0.21,0.96
0.542456865310669,-0.42,-0.93,0.32,1.06
0.5462391376495361,-0.38,-0.97,0.43,1.12
0.556704044342041,-0.32,-0.98,0.55,1.16
0.5671100616455078,-0.27,-0.9,0.71,1.17
0.5769898891448975,-0.23,-0.76,0.84,1.15
0.5867888927459717,-0.17,-0.63,0.85,1.07
0.5966780185699463,-0.12,-0.52,0.82,0.97
0.6073658466339111,-0.1,-0.4,0.78,0.88
0.6228320598602295,-0.11,-0.3,0.78,0.84
0.6260690689086914,-0.14,-0.21,0.79,0.82
0.6422631740570068,-0.13,-0.16,0.75,0.77
0.6458339691162109,-0.09,-0.21,0.72,0.75
0.656702995300293,-0.06,-0.26,0.76,0.8
0.6672818660736084,-0.07,-0.3,0.71,0.77
0.6767950057983398,-0.11,-0.34,0.6,0.69
0.6866471767425537,-0.14,-0.41,0.43,0.61
0.6964380741119385,-0.15,-0.55,0.2,0.6
0.7067470550537109,-0.16,-0.74,0.0,0.75
0.724168062210083,-0.15,-0.93,-0.16,0.95
0.7263460159301758,-0.11,-1.14,-0.23,1.16
0.7429900169372559,-0.1,-1.31,-0.2,1.32
0.745872974395752,-0.05,-1.44,-0.07,1.44
0.7567551136016846,0.04,-1.56,0.21,1.57
0.7676680088043213,0.19,-1.58,0.61,1.7
0.7765140533447266,0.4,-1.43,1.0,1.79
0.7867510318756104,0.6,-1.14,1.3,1.83
0.7975108623504639,0.77,-0.8,1.5,1.86
0.8065710067749023,0.93,-0.43,1.58,1.88
0.8248598575592041,1.05,-0.14,1.54,1.86
0.8260750770568848,1.13,0.07,1.44,1.83
0.8424170017242432,1.22,0.16,1.23,1.73
0.8456809520721436,1.24,0.04,0.96,1.56
0.8568019866943359,1.25,-0.23,0.78,1.49
0.8677780628204346,1.19,-0.54,0.73,1.49
0.8766100406646729,1.07,-0.71,0.83,1.52
0.8861839771270752,1.0,-0.75,1.13,1.68
0.896557092666626,0.93,-0.68,1.6,1.97
0.9065060615539551,0.88,-0.55,2.04,2.28
0.9345180988311768,0.84,-0.33,2.35,2.51
0.9354660511016846,0.78,-0.05,2.52,2.63
0.9363470077514648,0.65,0.14,2.54,2.62
0.9455521106719971,0.51,0.25,2.32,2.38
0.9562509059906006,0.31,0.25,1.94,1.98
0.9662320613861084,0.11,0.11,1.48,1.48
0.9765498638153076,-0.05,-0.19,1.04,1.05
0.9867739677429199,-0.19,-0.54,0.73,0.92
0.9970190525054932,-0.3,-0.92,0.61,1.14
1.007066011428833,-0.35,-1.29,0.67,1.49
1.0345990657806396,-0.34,-1.64,0.93,1.91
1.0355288982391357,-0.26,-1.9,1.18,2.25
1.0363919734954834,-0.14,-2.05,1.44,2.5
1.0457990169525146,0.01,-2.15,1.64,2.7
1.0562160015106201,0.16,-2.23,1.81,2.87
1.0662291049957275,0.27,-2.24,1.95,2.98
1.0771310329437256,0.35,-2.19,2.02,2.99
1.0863840579986572,0.43,-2.07,2.09,2.97
1.0970730781555176,0.49,-1.82,2.15,2.85
1.1071569919586182,0.57,-1.55,2.24,2.78
1.134361982345581,0.72,-1.22,2.34,2.73
1.1352829933166504,0.85,-0.86,2.41,2.69
1.1361579895019531,0.97,-0.49,2.42,2.65
1.1457090377807617,1.08,-0.13,2.25,2.49
1.1561000347137451,1.14,0.19,1.97,2.28
1.166118860244751,1.16,0.48,1.64,2.06
1.1766159534454346,1.17,0.66,1.42,1.95
1.1873080730438232,1.11,0.73,1.35,1.89
1.1969149112701416,1.12,0.65,1.32,1.84
1.2069649696350098,1.06,0.54,1.38,1.82
1.2349112033843994,1.04,0.45,1.51,1.88
1.235849142074585,0.99,0.44,1.72,2.03
1.2366950511932373,1.03,0.5,1.9,2.21
1.2456510066986084,1.08,0.73,2.03,2.41
1.2565219402313232,1.14,1.14,2.16,2.69
1.2660448551177979,1.17,1.42,2.29,2.93
1.2764310836791992,1.16,1.78,2.37,3.18
1.2867648601531982,0.97,2.2,2.36,3.36
1.2968661785125732,0.81,2.5,2.24,3.45
1.3069450855255127,0.66,2.74,2.06,3.49
1.3325550556182861,0.65,2.9,1.81,3.47
1.3350398540496826,0.5,2.99,1.48,3.37
1.3358850479125977,0.43,3.01,1.08,3.22
1.3450160026550293,0.39,2.99,0.73,3.1
1.3557441234588623,0.31,2.85,0.33,2.88
1.3654990196228027,0.23,2.62,-0.07,2.63
1.3761570453643799,0.14,2.22,-0.42,2.26
1.3859899044036865,0.07,1.71,-0.67,1.83
1.3967030048370361,-0.05,1.13,-0.95,1.47
1.4068849086761475,-0.24,0.41,-1.28,1.36
1.4328529834747314,-0.48,-0.35,-1.55,1.65
1.4354050159454346,-0.76,-1.11,-1.61,2.09
1.4363110065460205,-1.03,-1.77,-1.45,2.5
1.4454519748687744,-1.18,-2.3,-1.19,2.84
1.4557850360870361,-1.27,-2.61,-0.98,3.06
1.465313196182251,-1.34,-2.74,-0.9,3.18
1.4760029315948486,-1.38,-2.76,-0.87,3.2
1.4864330291748047,-1.44,-2.72,-0.78,3.17
1.495910882949829,-1.47,-2.55,-0.63,3.01
1.5058250427246094,-1.46,-2.25,-0.42,2.71
1.5307261943817139,-1.38,-1.74,-0.05,2.22
1.5316569805145264,-1.13,-1.14,0.31,1.63
1.534919023513794,-0.8,-0.48,0.54,1.07
1.5453660488128662,-0.3,0.17,0.65,0.73
1.555739164352417,0.1,0.73,0.62,0.96
1.565251111984253,0.37,1.12,0.49,1.27
1.575774908065796,0.48,1.26,0.33,1.38
1.5864319801330566,0.49,1.11,0.16,1.22
1.5965311527252197,0.46,0.68,0.01,0.82
1.606492042541504,0.4,0.06,0.0,0.4
1.6331520080566406,0.32,-0.52,0.12,0.62
1.6356770992279053,0.25,-1.03,0.32,1.1
1.636693000793457,0.19,-1.48,0.53,1.58
1.6448991298675537,0.1,-1.82,0.6,1.91
1.6555769443511963,0.03,-2.11,0.57,2.18
1.6654798984527588,-0.03,-2.3,0.43,2.34
1.6756410598754883,-0.13,-2.41,0.24,2.42
1.686812162399292,-0.22,-2.46,0.07,2.47
1.69563889503479,-0.33,-2.4,-0.03,2.42
1.706423044204712,-0.44,-2.3,-0.14,2.34
1.733273983001709,-0.52,-2.22,-0.11,2.28
1.7358481884002686,-0.61,-2.05,0.14,2.14
1.736840009689331,-0.74,-1.75,0.52,1.96
1.744852066040039,-0.91,-1.26,0.9,1.79
1.7554008960723877,-0.99,-0.59,1.24,1.69
1.7650799751281738,-1.04,0.23,1.61,1.93
1.7755191326141357,-0.94,1.18,1.98,2.48
1.7880489826202393,-0.7,2.19,2.22,3.19
1.7963531017303467,-0.51,3.1,2.36,3.92
1.8063900470733643,-0.41,3.79,2.33,4.46
1.834563970565796,-0.42,4.19,2.4,4.84
1.8354849815368652,-0.55,4.29,2.34,4.91
1.8363549709320068,-0.63,4.03,2.05,4.56
1.8447580337524414,-0.72,3.54,1.65,3.97
1.855215072631836,-0.71,2.92,1.36,3.29
1.865326166152954,-0.7,2.41,1.29,2.82
1.8756320476531982,-0.68,1.95,1.29,2.43
1.8881471157073975,-0.61,1.64,1.34,2.2
1.8962719440460205,-0.33,1.53,1.36,2.07
1.9063551425933838,0.14,1.34,0.98,1.66
1.9333460330963135,0.58,1.22,0.08,1.35
1.9343080520629883,0.83,0.67,-1.14,1.56
1.9367620944976807,1.01,0.15,-2.11,2.34
1.9448301792144775,1.12,-0.42,-2.72,2.97
1.9549891948699951,1.23,-1.16,-2.84,3.3
1.9650590419769287,1.27,-1.83,-2.28,3.18
1.9753429889678955,1.46,-2.4,-1.29,3.09
1.985266923904419,1.68,-2.61,-0.3,3.11
1.9952199459075928,1.9,-2.54,0.24,3.18
2.0059878826141357,1.81,-2.02,0.12,2.71
2.0307869911193848,1.77,-1.63,-0.13,2.4
2.031708002090454,1.78,-1.28,-0.19,2.2
2.0344560146331787,1.78,-0.78,0.02,1.94
2.0451300144195557,1.69,-0.29,0.4,1.76
2.05491304397583,1.5,0.15,0.68,1.65
2.0650830268859863,1.24,0.47,0.79,1.54
2.075208902359009,0.98,0.51,0.69,1.3
2.084942102432251,0.65,0.21,0.36,0.77
2.0950582027435303,0.35,-0.37,-0.11,0.52
2.1053569316864014,0.01,-1.06,-0.46,1.15
2.131002187728882,-0.28,-1.81,-0.68,1.95
2.1319401264190674,-0.52,-2.44,-0.7,2.59
2.1344611644744873,-0.74,-2.86,-0.55,3.0
2.1447489261627197,-0.85,-3.14,-0.36,3.27
2.154719114303589,-0.88,-3.32,-0.21,3.44
2.164715051651001,-0.87,-3.43,-0.1,3.54
2.1749460697174072,-0.85,-3.47,-0.11,3.57
2.1855640411376953,-0.81,-3.38,-0.24,3.48
2.1950719356536865,-0.79,-3.2,-0.36,3.31
2.205265998840332,-0.73,-2.99,-0.39,3.1
2.230041027069092,-0.59,-2.66,-0.31,2.74
2.2309579849243164,-0.39,-2.21,-0.15,2.24
2.234144926071167,-0.12,-1.68,0.06,1.68
2.2445051670074463,0.17,-1.03,0.31,1.08
2.2545878887176514,0.45,-0.22,0.47,0.68
2.264907121658325,0.8,0.68,0.57,1.19
2.2748968601226807,1.14,1.6,0.9,2.16
2.2854859828948975,1.34,2.43,1.48,3.14
2.295780897140503,1.48,3.07,2.2,4.05
2.306251049041748,1.52,3.59,2.65,4.71
2.3316590785980225,1.54,3.96,2.65,5.0
2.3325531482696533,1.47,4.18,2.34,5.01
2.334043025970459,1.29,4.15,1.94,4.75
2.3446319103240967,1.03,3.88,1.63,4.33
2.354433059692383,0.63,3.46,1.55,3.84
2.364870071411133,0.13,2.99,1.61,3.39
2.3746988773345947,-0.29,2.54,1.61,3.02
2.385591983795166,-0.64,2.18,1.49,2.71
2.3957321643829346,-0.97,1.94,1.22,2.48
2.4065210819244385,-1.27,1.79,0.65,2.28
2.432555913925171,-1.46,1.72,0.11,2.25
2.433522939682007,-1.45,1.69,-0.32,2.24
2.4344329833984375,-1.17,1.62,-0.79,2.14
2.444550037384033,-0.96,1.34,-1.31,2.1
2.4544198513031006,-0.95,0.84,-1.65,2.08
2.464421033859253,-1.02,0.23,-1.79,2.07
2.4747369289398193,-1.1,-0.41,-1.68,2.04
2.4845621585845947,-1.37,-0.93,-1.43,2.18
2.4947640895843506,-1.7,-1.26,-1.13,2.39
2.5066490173339844,-1.9,-1.4,-0.93,2.53
2.5324299335479736,-1.96,-1.36,-0.81,2.51
2.53341007232666,-1.95,-1.24,-0.82,2.45
2.5343101024627686,-1.86,-1.13,-0.88,2.34
2.5445621013641357,-1.66,-1.08,-0.85,2.15
2.5546281337738037,-1.36,-1.05,-0.81,1.89
2.5642640590667725,-0.95,-0.98,-0.75,1.55
2.574631929397583,-0.5,-0.93,-0.71,1.27
2.5844991207122803,-0.07,-0.86,-0.69,1.1
2.59529709815979,0.3,-0.85,-0.55,1.05
2.606766939163208,0.52,-0.93,-0.25,1.09
2.6313488483428955,0.59,-1.17,0.15,1.31
2.632268190383911,0.58,-1.53,0.44,1.69
2.633759021759033,0.54,-1.9,0.53,2.04
2.6441919803619385,0.46,-2.25,0.41,2.33
2.6549980640411377,0.29,-2.64,0.19,2.66
2.6642282009124756,0.09,-2.95,-0.09,2.95
2.6744868755340576,-0.1,-3.1,-0.39,3.12
2.6851279735565186,-0.25,-3.11,-0.74,3.2
2.6951658725738525,-0.38,-2.96,-1.05,3.16
2.7071359157562256,-0.47,-2.77,-1.09,3.01
2.7296040058135986,-0.54,-2.46,-0.84,2.65
2.7305381298065186,-0.52,-1.95,-0.33,2.04
2.733743906021118,-0.5,-1.38,0.21,1.48
2.744227170944214,-0.51,-0.7,0.73,1.13
2.7551229000091553,-0.49,0.14,1.17,1.27
2.7639970779418945,-0.37,1.07,1.42,1.81
2.7740061283111572,-0.25,1.99,1.55,2.53
2.784156084060669,-0.13,2.67,1.69,3.16
2.7942800521850586,-0.06,3.14,1.92,3.68
2.8075289726257324,-0.1,3.43,2.11,4.02
2.8193981647491455,-0.21,3.61,2.11,4.18
2.830144166946411,-0.3,3.58,1.95,4.08
2.8335421085357666,-0.32,3.24,1.76,3.7
2.8441030979156494,-0.36,2.73,1.57,3.16
2.8553860187530518,-0.43,2.09,1.4,2.55
2.864496946334839,-0.51,1.34,1.28,1.92
2.8744189739227295,-0.59,0.69,1.26,1.55
2.884150981903076,-0.52,0.43,1.34,1.5
2.895045042037964,-0.12,0.62,1.35,1.49
2.9075520038604736,0.38,1.15,0.93,1.52
2.930804967880249,0.74,1.72,0.04,1.87
2.9317219257354736,0.87,1.96,-1.13,2.42
2.9333620071411133,0.89,1.85,-2.09,2.92
2.9441239833831787,1.01,1.61,-2.57,3.19
2.955605983734131,1.34,1.37,-2.48,3.13
2.964207887649536,1.77,0.94,-2.0,2.83
2.974215030670166,1.97,0.32,-1.56,2.53
2.983882188796997,2.11,-0.24,-1.55,2.62
2.9940998554229736,2.07,-0.48,-1.79,2.77
3.0048868656158447,1.86,-0.31,-2.01,2.75
3.0325310230255127,1.8,-0.12,-1.53,2.36
3.0336849689483643,1.73,-0.02,-0.54,1.81
3.0347650051116943,1.59,0.01,0.51,1.66
3.043950080871582,1.4,0.03,1.28,1.89
3.0538899898529053,1.07,-0.05,1.47,1.81
3.0641891956329346,0.62,-0.25,1.15,1.33
3.074207067489624,0.12,-0.56,0.61,0.83
3.084961175918579,-0.33,-0.95,0.07,1.0
3.09505295753479,-0.65,-1.5,-0.46,1.69
3.104685068130493,-0.79,-2.1,-0.87,2.4
3.121779203414917,-0.94,-2.67,-1.09,3.03
3.133876085281372,-1.09,-3.15,-1.15,3.52
3.134793996810913,-1.07,-3.6,-1.13,3.92
3.1438181400299072,-0.94,-3.92,-0.9,4.13
3.1534740924835205,-0.77,-4.1,-0.54,4.2
3.164095163345337,-0.63,-4.19,-0.16,4.24
3.173927068710327,-0.49,-4.21,0.1,4.23
3.1845109462738037,-0.37,-4.17,0.18,4.19
3.1946141719818115,-0.35,-4.04,0.11,4.05
3.2045371532440186,-0.37,-3.69,0.07,3.7
3.2214560508728027,-0.35,-3.19,0.12,3.21
3.2375738620758057,-0.27,-2.64,0.26,2.66
3.23995304107666,-0.05,-1.96,0.3,1.98
3.2431771755218506,0.16,-1.16,0.25,1.19
3.2532899379730225,0.28,-0.28,0.27,0.47
3.2638041973114014,0.44,0.65,0.47,0.91
3.273428201675415,0.67,1.6,0.87,1.94
3.283787965774536,0.97,2.53,1.39,3.04
3.294856071472168,1.22,3.35,1.8,3.99
3.3043558597564697,1.46,4.03,1.84,4.66
3.3218071460723877,1.62,4.47,1.69,5.04
3.334249973297119,1.65,4.73,1.61,5.26
3.335131883621216,1.52,4.73,1.71,5.25
3.3435819149017334,1.13,4.34,2.02,4.91
3.3532679080963135,0.37,3.8,2.36,4.48
3.3641178607940674,-0.51,3.26,2.5,4.13
3.3739359378814697,-1.28,2.91,2.32,3.93
3.383430004119873,-1.68,2.84,1.76,3.73
3.393873929977417,-1.76,2.87,1.01,3.51
3.4043240547180176,-1.74,2.77,0.23,3.27
3.41825795173645,-1.7,2.6,-0.87,3.22
3.4317829608917236,-1.57,2.42,-2.08,3.55
3.4329559803009033,-1.39,2.01,-2.98,3.85
3.443248987197876,-1.33,1.19,-3.26,3.71
3.453015089035034,-1.32,0.21,-2.89,3.18
3.4639320373535156,-1.35,-0.6,-2.1,2.56
3.474174976348877,-1.47,-1.08,-1.29,2.23
3.4834420680999756,-1.67,-1.12,-0.69,2.12
3.4938390254974365,-1.81,-1.1,-0.29,2.13
3.5033750534057617,-1.8,-1.04,-0.06,2.07
3.5208940505981445,-1.73,-1.03,-0.09,2.01
3.5315940380096436,-1.6,-1.0,-0.35,1.91
3.532715082168579,-1.34,-1.07,-0.63,1.82
3.543142080307007,-1.03,-1.15,-0.74,1.71
3.553065061569214,-0.67,-1.25,-0.76,1.6
3.56347918510437,-0.38,-1.42,-0.75,1.65
3.5743770599365234,-0.23,-1.54,-0.59,1.66
3.583422899246216,-0.17,-1.72,-0.3,1.75
3.593454122543335,-0.1,-2.03,0.02,2.03
3.604201078414917,-0.07,-2.42,0.2,2.42
3.6194350719451904,-0.11,-2.78,0.2,2.78
3.632176160812378,-0.19,-3.09,0.03,3.09
3.6331160068511963,-0.26,-3.37,-0.25,3.38
3.642979860305786,-0.31,-3.56,-0.61,3.62
3.652971029281616,-0.34,-3.6,-0.97,3.74
3.663330078125,-0.36,-3.5,-1.25,3.73
3.674783945083618,-0.31,-3.32,-1.37,3.6
3.683245897293091,-0.24,-2.99,-1.32,3.27
3.6933839321136475,-0.13,-2.52,-0.96,2.69
3.70408296585083,-0.03,-1.94,-0.37,1.97
3.7210118770599365,0.17,-1.24,0.21,1.26
3.734706163406372,0.34,-0.32,0.68,0.82
3.7357499599456787,0.45,0.71,1.06,1.35
3.743105173110962,0.5,1.72,1.42,2.28
3.752822160720825,0.39,2.57,1.75,3.13
3.763477087020874,0.23,3.17,1.95,3.72
3.7749269008636475,0.08,3.47,1.96,3.98
3.783208131790161,-0.11,3.57,1.86,4.02
3.7941038608551025,-0.33,3.52,1.8,3.96
3.8037450313568115,-0.52,3.24,1.76,3.72
3.8192570209503174,-0.6,2.8,1.6,3.28
3.833327054977417,-0.63,2.32,1.3,2.73
3.834120988845825,-0.63,1.79,0.87,2.08
3.842689037322998,-0.61,1.19,0.55,1.44
3.8527591228485107,-0.65,0.81,0.46,1.13
3.8629469871520996,-0.55,0.8,0.57,1.12
3.875159978866577,-0.07,1.26,0.55,1.37
3.882956027984619,0.7,1.82,-0.06,1.95
3.8942270278930664,1.08,2.41,-1.13,2.87
3.9037349224090576,1.36,2.57,-2.07,3.56
3.9207351207733154,2.05,2.67,-2.56,4.22
3.937883138656616,2.69,2.94,-2.27,4.58
3.939276933670044,3.03,2.39,-1.47,4.12
3.9424569606781006,3.04,1.46,-1.08,3.54
3.952831983566284,2.87,0.98,-1.61,3.43
3.962817907333374,2.65,0.22,-2.09,3.38
3.972935914993286,2.24,0.35,-2.34,3.25
3.9837539196014404,2.19,0.31,-1.7,2.78
3.9933810234069824,1.84,0.39,-0.53,1.95
4.003274202346802,1.49,0.39,0.37,1.58
4.020576000213623,1.17,0.31,0.66,1.37
4.023774862289429,0.68,0.16,0.42,0.81
4.038922071456909,0.24,-0.15,-0.13,0.31
4.042267084121704,-0.09,-0.57,-0.72,0.92
4.052572011947632,-0.37,-1.18,-1.03,1.6
4.06284499168396,-0.55,-1.85,-1.09,2.21
4.072818040847778,-0.67,-2.5,-1.04,2.78
4.082855939865112,-0.69,-3.06,-1.01,3.29
4.09300684928894,-0.67,-3.54,-0.97,3.73
4.103507995605469,-0.7,-3.97,-0.86,4.12
4.120568037033081,-0.63,-4.26,-0.71,4.36
4.1236488819122314,-0.58,-4.41,-0.51,4.47
4.137550115585327,-0.51,-4.43,-0.33,4.47
4.142492055892944,-0.45,-4.38,-0.23,4.4
4.152531862258911,-0.35,-4.33,-0.3,4.35
4.162649869918823,-0.31,-4.16,-0.44,4.19
4.172814130783081,-0.23,-3.89,-0.48,3.92
4.183804988861084,-0.2,-3.56,-0.33,3.58
4.193774938583374,-0.11,-3.16,-0.1,3.16
4.20345401763916,0.1,-2.57,0.07,2.57
4.220348119735718,0.46,-1.78,0.15,1.84
4.223427057266235,0.88,-0.78,0.29,1.21
4.237600088119507,1.29,0.4,0.6,1.47
4.2419469356536865,1.61,1.74,0.87,2.52
4.25239109992981,1.72,3.09,1.04,3.68
4.262526035308838,1.58,4.05,1.26,4.52
4.2726850509643555,1.37,4.46,1.37,4.86
4.283208131790161,1.21,4.43,1.23,4.75
4.294125080108643,1.1,4.34,1.12,4.61
4.303459882736206,0.93,4.15,1.44,4.49
4.3205201625823975,0.7,3.85,2.15,4.46
4.323166131973267,0.26,3.38,2.88,4.44
4.33567214012146,-0.31,2.85,3.2,4.29
4.34196400642395,-0.76,2.62,2.87,3.95
4.352277040481567,-1.1,2.57,2.22,3.56
4.362755060195923,-1.39,2.57,1.41,3.24
4.372344970703125,-1.49,2.69,0.33,3.09
4.382673978805542,-1.4,2.93,-0.63,3.3
4.394622087478638,-1.06,2.84,-1.42,3.34
4.403538942337036,-0.85,2.54,-1.92,3.29
4.420147180557251,-0.84,2.09,-2.1,3.07
4.422948122024536,-0.83,1.38,-2.13,2.67
4.435406923294067,-0.97,0.63,-1.87,2.19
4.4418840408325195,-1.26,0.13,-1.61,2.04
4.452161073684692,-1.51,-0.15,-1.6,2.2
4.46222186088562,-1.72,-0.37,-1.62,2.39
4.472273111343384,-1.87,-0.49,-1.5,2.44
4.482516050338745,-1.91,-0.65,-1.29,2.39
4.494274854660034,-1.82,-0.8,-1.18,2.31
4.502765893936157,-1.58,-0.87,-1.18,2.15
4.519381046295166,-1.24,-0.97,-1.17,1.96
4.522946119308472,-0.8,-1.08,-1.07,1.71
4.53618597984314,-0.33,-1.17,-1.02,1.58
4.542540073394775,0.1,-1.32,-0.98,1.64
4.5522849559783936,0.47,-1.48,-0.83,1.76
4.5626060962677,0.7,-1.75,-0.59,1.97
4.572080850601196,0.84,-2.09,-0.3,2.27
4.582956075668335,0.92,-2.48,-0.03,2.64
4.594976186752319,0.93,-2.8,0.14,2.95
4.6030261516571045,0.96,-3.02,0.17,3.17
4.618430852890015,0.92,-3.14,-0.01,3.27
4.622014999389648,0.81,-3.18,-0.31,3.29
4.635004997253418,0.69,-3.12,-0.67,3.26
4.642685174942017,0.55,-3.01,-1.13,3.26
4.652169942855835,0.4,-2.85,-1.48,3.23
4.662091970443726,0.24,-2.63,-1.55,3.06
4.67203688621521,0.12,-2.41,-1.36,2.76
4.6822590827941895,0.02,-2.15,-0.96,2.35
4.694759130477905,0.0,-1.73,-0.59,1.82
4.7030699253082275,-0.02,-1.12,-0.32,1.16
4.719182014465332,-0.18,-0.44,0.09,0.48
4.721451044082642,-0.29,0.27,0.72,0.82
4.734557867050171,-0.3,1.03,1.4,1.76
4.742613077163696,-0.22,1.78,2.0,2.68
4.752089023590088,-0.28,2.58,2.28,3.45
4.761854887008667,-0.05,2.91,2.48,3.82
4.772000074386597,-0.3,3.2,3.01,4.4
4.782183885574341,-0.41,3.38,3.32,4.75
4.794606924057007,-0.35,3.31,3.27,4.66
4.802815198898315,-0.34,3.21,2.92,4.35
4.818964004516602,-0.2,2.95,2.32,3.75
4.82171893119812,-0.02,2.57,1.72,3.09
4.835360050201416,0.01,2.08,1.3,2.45
4.841227054595947,0.11,1.8,1.02,2.07
4.8520801067352295,0.31,1.88,0.84,2.08
4.862180948257446,0.7,2.2,0.61,2.38
4.872035026550293,1.31,2.56,0.02,2.87
4.882049083709717,1.83,2.52,-0.95,3.25
4.89561915397644,1.87,2.03,-1.96,3.38
4.902612924575806,1.77,1.46,-2.6,3.46
4.91889214515686,1.87,1.04,-2.7,3.44
4.921720027923584,2.04,0.85,-2.26,3.16
4.936321973800659,2.08,0.85,-1.73,2.83
4.941437005996704,2.47,0.25,-1.33,2.81
4.951988935470581,2.44,-0.15,-1.06,2.66
4.961572885513306,2.23,-0.27,-1.06,2.48
4.9714460372924805,1.8,0.05,-1.19,2.15
4.98142409324646,1.6,0.13,-1.02,1.9
4.991311073303223,1.43,0.09,-0.61,1.55
5.001429080963135,1.11,-0.12,0.18,1.13
5.016318082809448,0.69,-0.4,0.74,1.08
5.022336006164551,0.27,-0.72,0.61,0.98
5.04011607170105,-0.16,-1.1,0.03,1.11
5.041279077529907,-0.53,-1.57,-0.88,1.87
5.05190896987915,-0.79,-2.04,-1.76,2.8
5.061411142349243,-1.04,-2.63,-1.97,3.44
5.071722030639648,-1.17,-3.29,-1.78,3.91
5.081681966781616,-1.17,-3.84,-1.52,4.29
5.092530012130737,-1.1,-4.18,-1.36,4.53
5.102453947067261,-0.98,-4.39,-1.25,4.66
5.118281126022339,-0.79,-4.48,-1.06,4.67
5.121532201766968,-0.68,-4.42,-0.86,4.55
5.136322975158691,-0.56,-4.23,-0.68,4.32
5.140856981277466,-0.42,-3.92,-0.52,3.97
5.151864051818848,-0.29,-3.56,-0.33,3.58
5.161283016204834,-0.13,-3.07,-0.16,3.07
5.171764135360718,0.05,-2.44,-0.02,2.44
5.181514024734497,0.27,-1.7,0.17,1.72
5.192484140396118,0.54,-0.89,0.44,1.13
5.202448129653931,0.89,0.09,0.71,1.14
5.217987060546875,1.16,1.18,0.97,1.91
5.22131609916687,1.24,2.2,1.3,2.84
5.237941026687622,1.22,3.13,1.72,3.77
5.240969896316528,1.27,3.94,2.19,4.68
5.251532077789307,1.29,4.47,2.45,5.25
5.261391878128052,1.31,4.71,2.25,5.38
5.271888017654419,1.2,4.62,1.57,5.02
5.281527042388916,1.0,4.27,0.79,4.45
5.292387008666992,0.81,3.78,0.4,3.88
5.302103042602539,0.5,3.13,0.5,3.2
5.316398859024048,0.23,2.37,0.88,2.53
5.3212220668792725,-0.11,1.45,1.31,1.95
5.336650133132935,-0.51,0.63,1.7,1.88
5.340893983840942,-0.82,0.02,1.72,1.9
5.351585149765015,-1.04,-0.27,1.34,1.71
5.361201047897339,-1.39,-0.24,0.55,1.51
5.371581077575684,-1.62,-0.19,-0.11,1.63
5.381426095962524,-1.71,-0.24,-0.49,1.79
5.391534090042114,-1.86,-0.1,-0.89,2.06
5.40209698677063,-1.92,0.23,-0.94,2.15
5.420063018798828,-1.78,0.54,-0.52,1.93
5.421250104904175,-1.55,0.79,-0.16,1.74
5.435461044311523,-1.39,0.86,-0.28,1.65
5.440340042114258,-1.39,0.95,-0.8,1.86
5.451199054718018,-1.61,0.77,-1.46,2.3
5.461331129074097,-1.86,0.87,-1.84,2.75
5.471091032028198,-2.06,0.74,-2.04,2.99
5.481206178665161,-2.02,0.64,-1.99,2.9
5.491003036499023,-1.9,0.67,-1.84,2.72
5.502178907394409,-1.62,0.55,-1.65,2.37
5.519385099411011,-1.19,0.43,-1.5,1.96
5.520972013473511,-0.72,0.26,-1.41,1.6
5.53692102432251,-0.33,0.07,-1.21,1.25
5.540458917617798,0.0,-0.3,-0.88,0.92
5.551302194595337,0.13,-0.77,-0.48,0.91
5.56140398979187,0.2,-1.29,-0.14,1.31
5.571294069290161,0.26,-1.82,-0.02,1.83
5.58125901222229,0.31,-2.34,-0.11,2.36
5.591865062713623,0.35,-2.79,-0.38,2.83
5.601895093917847,0.35,-3.17,-0.7,3.26
5.6197731494903564,0.31,-3.47,-0.88,3.59
5.621016979217529,0.22,-3.66,-0.99,3.79
5.6366941928863525,0.15,-3.77,-1.18,3.95
5.6402809619903564,0.08,-3.75,-1.34,3.98
5.651134014129639,0.0,-3.66,-1.36,3.9
5.661686182022095,0.02,-3.48,-1.25,3.69
5.671324968338013,-0.07,-3.21,-1.05,3.37
5.681149005889893,-0.19,-2.79,-0.73,2.89
5.69179105758667,-0.22,-2.24,-0.34,2.27
5.701874017715454,-0.26,-1.52,0.2,1.55
5.720327138900757,-0.24,-0.61,0.73,0.98
5.721833944320679,-0.22,0.47,1.16,1.27
5.737342119216919,-0.17,1.54,1.47,2.13
5.740145921707153,0.02,2.58,1.66,3.06
5.750823974609375,0.13,3.45,1.78,3.88
5.762801885604858,0.14,3.97,1.93,4.41
5.770856142044067,0.01,4.04,2.25,4.62
5.780961990356445,-0.14,3.98,2.49,4.69
5.791810035705566,-0.31,3.83,2.44,4.55
5.801687955856323,-0.37,3.51,2.18,4.14
5.820194959640503,-0.37,3.04,1.81,3.55
5.821346998214722,-0.44,2.46,1.48,2.9
5.836724042892456,-0.48,1.82,1.35,2.31
5.8401360511779785,-0.42,1.42,1.32,1.98
5.850919961929321,-0.11,1.44,1.15,1.84
5.862825155258179,0.39,1.68,0.59,1.82
5.870761156082153,0.85,1.99,-0.33,2.18
5.880980014801025,1.04,1.88,-1.26,2.49
5.890671968460083,1.01,1.69,-2.05,2.84
5.901550054550171,1.01,1.51,-2.43,3.03
5.928410053253174,1.22,1.25,-2.19,2.8
5.929362058639526,1.49,0.89,-1.4,2.22
5.930233001708984,1.73,0.42,-0.78,1.94
5.940085172653198,1.86,0.3,-0.88,2.07
5.950783967971802,1.85,0.45,-1.68,2.53
5.96089506149292,2.05,0.39,-2.18,3.01
5.970937013626099,1.83,0.76,-1.92,2.75
5.980980157852173,1.91,0.72,-1.12,2.32
5.991405010223389,1.73,0.68,-0.16,1.86
6.001652002334595,1.43,0.52,0.46,1.58
6.0297181606292725,0.96,0.27,0.66,1.19
6.030847072601318,0.32,-0.12,0.47,0.58
6.031758069992065,-0.25,-0.71,-0.04,0.75
6.040294885635376,-0.8,-1.43,-0.66,1.76
6.050631999969482,-1.19,-2.25,-1.2,2.81
6.060782194137573,-1.42,-3.0,-1.57,3.67
6.071068048477173,-1.58,-3.61,-1.81,4.33
6.080962896347046,-1.6,-4.08,-1.87,4.76
6.090569972991943,-1.47,-4.42,-1.69,4.95
6.1014909744262695,-1.28,-4.5,-1.32,4.86
6.127254009246826,-1.08,-4.5,-0.9,4.71
6.129677057266235,-0.75,-4.43,-0.6,4.53
6.130692005157471,-0.44,-4.22,-0.41,4.26
6.139850854873657,-0.17,-3.91,-0.29,3.92
6.150357007980347,0.03,-3.59,-0.14,3.59
6.159970998764038,0.15,-3.15,0.01,3.15
6.170310974121094,0.28,-2.63,0.12,2.64
6.1806700229644775,0.52,-2.06,0.24,2.13
6.191249132156372,0.8,-1.45,0.33,1.68
6.201498985290527,0.96,-0.79,0.39,1.3
6.226545095443726,1.04,0.03,0.42,1.12
6.2290198802948,1.06,0.95,0.47,1.49
6.22989296913147,1.11,1.94,0.63,2.32
6.239923000335693,1.18,2.86,0.97,3.24
6.250277996063232,1.27,3.56,1.25,3.98
6.260113000869751,1.37,3.92,1.36,4.36
6.270671129226685,1.34,4.1,1.44,4.54
6.280501127243042,1.29,4.2,1.63,4.68
6.290986061096191,1.21,4.06,2.16,4.75
6.301382064819336,1.06,3.65,2.92,4.79
6.327682018280029,0.76,3.06,3.47,4.68
6.33020806312561,0.2,2.4,3.6,4.33
6.331164121627808,-0.44,1.83,3.25,3.75
6.339570045471191,-1.01,1.41,2.34,2.91
6.350403070449829,-1.62,1.04,1.23,2.28
6.359874963760376,-1.99,1.33,-0.04,2.39
6.370426893234253,-2.09,1.38,-1.11,2.73
6.380624055862427,-1.95,1.01,-1.7,2.77
6.390925168991089,-1.93,1.24,-1.94,3.0
6.40029501914978,-1.7,1.41,-1.83,2.86
6.425008058547974,-1.55,1.31,-1.43,2.48
6.425917863845825,-1.42,0.98,-0.96,1.97
6.4296300411224365,-1.34,0.48,-0.63,1.55
6.440068006515503,-1.45,0.15,-0.68,1.6
6.450204133987427,-1.7,-0.04,-1.08,2.01
6.4601240158081055,-2.09,-0.17,-1.26,2.44
6.470362901687622,-2.19,-0.24,-1.31,2.56
6.481891870498657,-2.15,-0.24,-1.14,2.44
6.490933179855347,-1.85,-0.25,-0.96,2.09
6.501158952713013,-1.48,-0.27,-0.98,1.79
6.52850604057312,-1.05,-0.25,-1.22,1.62
6.530927896499634,-0.5,-0.35,-1.53,1.64
6.531898021697998,0.03,-0.58,-1.69,1.78
6.53955602645874,0.41,-0.88,-1.53,1.81
6.550044059753418,0.66,-1.29,-0.94,1.72
6.5596489906311035,0.89,-1.82,-0.25,2.04
6.570008039474487,0.99,-2.35,0.3,2.56
6.581148862838745,1.05,-2.87,0.59,3.11
6.589869976043701,1.04,-3.28,0.52,3.48
6.600084066390991,0.95,-3.62,0.18,3.74
6.62719202041626,0.72,-3.83,-0.31,3.9
6.62816309928894,0.49,-3.89,-0.81,4.0
6.630650043487549,0.25,-3.85,-1.12,4.01
6.639588117599487,0.09,-3.7,-1.36,3.94
6.64988112449646,-0.01,-3.46,-1.48,3.76
6.659420967102051,-0.13,-3.1,-1.31,3.36
6.67007303237915,-0.24,-2.63,-0.83,2.76
6.681236028671265,-0.27,-2.03,-0.2,2.05
6.690062046051025,-0.24,-1.39,0.45,1.48
6.699928045272827,-0.26,-0.59,1.14,1.3
6.727673053741455,-0.36,0.44,1.77,1.85
6.73016619682312,-0.41,1.47,2.25,2.71
6.73116397857666,-0.48,2.33,2.56,3.49
6.739380121231079,-0.41,3.01,2.73,4.08
6.74968695640564,-0.4,3.49,2.67,4.41
6.75980806350708,-0.48,3.74,2.43,4.48
6.769942045211792,-0.7,3.81,2.21,4.45
6.781461954116821,-0.95,3.75,2.1,4.4
6.790466070175171,-1.02,3.48,1.98,4.13
6.800932168960571,-0.9,3.07,1.76,3.65
6.829055070877075,-0.77,2.6,1.46,3.07
6.831549882888794,-0.67,2.15,1.12,2.51
6.832489013671875,-0.35,1.73,0.8,1.93
6.839227914810181,0.13,1.62,0.54,1.71
6.849599123001099,0.75,1.78,0.0,1.93
6.85918402671814,1.28,1.89,-0.62,2.36
6.869879961013794,1.25,1.62,-1.39,2.47
6.879634141921997,1.13,1.27,-1.98,2.6
6.890604019165039,1.09,1.01,-2.15,2.61
6.899831056594849,1.32,0.81,-1.87,2.42
6.926582098007202,1.71,0.63,-1.21,2.18
6.927487134933472,2.04,0.37,-0.59,2.15
6.928930997848511,2.35,0.08,-0.48,2.39
6.939771890640259,2.39,0.01,-1.03,2.6
6.949442148208618,2.17,0.1,-1.67,2.74
6.95970892906189,1.89,0.17,-1.73,2.56
6.96976113319397,1.61,0.31,-1.25,2.06
6.9807069301605225,1.31,0.4,-0.45,1.44
6.990560054779053,0.85,0.48,0.18,0.99
6.9995410442352295,0.35,0.36,0.33,0.6
7.028062105178833,-0.26,0.03,0.04,0.26
7.029136896133423,-0.77,-0.51,-0.48,1.04
7.0316479206085205,-1.15,-1.25,-0.98,1.96
7.038995981216431,-1.35,-2.0,-1.32,2.75
7.0492730140686035,-1.44,-2.71,-1.48,3.4
7.059401988983154,-1.55,-3.27,-1.47,3.9
7.069533109664917,-1.38,-3.73,-1.28,4.17
7.079312086105347,-1.09,-3.95,-1.03,4.22
7.090043067932129,-0.86,-4.04,-0.73,4.19
7.100565195083618,-0.71,-4.09,-0.47,4.17
7.12771201133728,-0.57,-4.08,-0.28,4.12
7.128636121749878,-0.47,-3.97,-0.22,4.0
7.1314918994903564,-0.38,-3.76,-0.26,3.78
7.139037847518921,-0.32,-3.49,-0.28,3.51
7.14912486076355,-0.14,-3.19,-0.18,3.19
7.159044027328491,0.08,-2.82,0.1,2.82
7.169478178024292,0.35,-2.26,0.44,2.32
7.180137872695923,0.61,-1.43,0.69,1.7
7.190167188644409,0.84,-0.4,0.88,1.28
7.200876951217651,1.03,0.79,1.09,1.69
7.229021072387695,1.09,2.11,1.34,2.72
7.231513023376465,1.02,3.21,1.57,3.71
7.232256174087524,0.87,3.84,1.57,4.23
7.238677978515625,0.84,4.02,1.33,4.31
7.248675107955933,0.9,3.87,1.1,4.12
7.258931875228882,0.95,3.67,1.08,3.94
7.268938064575195,0.93,3.44,1.43,3.83
7.279062032699585,0.84,3.15,2.08,3.86
7.290102005004883,0.55,2.76,2.56,3.8
7.300758123397827,-0.07,2.34,2.56,3.46
7.328168153762817,-0.81,2.03,2.01,2.96
7.329272031784058,-1.48,1.95,1.34,2.79
7.3317670822143555,-1.93,2.28,0.64,3.05
7.338754892349243,-2.05,2.62,0.04,3.32
7.348809003829956,-2.04,2.72,-0.48,3.43
7.358936071395874,-1.97,2.71,-1.18,3.55
7.368815183639526,-1.85,2.67,-1.82,3.72
7.37900710105896,-1.73,2.32,-1.78,3.39
7.3893749713897705,-1.64,1.58,-1.27,2.6
7.40023398399353,-1.64,0.82,-0.96,2.06
7.42734694480896,-1.75,0.25,-1.13,2.09
7.42827296257019,-1.85,-0.09,-1.58,2.43
7.4291441440582275,-1.95,-0.23,-1.86,2.7
7.4393088817596436,-1.89,-0.35,-1.77,2.61
7.449048042297363,-1.75,-0.44,-1.24,2.18
7.458850145339966,-1.47,-0.51,-0.68,1.69
7.469264984130859,-1.08,-0.54,-0.38,1.26
7.479037046432495,-0.69,-0.62,-0.29,0.97
7.489062070846558,-0.22,-0.71,-0.26,0.78
7.5014731884002686,0.28,-0.8,-0.29,0.89
7.525214910507202,0.65,-0.94,-0.38,1.2
7.526005029678345,0.77,-1.18,-0.38,1.45
7.528338193893433,0.72,-1.62,-0.37,1.81
7.538825988769531,0.64,-2.17,-0.31,2.28
7.549241065979004,0.55,-2.68,-0.31,2.75
7.558804035186768,0.38,-3.14,-0.47,3.19
7.568549871444702,0.18,-3.59,-0.7,3.66
7.578850030899048,0.02,-3.91,-0.96,4.02
7.589020013809204,-0.16,-4.08,-1.18,4.25
7.601726055145264,-0.27,-4.07,-1.42,4.31
7.625105142593384,-0.35,-3.84,-1.66,4.19
7.626024961471558,-0.4,-3.47,-1.81,3.93
7.628194093704224,-0.47,-3.09,-1.76,3.58
7.638964891433716,-0.52,-2.67,-1.4,3.05
7.649597883224487,-0.5,-2.24,-0.82,2.43
7.658540964126587,-0.42,-1.63,-0.09,1.68
7.668852090835571,-0.38,-0.82,0.6,1.08
7.678766965866089,-0.34,0.17,1.27,1.32
7.688904047012329,-0.29,1.34,1.79,2.25
7.701472997665405,-0.23,2.52,2.13,3.3
7.727614164352417,-0.22,3.46,2.35,4.18
7.72863507270813,-0.21,4.01,2.37,4.66
7.729480028152466,-0.32,4.21,2.32,4.81
7.738906145095825,-0.6,4.08,2.48,4.81
7.749645948410034,-0.68,3.7,2.51,4.52
7.7584779262542725,-0.58,3.22,2.41,4.06
7.76874303817749,-0.37,2.79,2.19,3.56
7.7784459590911865,-0.13,2.28,1.92,2.98
7.788790941238403,0.11,1.63,1.76,2.4
7.801987886428833,0.31,0.99,1.89,2.15
7.825237035751343,0.26,0.75,2.0,2.15
7.826133966445923,0.55,0.93,0.8,1.34
7.827873945236206,0.49,1.15,-0.51,1.35
7.838365077972412,0.08,1.46,-1.61,2.17
7.850176095962524,-0.17,1.59,-2.46,2.93
7.858201026916504,-0.08,1.54,-2.73,3.13
7.868744134902954,0.42,1.35,-2.29,2.69
7.878507852554321,1.27,1.23,-1.57,2.36
7.888654947280884,2.21,1.21,-0.88,2.66
7.899377107620239,2.96,1.15,-0.6,3.23
7.91566014289856,3.25,0.93,-0.62,3.43
7.926969051361084,3.29,0.72,-0.8,3.46
7.927878141403198,3.3,0.59,-0.99,3.49
7.938222169876099,2.94,0.57,-0.65,3.06
7.948088884353638,2.3,0.54,0.03,2.36
7.958946943283081,1.61,0.39,0.42,1.7
7.968570947647095,0.82,0.24,0.31,0.9
7.978564023971558,0.13,-0.07,-0.09,0.17
7.988537073135376,-0.41,-0.54,-0.6,0.9
7.999330043792725,-0.87,-1.03,-1.14,1.76
8.016410112380981,-1.24,-1.61,-1.61,2.59
8.0312020778656,-1.52,-2.33,-1.92,3.38
8.033682107925415,-1.6,-2.96,-2.03,3.92
8.037806034088135,-1.53,-3.42,-1.95,4.22
8.047928094863892,-1.29,-3.68,-1.7,4.25
8.058284044265747,-1.15,-4.23,-1.28,4.56
8.068084001541138,-0.76,-4.22,-0.83,4.36
8.078273057937622,-0.45,-4.21,-0.51,4.26
8.089365005493164,-0.26,-4.2,-0.29,4.21
8.099150896072388,-0.07,-4.04,-0.11,4.04
8.115907907485962,0.1,-3.79,0.01,3.79
8.130722045898438,0.26,-3.48,0.12,3.49
8.131623983383179,0.37,-3.1,0.18,3.12
8.137938976287842,0.56,-2.59,0.15,2.65
8.147774934768677,0.84,-2.0,-0.02,2.16
8.158188104629517,1.0,-1.32,-0.08,1.65
8.167958974838257,1.13,-0.59,0.1,1.27
8.178562879562378,1.23,0.22,0.45,1.32
8.188401937484741,1.15,0.92,0.88,1.71
8.199021100997925,0.92,1.47,1.28,2.15
8.21599793434143,0.71,1.92,1.5,2.53
8.229781866073608,0.73,2.16,1.44,2.69
8.230694055557251,0.92,2.44,1.37,2.94
8.23792290687561,1.22,2.78,1.66,3.46
8.247860193252563,1.44,3.17,2.39,4.22
8.258601903915405,1.45,3.47,3.2,4.93
8.268197059631348,1.19,3.55,3.65,5.22
8.277972936630249,0.62,3.43,3.42,4.88
8.288036108016968,-0.24,3.09,2.75,4.14
8.298874139785767,-0.97,2.96,1.98,3.69
8.315368890762329,-1.65,2.86,1.11,3.48
8.32735300064087,-2.27,2.23,-0.19,3.18
8.328283071517944,-2.61,1.87,-1.54,3.56
8.337687015533447,-2.59,1.91,-2.41,4.02
8.347586870193481,-2.34,1.94,-2.66,4.03
8.358197927474976,-1.99,1.82,-2.44,3.63
8.368648052215576,-1.61,1.66,-1.88,2.98
8.377914190292358,-1.24,1.29,-1.21,2.16
8.388118982315063,-1.06,0.83,-0.66,1.49
8.39875602722168,-1.05,0.48,-0.57,1.28
8.415591955184937,-1.15,0.17,-0.95,1.5
8.427327871322632,-1.39,-0.26,-1.42,2.0
8.428261041641235,-1.53,-0.68,-1.69,2.37
8.43760085105896,-1.52,-1.05,-1.51,2.38
8.447582006454468,-1.4,-1.11,-1.13,2.11
8.458404064178467,-1.07,-0.93,-0.75,1.6
8.468805074691772,-0.57,-0.73,-0.51,1.05
8.47874402999878,0.07,-0.62,-0.4,0.74
8.487999200820923,0.72,-0.6,-0.42,1.02
8.49855899810791,1.24,-0.71,-0.47,1.5
8.5156090259552,1.43,-0.93,-0.46,1.76
8.527084112167358,1.35,-1.18,-0.38,1.83
8.527990102767944,1.2,-1.63,-0.31,2.04
8.53783392906189,0.99,-2.06,-0.35,2.31
8.547457933425903,0.69,-2.42,-0.43,2.55
8.558359861373901,0.41,-2.77,-0.61,2.86
8.569134950637817,0.13,-3.07,-0.93,3.21
8.578512907028198,-0.07,-3.33,-1.22,3.54
8.587836980819702,-0.2,-3.44,-1.4,3.71
8.598520040512085,-0.25,-3.49,-1.54,3.82
8.61546802520752,-0.32,-3.37,-1.57,3.73
8.627665042877197,-0.32,-3.15,-1.36,3.44
8.628565073013306,-0.29,-2.78,-0.92,2.94
8.637650966644287,-0.31,-2.3,-0.31,2.34
8.647238969802856,-0.26,-1.59,0.41,1.66
8.658037900924683,-0.22,-0.66,1.14,1.33
8.66930890083313,-0.19,0.44,1.74,1.8
8.677665948867798,-0.05,1.62,2.28,2.79
8.688669919967651,0.0,2.68,2.57,3.71
8.698243856430054,-0.12,3.48,2.43,4.24
8.71554684638977,-0.13,4.04,2.11,4.55
8.727320909500122,-0.22,4.25,1.99,4.69
8.728229999542236,-0.55,4.13,2.09,4.66
8.737182855606079,-0.75,3.75,2.24,4.43
8.747399091720581,-0.73,3.18,2.28,3.98
8.75805115699768,-0.62,2.56,2.3,3.49
8.769474029541016,-0.42,2.03,2.13,2.97
8.778456926345825,-0.24,1.35,1.74,2.21
8.787489175796509,-0.12,0.89,1.34,1.61
8.79800295829773,0.14,1.05,0.8,1.32
8.814448118209839,0.57,1.36,-0.06,1.47
8.826917886734009,0.83,1.8,-1.13,2.28
8.827745199203491,0.83,2.0,-1.89,2.87
8.837083101272583,0.91,1.85,-2.32,3.1
8.847023010253906,1.06,1.59,-2.56,3.19
8.85738205909729,1.44,1.41,-2.32,3.07
8.869724988937378,1.94,1.21,-1.62,2.8
8.87742805480957,2.35,0.71,-1.03,2.66
8.887688875198364,2.6,0.47,-0.96,2.81
8.897964000701904,2.99,0.36,-1.38,3.31
8.914293050765991,2.84,0.24,-1.57,3.25
8.928777933120728,2.67,0.19,-1.41,3.02
8.929731130599976,2.47,0.04,-0.9,2.62
8.937210083007812,1.99,-0.06,-0.29,2.01
8.94701600074768,1.39,-0.15,0.1,1.4
8.957220077514648,0.8,-0.29,0.14,0.86
8.967167139053345,0.29,-0.62,-0.09,0.69
8.978348970413208,-0.14,-1.1,-0.5,1.21
8.987437009811401,-0.54,-1.71,-0.98,2.04
8.997220993041992,-0.78,-2.34,-1.44,2.85
9.012017011642456,-0.93,-3.01,-1.7,3.57
9.017137050628662,-0.66,-3.11,-1.85,3.67
9.028759002685547,-0.76,-3.42,-1.83,3.95
9.036758184432983,-0.96,-4.8,-1.42,5.09
9.046905994415283,-0.91,-5.25,-1.07,5.43
9.057231187820435,-0.68,-5.16,-0.77,5.26
9.067344903945923,-0.49,-4.55,-0.54,4.6
9.077276945114136,-0.48,-4.36,-0.31,4.39
9.087536096572876,-0.38,-4.13,-0.14,4.14
9.097858190536499,-0.3,-3.66,-0.05,3.67
9.114179849624634,-0.24,-3.09,-0.04,3.09
9.117189168930054,-0.13,-2.37,0.07,2.37
9.127832174301147,-0.02,-1.52,0.23,1.53
9.136538982391357,0.32,-0.57,0.53,0.84
9.146908044815063,0.71,0.49,0.87,1.22
9.157037019729614,0.93,1.46,1.12,2.06
9.167212009429932,1.01,2.36,1.35,2.9
9.177107095718384,1.08,3.05,1.64,3.62
9.188233137130737,1.2,3.49,1.82,4.11
9.197870969772339,1.32,3.69,1.87,4.34
9.214776039123535,1.48,3.62,1.83,4.31
9.216935873031616,1.67,3.41,1.91,4.25
9.229539155960083,1.81,3.24,2.24,4.33
9.236697912216187,1.73,3.1,2.79,4.51
9.247115850448608,1.19,2.78,3.09,4.32
9.257417917251587,0.43,2.4,2.89,3.78
9.267070055007935,-0.33,2.16,2.45,3.28
9.277074098587036,-1.1,2.13,1.88,3.04
9.288779973983765,-1.62,2.3,1.12,3.02
9.297666072845459,-1.86,2.54,0.3,3.16
9.314807176589966,-2.07,2.59,-0.56,3.36
9.317568063735962,-2.1,2.5,-1.57,3.62
9.331708192825317,-1.9,2.26,-2.46,3.84
9.336616039276123,-1.68,1.79,-2.82,3.73
9.346806049346924,-1.56,1.18,-2.68,3.31
9.357279062271118,-1.57,0.49,-2.09,2.65
9.366765022277832,-1.65,0.0,-1.52,2.24
9.377171039581299,-1.77,-0.26,-1.19,2.14
9.389053106307983,-1.98,-0.39,-1.04,2.27
9.397489070892334,-2.14,-0.41,-0.99,2.39
9.414546012878418,-2.15,-0.39,-0.95,2.38
9.417665004730225,-1.99,-0.34,-0.97,2.23
9.431727170944214,-1.63,-0.24,-1.05,1.95
9.436593055725098,-1.1,-0.11,-1.26,1.67
9.446974039077759,-0.46,-0.16,-1.35,1.43
9.457340002059937,0.11,-0.36,-1.18,1.23
9.466701984405518,0.6,-0.62,-0.89,1.23
9.476904153823853,0.96,-0.92,-0.47,1.41
9.489279985427856,1.22,-1.37,-0.01,1.83
9.497525930404663,1.29,-1.94,0.26,2.34
9.513322114944458,1.25,-2.51,0.28,2.81
9.516554117202759,1.11,-2.98,0.11,3.18
9.528550863265991,0.98,-3.34,-0.2,3.48
9.536648035049438,0.82,-3.63,-0.54,3.76
9.546653032302856,0.62,-3.74,-0.94,3.9
9.556573152542114,0.42,-3.61,-1.29,3.85
9.566083192825317,0.26,-3.41,-1.45,3.71
9.576926946640015,0.07,-3.25,-1.43,3.55
9.58802604675293,-0.08,-3.06,-1.31,3.32
9.597424983978271,-0.28,-2.76,-1.07,2.97
9.614341974258423,-0.43,-2.3,-0.8,2.47
9.617125988006592,-0.57,-1.75,-0.42,1.88
9.631486177444458,-0.72,-1.11,0.05,1.32
9.6370530128479,-0.79,-0.34,0.58,1.03
9.646497964859009,-0.72,0.58,1.14,1.46
9.65673303604126,-0.52,1.53,1.67,2.32
9.666515111923218,-0.36,2.52,2.02,3.24
9.67772102355957,-0.13,3.36,2.2,4.01
9.689369916915894,0.0,3.88,2.4,4.56
9.697283029556274,-0.06,4.07,2.67,4.86
9.714375019073486,-0.19,3.99,2.9,4.93
9.716261148452759,-0.35,3.73,2.88,4.72
9.729499101638794,-0.45,3.04,2.42,3.91
9.73729395866394,-0.38,2.62,1.88,3.24
9.746376037597656,-0.34,2.02,1.65,2.63
9.756402015686035,-0.35,1.46,1.72,2.28
9.766475915908813,0.01,1.63,1.27,2.06
9.776571035385132,0.65,2.21,0.45,2.34
9.78912901878357,1.05,2.55,-0.65,2.83
9.797148942947388,1.2,2.49,-1.68,3.23
9.814049005508423,1.23,2.24,-2.44,3.53
9.815868139266968,1.45,1.98,-2.65,3.61
9.828531980514526,1.82,1.7,-2.03,3.21
9.837130069732666,1.93,1.23,-1.0,2.49
9.846248865127563,2.36,0.35,-0.37,2.41
9.856273889541626,2.71,-0.7,-0.33,2.81
9.865852117538452,2.46,-1.02,-0.63,2.73
9.876420021057129,1.94,-0.53,-1.1,2.29
9.888376951217651,1.61,-0.22,-0.97,1.89
9.897146940231323,1.27,0.02,-0.39,1.32
9.912976026535034,0.87,0.15,0.16,0.89
9.915845155715942,0.38,0.16,0.25,0.48
9.928894996643066,-0.09,0.14,-0.1,0.19
9.935487031936646,-0.42,-0.02,-0.67,0.79
9.946326971054077,-0.65,-0.51,-1.18,1.44
9.956534147262573,-0.84,-1.28,-1.44,2.1
9.966313123703003,-0.96,-2.19,-1.46,2.8
9.977152109146118,-0.93,-3.06,-1.52,3.54
9.987655878067017,-0.85,-3.67,-1.62,4.1
9.997124910354614,-0.68,-4.05,-1.49,4.36
10.01325798034668,-0.58,-4.31,-1.07,4.47
10.015782117843628,-0.54,-4.54,-0.69,4.62
10.03019905090332,-0.42,-4.63,-0.53,4.67
10.035640954971313,-0.27,-4.55,-0.39,4.57
10.046249151229858,-0.24,-4.4,-0.23,4.41
10.055921077728271,-0.27,-4.21,-0.19,4.22
10.065643072128296,-0.29,-3.86,-0.22,3.87
10.075459003448486,-0.28,-3.29,-0.26,3.31
10.085521936416626,-0.19,-2.61,-0.29,2.63
10.095319032669067,-0.01,-1.79,-0.3,1.81
10.11319613456726,0.24,-0.84,-0.23,0.9
10.116034984588623,0.54,0.25,-0.06,0.59
10.130398988723755,0.84,1.49,0.19,1.72
10.135315179824829,1.08,2.65,0.59,2.92
10.146053075790405,1.23,3.44,1.15,3.83
10.155772924423218,1.31,3.87,1.79,4.46
10.165966987609863,1.45,4.1,2.18,4.86
10.175956010818481,1.61,4.27,2.16,5.04
10.187015056610107,1.83,4.32,2.09,5.13
10.196842908859253,1.9,4.23,2.32,5.18
10.212385892868042,1.62,3.78,2.76,4.95
10.215883016586304,1.07,3.04,2.9,4.33
10.23098111152649,0.21,2.42,2.63,3.58
10.235243082046509,-0.73,1.96,2.09,2.95
10.24590802192688,-1.4,1.54,1.25,2.42
10.2555410861969,-2.06,1.11,0.2,2.34
10.266113996505737,-2.44,0.81,-1.15,2.81
10.275602102279663,-2.61,0.65,-2.0,3.35
10.286004066467285,-2.73,0.45,-2.2,3.53
10.295994997024536,-2.49,0.43,-1.94,3.18
10.310407876968384,-2.16,0.56,-1.06,2.47
10.315387964248657,-1.93,0.58,0.23,2.02
10.330654859542847,-1.77,0.53,1.09,2.14
10.335038900375366,-1.58,0.73,1.08,2.04
10.34589695930481,-1.54,0.94,0.25,1.82
10.355716943740845,-1.72,0.98,-1.0,2.21
10.366129159927368,-1.91,0.88,-2.0,2.9
10.376323938369751,-1.95,0.79,-2.41,3.19
10.386715173721313,-1.87,0.74,-2.31,3.06
10.396804094314575,-1.72,0.65,-1.95,2.68
10.41253113746643,-1.45,0.35,-1.57,2.16
10.41562294960022,-0.94,0.05,-1.23,1.54
10.432345151901245,-0.44,-0.21,-1.0,1.11
10.435230016708374,0.11,-0.47,-0.79,0.92
10.445875883102417,0.51,-0.7,-0.52,1.01
10.45579218864441,0.76,-1.05,-0.28,1.32
10.465831995010376,0.84,-1.5,-0.21,1.73
10.475618124008179,0.77,-1.99,-0.21,2.14
10.48630404472351,0.7,-2.45,-0.3,2.56
10.49576210975647,0.56,-2.85,-0.51,2.94
10.51181697845459,0.41,-3.16,-0.75,3.27
10.51512885093689,0.31,-3.47,-1.04,3.63
10.531544923782349,0.24,-3.81,-1.41,4.06
10.534911870956421,0.13,-3.92,-1.72,4.28
10.545776128768921,0.06,-3.9,-1.82,4.3
10.555476903915405,-0.05,-3.82,-1.56,4.12
10.565161943435669,-0.14,-3.63,-1.05,3.78
10.575603008270264,-0.26,-3.27,-0.45,3.31
10.58552598953247,-0.37,-2.75,0.06,2.77
10.596536874771118,-0.52,-2.15,0.53,2.27
10.6127610206604,-0.72,-1.38,0.97,1.83
10.61540699005127,-0.81,-0.38,1.29,1.56
10.631480932235718,-0.71,0.9,1.55,1.92
10.634857892990112,-0.49,2.19,1.84,2.9
10.6457679271698,-0.39,3.21,2.32,3.97
10.656166076660156,-0.32,3.79,2.85,4.75
10.665655851364136,-0.25,4.09,3.27,5.24
10.675491094589233,-0.33,4.11,3.52,5.42
10.685461044311523,-0.45,3.83,3.63,5.29
10.69546103477478,-0.53,3.42,3.39,4.84
10.713221073150635,-0.58,2.96,2.68,4.03
10.714865922927856,-0.59,2.47,2.01,3.23
10.731722116470337,-0.45,2.15,1.71,2.78
10.734721899032593,-0.2,2.02,1.57,2.56
10.745580911636353,0.13,2.12,1.09,2.38
10.756387948989868,0.5,2.33,0.01,2.38
10.765635013580322,0.71,2.54,-1.19,2.89
10.775479078292847,0.66,2.52,-1.98,3.27
10.786176919937134,0.78,2.28,-2.44,3.42
10.796457052230835,1.18,1.9,-2.53,3.37
10.81377387046814,1.8,1.45,-2.16,3.16
10.814948081970215,2.31,0.92,-1.56,2.93
10.832338094711304,2.74,0.3,-1.09,2.96
10.834534883499146,3.02,-0.24,-1.01,3.19
10.84520697593689,3.02,-0.53,-1.4,3.37
10.856381177902222,2.77,-0.5,-1.72,3.29
10.864981889724731,2.44,-0.43,-1.37,2.83
10.875351190567017,1.98,-0.39,-0.52,2.08
10.88514494895935,1.39,-0.39,0.12,1.44
10.8961660861969,0.76,-0.37,0.32,0.9
10.915006875991821,0.11,-0.45,0.14,0.48
10.916528940200806,-0.42,-0.69,-0.22,0.83
10.93166708946228,-0.88,-1.0,-0.63,1.47
10.934597969055176,-1.29,-1.48,-1.07,2.23
10.945507049560547,-1.45,-2.07,-1.52,2.94
10.956719160079956,-1.58,-2.74,-1.85,3.66
10.965357065200806,-1.63,-3.35,-1.95,4.2
10.975312948226929,-1.48,-3.62,-1.87,4.33
10.985962152481079,-1.16,-3.48,-1.7,4.04
10.99590802192688,-1.37,-4.57,-1.33,4.95
11.021944046020508,-0.95,-4.51,-0.9,4.69
11.022856950759888,-0.48,-3.93,-0.63,4.0
11.024409055709839,-0.35,-3.74,-0.41,3.77
11.0348060131073,-0.22,-3.54,-0.27,3.55
11.044677019119263,-0.11,-3.26,-0.24,3.27
11.054399967193604,-0.02,-2.93,-0.18,2.93
11.064411878585815,0.07,-2.47,-0.03,2.47
11.074227094650269,0.22,-1.92,0.21,1.94
11.084258079528809,0.51,-1.2,0.42,1.36
11.094235181808472,0.83,-0.25,0.62,1.06
11.113056898117065,1.19,0.83,0.96,1.73
11.11388087272644,1.33,1.95,1.55,2.82
11.124368906021118,1.3,2.68,2.07,3.62
11.134139060974121,1.27,3.06,2.18,3.96
11.1442391872406,1.31,3.23,1.92,3.97
11.1545090675354,1.33,3.24,1.5,3.81
11.164018869400024,1.35,3.26,1.39,3.79
11.174008131027222,1.24,3.24,1.81,3.91
11.18411898612976,0.99,3.16,2.62,4.22
11.194467067718506,0.58,3.03,3.36,4.56
11.218996047973633,-0.07,2.7,3.46,4.38
11.220129013061523,-0.89,2.35,2.84,3.79
11.224118947982788,-1.65,2.04,1.93,3.25
11.234807968139648,-2.16,1.93,0.89,3.03
11.244338989257812,-2.46,2.0,-0.2,3.17
11.253915071487427,-2.57,2.01,-0.96,3.4
11.264018058776855,-2.41,1.95,-1.37,3.38
11.274208068847656,-2.05,1.9,-1.64,3.24
11.283863067626953,-1.77,1.76,-1.84,3.1
11.295687913894653,-1.4,1.53,-1.88,2.79
11.323844194412231,-1.16,1.15,-1.64,2.31
11.324763059616089,-1.07,0.53,-1.21,1.69
11.325636148452759,-1.22,-0.08,-0.9,1.51
11.334238052368164,-1.55,-0.41,-0.88,1.82
11.344799995422363,-1.86,-0.62,-0.97,2.18
11.354511976242065,-2.01,-0.78,-1.04,2.39
11.364819049835205,-1.97,-0.78,-1.07,2.37
11.375482082366943,-1.8,-0.76,-1.06,2.22
11.385565996170044,-1.41,-0.75,-0.99,1.87
11.39566707611084,-0.84,-0.76,-0.95,1.47
11.422327995300293,-0.22,-0.85,-1.01,1.33
11.42472505569458,0.4,-0.95,-1.01,1.44
11.425615072250366,0.8,-1.1,-0.79,1.57
11.434126138687134,0.96,-1.33,-0.38,1.68
11.444473028182983,0.96,-1.71,-0.03,1.96
11.454153060913086,0.82,-2.15,0.11,2.3
11.464791059494019,0.63,-2.58,0.01,2.65
11.475009202957153,0.41,-3.02,-0.18,3.05
11.48546290397644,0.21,-3.46,-0.4,3.48
11.495543003082275,0.08,-3.76,-0.73,3.83
11.523566007614136,0.0,-3.85,-1.08,3.99
11.524462938308716,-0.05,-3.76,-1.4,4.01
11.525315046310425,-0.14,-3.5,-1.52,3.81
11.534144163131714,-0.28,-3.12,-1.47,3.46
11.544556856155396,-0.32,-2.76,-1.2,3.02
11.554425954818726,-0.34,-2.3,-0.74,2.43
11.56481385231018,-0.33,-1.72,-0.19,1.76
11.576156854629517,-0.32,-0.97,0.39,1.09
11.585205078125,-0.44,-0.1,0.95,1.05
11.595369100570679,-0.55,0.78,1.37,1.66
11.622912168502808,-0.49,1.66,1.67,2.4
11.62382197380066,-0.4,2.47,1.94,3.16
11.624683141708374,-0.35,3.01,2.29,3.79
11.633772134780884,-0.29,3.22,2.68,4.19
11.644182920455933,-0.3,3.22,2.96,4.38
11.654388189315796,-0.29,3.15,3.01,4.36
11.664912939071655,-0.21,3.04,3.03,4.29
11.675379037857056,-0.12,2.77,2.95,4.04
11.684386968612671,-0.06,2.26,2.68,3.5
11.694321870803833,-0.09,1.78,2.41,2.99
11.72106385231018,-0.13,1.65,2.17,2.72
11.722007036209106,0.04,1.96,1.62,2.54
11.724362134933472,0.27,2.56,0.52,2.62
11.733767032623291,0.42,3.25,-0.79,3.37
11.744081020355225,0.48,3.66,-1.87,4.13
11.753996133804321,0.58,3.66,-2.62,4.53
11.764600992202759,0.97,3.36,-2.84,4.5
11.775197982788086,1.42,2.81,-2.38,3.94
11.784817934036255,1.88,1.95,-1.71,3.2
11.79419493675232,2.33,0.97,-1.13,2.76
11.819030046463013,2.66,0.15,-0.98,2.83
11.819802045822144,2.63,-0.24,-1.36,2.97
11.82437801361084,2.51,-0.5,-1.68,3.06
11.833937883377075,2.15,-0.58,-1.4,2.63
11.843913078308105,1.57,-0.55,-0.66,1.78
11.854223012924194,1.04,-0.54,-0.14,1.18
11.864288091659546,0.47,-0.48,-0.06,0.67
11.875477075576782,0.01,-0.48,-0.3,0.56
11.884990930557251,-0.37,-0.63,-0.63,0.96
11.894097089767456,-0.7,-0.92,-0.92,1.47
11.906037092208862,-0.99,-1.4,-1.11,2.04
11.91469407081604,-1.12,-2.02,-1.28,2.64
11.924098014831543,-1.12,-2.67,-1.46,3.24
11.93370509147644,-1.01,-3.15,-1.55,3.65
11.943977117538452,-0.89,-3.5,-1.51,3.91
11.954635858535767,-0.72,-3.77,-1.28,4.04
11.964140176773071,-0.56,-4.01,-0.83,4.13
11.977611064910889,-0.39,-4.21,-0.37,4.24
11.984781980514526,-0.26,-4.24,-0.09,4.24
11.995115995407104,-0.14,-4.12,0.01,4.12
12.023998975753784,-0.04,-3.95,-0.04,3.95
12.025114059448242,0.04,-3.7,-0.19,3.7
12.026278972625732,0.11,-3.29,-0.32,3.3
12.03347897529602,0.21,-2.82,-0.33,2.84
12.043670892715454,0.46,-2.28,-0.2,2.33
12.05425500869751,0.78,-1.58,0.06,1.76
12.0643630027771,1.13,-0.73,0.31,1.38
12.07720685005188,1.39,0.23,0.49,1.49
12.084487199783325,1.45,1.25,0.69,2.03
12.094919919967651,1.37,2.1,1.02,2.7
12.120465993881226,1.17,2.73,1.41,3.28
12.121372938156128,1.1,3.05,1.63,3.62
12.12325406074524,1.16,3.32,1.61,3.86
12.133600950241089,1.32,3.55,1.67,4.13
12.143658876419067,1.36,3.63,2.04,4.38
12.153614044189453,1.31,3.47,2.64,4.55
12.163931131362915,1.06,3.13,3.21,4.6
12.173752069473267,0.46,2.76,3.41,4.41
12.184687852859497,-0.29,2.54,3.1,4.01
12.195209980010986,-0.94,2.44,2.32,3.49
12.220360040664673,-1.59,2.43,1.32,3.18
12.22127103805542,-1.99,2.59,0.25,3.27
12.223038911819458,-2.24,2.75,-0.33,3.56
12.233575105667114,-2.37,2.81,-0.83,3.76
12.243438005447388,-2.32,2.71,-1.36,3.81
12.253309965133667,-2.15,2.29,-1.49,3.47
12.263785123825073,-1.87,1.51,-1.21,2.69
12.274503946304321,-1.61,0.66,-0.96,1.98
12.284687995910645,-1.55,0.06,-1.0,1.84
12.295013189315796,-1.58,-0.29,-1.38,2.11
12.32084608078003,-1.73,-0.58,-1.89,2.62
12.321871995925903,-1.85,-0.8,-2.07,2.88
12.323004007339478,-1.86,-0.89,-1.94,2.83
12.333384037017822,-1.77,-0.93,-1.47,2.48
12.343366861343384,-1.48,-0.86,-0.97,1.96
12.35333514213562,-1.12,-0.7,-0.71,1.49
12.363621950149536,-0.59,-0.6,-0.68,1.08
12.373472929000854,-0.04,-0.57,-0.71,0.91
12.383833169937134,0.43,-0.59,-0.73,1.03
12.395003080368042,0.76,-0.67,-0.64,1.19
12.419686079025269,0.89,-0.9,-0.45,1.34
12.420590162277222,0.97,-1.35,-0.24,1.67
12.422944068908691,0.94,-1.9,-0.15,2.12
12.43337106704712,0.87,-2.43,-0.26,2.59
12.442931890487671,0.71,-2.86,-0.48,2.98
12.453330993652344,0.49,-3.23,-0.72,3.34
12.463571071624756,0.31,-3.55,-0.99,3.69
12.473250150680542,0.18,-3.66,-1.27,3.87
12.48426604270935,0.07,-3.6,-1.49,3.89
12.495299100875854,0.13,-3.5,-1.6,3.85
12.521052122116089,0.24,-3.22,-1.57,3.59
12.522332906723022,0.26,-2.66,-1.28,2.96
12.523266077041626,0.22,-2.05,-0.78,2.2
12.533269166946411,0.13,-1.42,-0.18,1.43
12.543061017990112,-0.09,-0.67,0.45,0.81
12.55296802520752,-0.3,0.12,1.19,1.23
12.562904119491577,-0.34,0.84,1.94,2.14
12.573293924331665,-0.29,1.43,2.57,2.95
12.583325147628784,-0.34,2.14,2.83,3.56
12.593568086624146,-0.36,2.75,2.74,3.89
12.607939958572388,-0.37,2.99,2.52,3.92
12.618160963058472,-0.46,2.98,2.41,3.86
12.62277603149414,-0.69,2.84,2.43,3.8
12.63349986076355,-0.7,2.5,2.34,3.49
12.643033981323242,-0.51,2.2,2.15,3.11
12.653013944625854,-0.24,1.98,1.87,2.73
12.663370847702026,0.02,1.62,1.76,2.39
12.673218965530396,0.22,1.17,1.91,2.25
12.683345079421997,0.46,1.01,1.87,2.17
12.694674968719482,0.85,1.36,1.34,2.08
12.722262144088745,1.23,1.98,0.33,2.35
12.72315502166748,1.4,2.54,-0.85,3.02
12.724086999893188,1.41,2.66,-1.94,3.58
12.732889890670776,1.53,2.66,-2.62,4.03
12.743286848068237,1.83,2.59,-2.55,4.06
12.752879858016968,2.1,2.06,-1.8,3.44
12.763223886489868,2.19,1.26,-1.09,2.75
12.773045063018799,2.28,0.69,-0.98,2.57
12.78309416770935,2.54,-0.23,-1.07,2.76
12.795399904251099,2.02,-0.48,-1.17,2.38
12.818576097488403,1.89,-0.77,-1.18,2.35
12.8195321559906,1.53,-0.68,-0.81,1.85
12.822230100631714,1.18,-0.56,-0.3,1.34
12.832988977432251,0.74,-0.49,-0.03,0.88
12.843626976013184,0.23,-0.48,-0.06,0.53
12.852604150772095,-0.27,-0.59,-0.28,0.7
12.863141059875488,-0.59,-0.73,-0.53,1.07
12.873717069625854,-0.78,-0.95,-0.77,1.45
12.883892059326172,-0.9,-1.29,-1.04,1.88
12.896077871322632,-1.0,-1.64,-1.33,2.33
12.921472072601318,-0.96,-2.16,-1.46,2.77
12.922374963760376,-0.86,-2.66,-1.39,3.12
12.923239946365356,-0.77,-3.06,-1.2,3.37
12.93274188041687,-0.65,-3.4,-1.0,3.6
12.943840026855469,-0.53,-3.7,-0.78,3.81
12.952667951583862,-0.37,-3.94,-0.54,3.99
12.962854146957397,-0.24,-4.08,-0.31,4.09
12.972882986068726,-0.12,-4.05,-0.24,4.05
12.983668088912964,-0.08,-3.86,-0.29,3.87
12.995925188064575,-0.11,-3.55,-0.41,3.57
13.019137144088745,-0.13,-3.16,-0.53,3.2
13.020012140274048,-0.07,-2.65,-0.44,2.68
13.021874189376831,0.12,-1.99,-0.04,1.99
13.032785177230835,0.37,-1.23,0.41,1.34
13.043866872787476,0.72,-0.35,0.66,1.03
13.05255913734436,1.06,0.64,0.75,1.44
13.062450170516968,1.25,1.63,1.01,2.28
13.072543859481812,1.21,2.46,1.57,3.15
13.082832098007202,1.09,3.03,2.09,3.83
13.095628023147583,1.08,3.44,2.36,4.3
13.122008085250854,1.22,3.69,2.31,4.52
13.122987031936646,1.41,3.77,2.2,4.58
13.123846054077148,1.51,3.71,2.29,4.61
13.132829904556274,1.36,3.41,2.52,4.45
13.143867015838623,0.73,2.94,2.68,4.04
13.152859926223755,-0.16,2.58,2.57,3.64
13.16287899017334,-0.91,2.43,2.18,3.38
13.172581911087036,-1.56,2.57,1.42,3.32
13.18284797668457,-1.95,2.84,0.64,3.5
13.195116996765137,-2.17,2.95,-0.01,3.66
13.20712685585022,-2.39,3.04,-0.89,3.96
13.218796968460083,-2.23,3.13,-1.86,4.26
13.221940994262695,-1.95,2.9,-2.25,4.15
13.232617139816284,-1.7,2.13,-2.24,3.52
13.242170095443726,-1.41,1.16,-2.03,2.73
13.252888917922974,-1.37,0.41,-1.76,2.26
13.262727975845337,-1.48,-0.08,-1.69,2.24
13.273176908493042,-1.64,-0.42,-1.63,2.35
13.28353500366211,-1.85,-0.59,-1.34,2.35
13.293330907821655,-1.93,-0.81,-0.89,2.27
13.31013798713684,-1.8,-1.11,-0.63,2.2
13.324156045913696,-1.62,-1.34,-0.83,2.26
13.325163125991821,-1.41,-1.28,-1.09,2.19
13.332262992858887,-0.98,-1.12,-1.06,1.82
13.342107057571411,-0.42,-1.06,-0.75,1.36
13.352976083755493,0.05,-1.08,-0.45,1.17
13.362627029418945,0.42,-1.24,-0.29,1.34
13.372638940811157,0.44,-1.36,-0.26,1.45
13.382668018341064,0.39,-1.62,-0.3,1.69
13.393373012542725,0.39,-1.97,-0.41,2.04
13.406720876693726,0.39,-2.34,-0.52,2.42
13.41993498802185,0.34,-2.65,-0.62,2.74
13.42162799835205,0.28,-2.95,-0.7,3.04
13.43248200416565,0.23,-3.26,-0.81,3.36
13.442012071609497,0.14,-3.48,-0.96,3.61
13.452525854110718,0.08,-3.53,-1.18,3.72
13.462645053863525,0.01,-3.46,-1.33,3.7
13.472257852554321,-0.05,-3.3,-1.31,3.55
13.483419179916382,-0.08,-3.05,-1.05,3.22
13.493185043334961,-0.12,-2.61,-0.66,2.69
13.510518074035645,-0.14,-1.99,-0.22,2.0
13.525045156478882,-0.21,-1.26,0.42,1.34
13.527494192123413,-0.23,-0.35,1.07,1.14
13.531883001327515,-0.24,0.7,1.62,1.78
13.541714906692505,-0.31,1.77,2.08,2.74
13.55231499671936,-0.32,2.83,2.25,3.62
13.562145948410034,-0.32,3.68,2.08,4.23
13.572119951248169,-0.39,4.05,1.93,4.5
13.58234190940857,-0.54,3.84,2.01,4.36
13.592931985855103,-0.65,3.33,2.3,4.09
13.607340097427368,-0.61,2.83,2.71,3.96
13.620656967163086,-0.35,2.31,3.04,3.83
13.621572017669678,0.01,1.68,2.98,3.42
13.631829023361206,0.26,1.13,2.6,2.84
13.641751050949097,0.35,0.93,2.16,2.37
13.652840852737427,0.52,1.41,1.65,2.23
13.662428140640259,0.89,2.44,0.83,2.72
13.673009157180786,0.99,3.36,-0.23,3.51
13.682610034942627,0.92,3.75,-1.36,4.09
13.692825078964233,0.93,3.74,-2.3,4.48
13.709994077682495,1.13,3.37,-2.51,4.35
13.723648071289062,1.41,2.58,-2.0,3.55
13.724570989608765,1.69,1.5,-1.31,2.61
13.732141017913818,2.02,0.5,-1.06,2.33
13.741571187973022,2.48,-0.6,-1.19,2.81
13.752562999725342,2.21,-0.7,-1.63,2.83
13.76273512840271,2.15,-0.9,-1.71,2.89
13.772739171981812,1.81,-0.79,-1.09,2.25
13.782974004745483,1.33,-0.69,-0.38,1.54
13.792710065841675,0.68,-0.58,-0.17,0.9
13.809813976287842,0.07,-0.5,-0.48,0.69
13.822890996932983,-0.38,-0.62,-0.91,1.16
13.823796033859253,-0.77,-0.86,-1.18,1.65
13.83204698562622,-1.09,-1.24,-1.36,2.13
13.841336965560913,-1.25,-1.8,-1.55,2.68
13.85245394706726,-1.26,-2.44,-1.82,3.29
13.862487077713013,-1.1,-3.0,-1.96,3.74
13.87194299697876,-0.9,-3.38,-1.9,3.98
13.882858037948608,-0.65,-3.59,-1.63,3.99
13.892639875411987,-0.45,-3.79,-1.08,3.96
13.909323930740356,-0.28,-4.04,-0.5,4.08
13.921633005142212,-0.11,-4.09,-0.21,4.09
13.922560930252075,0.0,-3.98,-0.14,3.98
13.93145489692688,-0.02,-3.83,-0.14,3.83
13.941269159317017,-0.11,-3.54,-0.17,3.54
13.952368974685669,-0.2,-3.1,-0.21,3.11
13.962825059890747,-0.23,-2.58,-0.21,2.59
13.971751928329468,-0.12,-1.95,-0.07,1.95
13.982858896255493,0.11,-1.22,0.08,1.22
13.992573976516724,0.49,-0.35,0.15,0.62
14.009252071380615,0.88,0.54,0.33,1.08
14.021893978118896,1.18,1.26,0.63,1.83
14.02279806137085,1.36,1.87,0.99,2.51
14.031622171401978,1.38,2.34,1.47,3.08
14.041115999221802,1.4,2.57,1.89,3.48
14.051926851272583,1.35,2.52,2.06,3.52
14.063041925430298,1.24,2.45,1.97,3.37
14.071744203567505,1.23,2.43,1.95,3.34
14.08147406578064,1.16,2.43,2.19,3.47
14.092432975769043,0.93,2.34,2.57,3.59
14.109135866165161,0.44,2.06,2.66,3.39
14.12103009223938,-0.28,1.79,2.38,2.99
14.121937036514282,-1.04,1.72,1.9,2.76
14.131165981292725,-1.69,1.95,1.51,2.98
14.14099407196045,-2.09,2.69,1.02,3.55
14.151981115341187,-2.15,3.13,0.62,3.84
14.163060903549194,-2.15,3.16,-0.06,3.82
14.172368049621582,-1.98,3.24,-1.22,3.98
14.182589054107666,-1.59,3.22,-2.12,4.17
14.192296981811523,-1.23,2.75,-2.25,3.76
14.209434986114502,-0.99,1.86,-1.83,2.79
14.220409154891968,-0.93,0.89,-1.12,1.7
14.221309900283813,-1.0,0.16,-0.62,1.18
14.231016874313354,-1.22,-0.34,-0.46,1.34
14.240933179855347,-1.4,-0.67,-0.43,1.61
14.251426935195923,-1.56,-0.78,-0.48,1.8
14.263504028320312,-1.7,-0.72,-0.62,1.94
14.271083116531372,-1.7,-0.68,-0.77,1.98
14.281511068344116,-1.57,-0.62,-0.94,1.93
14.292136907577515,-1.28,-0.51,-1.12,1.77
14.308848142623901,-0.83,-0.5,-1.32,1.63
14.325172185897827,-0.39,-0.57,-1.45,1.6
14.326333045959473,0.09,-0.47,-1.35,1.43
14.330785036087036,0.42,-0.81,-1.0,1.35
14.340939044952393,0.61,-1.4,-0.58,1.63
14.35171103477478,0.71,-1.91,-0.25,2.05
14.361234903335571,0.73,-2.37,-0.2,2.48
14.372222185134888,0.65,-2.74,-0.31,2.83
14.381420850753784,0.59,-3.08,-0.45,3.16
14.392102003097534,0.48,-3.34,-0.67,3.44
14.409121036529541,0.32,-3.49,-0.9,3.61
14.411823987960815,0.21,-3.52,-1.09,3.69
14.42748498916626,0.09,-3.49,-1.26,3.71
14.430712938308716,-0.01,-3.35,-1.34,3.6
14.440726041793823,-0.12,-3.17,-1.15,3.37
14.451622009277344,-0.25,-2.92,-0.68,3.0
14.460932970046997,-0.41,-2.54,-0.14,2.57
14.47212815284729,-0.49,-1.91,0.27,1.99
14.482123136520386,-0.5,-0.98,0.6,1.25
14.49173903465271,-0.37,0.05,1.05,1.11
14.508885145187378,-0.23,1.02,1.54,1.86
14.511867046356201,-0.18,1.99,2.04,2.85
14.52479100227356,-0.16,2.81,2.47,3.74
14.530533075332642,-0.22,3.2,2.67,4.17
14.540762186050415,-0.26,3.29,2.76,4.3
14.55094313621521,-0.38,3.21,2.76,4.25
14.561140060424805,-0.54,3.05,2.71,4.11
14.570898056030273,-0.54,2.84,2.63,3.9
14.581865072250366,-0.48,2.49,2.42,3.5
14.591697931289673,-0.4,2.02,2.2,3.01
14.608581066131592,-0.38,1.7,2.12,2.74
14.611696004867554,-0.17,1.96,1.76,2.63
14.625789880752563,0.16,2.65,1.16,2.89
14.630761861801147,0.5,3.29,0.22,3.33
14.6406729221344,0.68,3.68,-0.76,3.81
14.651169061660767,0.75,3.7,-1.65,4.12
14.660981893539429,0.94,3.24,-2.29,4.07
14.670951128005981,1.46,2.36,-2.31,3.61
14.68100905418396,1.91,1.34,-1.79,2.94
14.691016912460327,2.23,0.39,-1.12,2.52
14.705491065979004,2.47,-0.35,-0.91,2.65
14.710782051086426,2.46,-0.78,-1.42,2.94
14.72234296798706,2.28,-0.94,-1.94,3.13
14.73034119606018,1.96,-0.72,-1.85,2.78
14.740565061569214,1.54,-0.51,-1.38,2.12
14.750840902328491,1.04,-0.44,-0.95,1.47
14.760923147201538,0.47,-0.42,-0.8,1.01
14.770908117294312,-0.05,-0.52,-0.78,0.93
14.782397985458374,-0.47,-0.72,-0.82,1.18
14.791539907455444,-0.72,-1.0,-0.98,1.57
14.808560132980347,-0.86,-1.37,-1.13,1.97
14.811323881149292,-1.02,-1.84,-1.21,2.42
14.823503971099854,-0.72,-1.66,-1.39,2.28
14.830374002456665,-1.13,-2.77,-1.52,3.35
14.840637922286987,-1.01,-3.6,-1.37,3.98
14.850764036178589,-0.92,-4.02,-1.15,4.28
14.860758066177368,-0.7,-3.91,-0.88,4.06
14.870754957199097,-0.4,-3.52,-0.58,3.58
14.88145899772644,-0.27,-3.42,-0.28,3.44
14.891453981399536,-0.13,-3.35,-0.14,3.35
14.908539056777954,-0.01,-3.15,-0.13,3.15
14.91057801246643,0.0,-2.9,-0.15,2.9
14.923171997070312,-0.06,-2.75,-0.17,2.75
14.930585145950317,-0.1,-2.55,-0.26,2.56
14.940783977508545,-0.05,-2.21,-0.3,2.23
14.950669050216675,0.09,-1.78,-0.21,1.79
14.96067214012146,0.32,-1.18,0.02,1.22
14.970759153366089,0.63,-0.42,0.28,0.8
14.982182025909424,0.95,0.46,0.5,1.16
14.991276025772095,1.26,1.32,0.86,2.01
15.008147954940796,1.37,2.04,1.45,2.85
15.011466026306152,1.33,2.48,1.91,3.4
15.024418115615845,1.23,2.65,1.9,3.48
15.030725002288818,1.15,2.71,1.84,3.47
15.040629148483276,1.12,2.78,2.05,3.63
15.050809144973755,1.11,2.97,2.45,4.0
15.061229944229126,0.98,3.03,2.8,4.24
15.070520162582397,0.64,2.75,2.78,3.96
15.083379983901978,0.04,2.39,2.53,3.48
15.091291189193726,-0.66,2.34,2.2,3.27
15.107167959213257,-1.14,2.45,1.73,3.2
15.110450983047485,-1.64,2.73,1.01,3.34
15.122781038284302,-2.02,2.85,0.03,3.49
15.13076400756836,-2.18,2.66,-0.52,3.47
15.140213966369629,-2.18,2.44,-1.02,3.42
15.150264024734497,-1.98,2.32,-1.4,3.35
15.16019892692566,-1.67,2.2,-1.2,3.01
15.17047905921936,-1.27,1.97,-0.71,2.44
15.182419061660767,-1.04,1.51,-0.18,1.84
15.190900087356567,-1.04,1.14,-0.16,1.55
15.207166910171509,-1.14,0.83,-0.8,1.62
15.210167169570923,-1.32,0.55,-1.51,2.07
15.223051071166992,-1.41,0.38,-1.86,2.36
15.230668067932129,-1.44,0.26,-1.78,2.3
15.240381002426147,-1.32,0.09,-1.5,2.0
15.250033140182495,-1.07,-0.1,-1.27,1.66
15.260339975357056,-0.72,-0.24,-1.07,1.31
15.270426988601685,-0.32,-0.41,-0.82,0.97
15.283586978912354,0.11,-0.65,-0.66,0.93
15.291125059127808,0.47,-0.98,-0.61,1.24
15.306375980377197,0.64,-1.34,-0.63,1.61
15.310259103775024,0.65,-1.75,-0.64,1.97
15.323700189590454,0.58,-2.2,-0.66,2.36
15.330957174301147,0.49,-2.66,-0.68,2.78
15.340280055999756,0.38,-3.06,-0.72,3.16
15.350000143051147,0.29,-3.41,-0.83,3.52
15.360212087631226,0.18,-3.7,-1.06,3.85
15.370324850082397,0.13,-3.81,-1.23,4.0
15.38344407081604,0.1,-3.8,-1.32,4.02
15.390925168991089,0.09,-3.73,-1.36,3.97
15.406113862991333,0.05,-3.48,-1.37,3.74
15.410104990005493,-0.07,-3.07,-1.4,3.37
15.424062013626099,-0.24,-2.59,-1.32,2.91
15.429624080657959,-0.34,-2.09,-0.99,2.33
15.440085172653198,-0.4,-1.52,-0.48,1.64
15.449926137924194,-0.48,-0.8,0.16,0.94
15.460150003433228,-0.49,-0.03,0.9,1.02
15.470101118087769,-0.48,0.79,1.68,1.91
15.480910062789917,-0.37,1.77,2.19,2.84
15.490839004516602,-0.41,2.52,2.44,3.53
15.507045030593872,-0.19,3.21,2.43,4.03
15.509347200393677,-0.1,3.45,2.37,4.18
15.522592067718506,-0.1,3.3,2.42,4.09
15.529340982437134,-0.24,3.12,2.68,4.12
15.540101051330566,-0.31,2.96,2.71,4.02
15.549742937088013,-0.16,2.74,2.52,3.72
15.560094118118286,0.04,2.35,2.39,3.35
15.570010900497437,0.19,1.7,2.31,2.87
15.579853057861328,0.25,0.96,2.07,2.29
15.590859174728394,0.31,0.4,1.69,1.76
15.605072975158691,0.52,0.34,1.01,1.18
15.609782934188843,0.62,0.8,-0.13,1.02
15.624176979064941,0.61,1.48,-1.55,2.22
15.629481077194214,0.49,2.13,-2.55,3.35
15.640164136886597,0.36,2.48,-2.67,3.66
15.649551153182983,0.71,2.41,-2.13,3.29
15.659827947616577,1.45,2.19,-1.17,2.87
15.669949054718018,2.23,1.99,-0.2,2.99
15.679825067520142,2.66,1.73,0.25,3.18
15.690754175186157,3.2,1.22,0.13,3.42
15.70665192604065,3.19,0.99,-0.47,3.37
15.709609031677246,2.87,0.7,-1.36,3.25
15.724509954452515,2.52,0.53,-1.72,3.09
15.729007959365845,1.89,0.52,-1.4,2.4
15.740015029907227,1.25,0.33,-0.88,1.56
15.749429941177368,0.54,-0.03,-0.68,0.86
15.759956121444702,-0.08,-0.42,-0.8,0.9
15.769827127456665,-0.56,-0.87,-0.95,1.4
15.780644178390503,-0.95,-1.42,-1.15,2.05
15.790571928024292,-1.28,-1.98,-1.47,2.77
15.805440187454224,-1.52,-2.48,-1.67,3.35
15.809499025344849,-1.54,-2.86,-1.74,3.68
15.824738025665283,-1.4,-3.13,-1.69,3.82
15.829246044158936,-1.23,-3.33,-1.51,3.85
15.83989405632019,-0.97,-3.54,-1.21,3.86
15.84994387626648,-0.7,-3.73,-0.89,3.89
15.859989881515503,-0.48,-3.85,-0.61,3.92
15.869709014892578,-0.27,-3.87,-0.4,3.89
15.880228996276855,-0.13,-3.8,-0.33,3.81
15.890444993972778,-0.04,-3.65,-0.34,3.66
15.907056093215942,-0.01,-3.34,-0.33,3.35
15.90955901145935,0.01,-3.04,-0.39,3.06
15.925459146499634,0.12,-2.7,-0.45,2.73
15.928622007369995,0.33,-2.32,-0.45,2.38
15.93996787071228,0.51,-1.94,-0.34,2.03
15.949615001678467,0.74,-1.42,-0.25,1.62
15.959673166275024,0.94,-0.81,-0.07,1.24
15.969555139541626,1.09,0.0,0.26,1.12
15.980004072189331,1.12,0.77,0.63,1.49
15.990530967712402,0.93,1.54,1.15,2.13
16.005722045898438,0.8,2.13,1.76,2.87
16.009456872940063,0.69,2.5,2.2,3.4
16.025171995162964,0.66,2.82,2.43,3.78
16.02864384651184,0.82,3.2,2.6,4.2
16.039721965789795,1.09,3.46,2.91,4.65
16.04991888999939,1.15,3.58,3.29,4.99
16.059561014175415,1.08,3.54,3.52,5.1
16.069519996643066,0.64,3.35,3.51,4.89
16.080262899398804,-0.11,3.04,3.03,4.29
16.089378118515015,-0.77,2.75,2.16,3.58
16.10812211036682,-1.59,2.45,1.14,3.13
16.10926103591919,-2.17,2.32,-0.19,3.18
16.124332189559937,-2.42,2.25,-1.25,3.53
16.128498077392578,-2.52,2.05,-1.76,3.69
16.139704942703247,-2.45,1.94,-2.08,3.75
16.149527072906494,-2.18,1.96,-2.09,3.6
16.159621953964233,-1.84,1.99,-1.72,3.21
16.17044186592102,-1.43,1.87,-1.24,2.66
16.18014907836914,-1.15,1.57,-0.83,2.11
16.19019103050232,-1.06,1.18,-0.76,1.75
16.208198070526123,-1.13,0.66,-0.96,1.62
16.209622144699097,-1.31,0.28,-1.25,1.83
16.224184036254883,-1.41,-0.06,-1.36,1.95
16.22856593132019,-1.44,-0.33,-1.24,1.92
16.23932194709778,-1.35,-0.64,-1.09,1.84
16.249830961227417,-1.06,-0.8,-1.0,1.66
16.259613037109375,-0.66,-0.81,-1.02,1.46
16.26923394203186,-0.18,-0.88,-1.04,1.37
16.279996156692505,0.31,-1.04,-0.99,1.46
16.289424180984497,0.67,-1.24,-0.91,1.67
16.3071391582489,0.89,-1.49,-0.78,1.9
16.309030055999756,0.87,-1.81,-0.63,2.1
16.325030088424683,0.76,-2.12,-0.54,2.31
16.328288078308105,0.6,-2.35,-0.54,2.48
16.339254140853882,0.45,-2.53,-0.63,2.64
16.350043058395386,0.27,-2.75,-0.77,2.86
16.358938932418823,0.11,-3.0,-0.92,3.13
16.369086980819702,-0.03,-3.18,-1.12,3.37
16.379796981811523,-0.11,-3.26,-1.36,3.53
16.389708042144775,-0.11,-3.22,-1.56,3.57
16.4083731174469,-0.13,-3.08,-1.62,3.48
16.410008192062378,-0.15,-2.88,-1.53,3.26
16.424970865249634,-0.19,-2.62,-1.17,2.87
16.428375959396362,-0.2,-2.29,-0.7,2.4
16.439088106155396,-0.17,-1.82,-0.19,1.83
16.4503390789032,-0.14,-1.17,0.29,1.21
16.458770036697388,-0.21,-0.47,0.75,0.9
16.468971967697144,-0.26,0.26,1.19,1.24
16.47881817817688,-0.35,1.07,1.62,1.97
16.489965200424194,-0.43,1.78,2.0,2.71
16.517247915267944,-0.41,2.29,2.26,3.24
16.518139123916626,-0.45,2.64,2.42,3.6
16.518990993499756,-0.55,2.78,2.67,3.89
16.527935028076172,-0.64,2.78,3.08,4.19
16.53896689414978,-0.65,2.69,3.43,4.4
16.548793077468872,-0.53,2.55,3.52,4.37
16.559120893478394,-0.23,2.28,3.28,4.0
16.568915128707886,0.01,1.91,2.87,3.44
16.579280138015747,0.04,1.53,2.46,2.89
16.588907957077026,0.05,1.44,2.05,2.5
16.613277196884155,0.15,1.68,1.36,2.16
16.614201068878174,0.27,2.08,0.22,2.1
16.618292093276978,0.45,2.46,-1.01,2.69
16.628164052963257,0.28,2.59,-1.92,3.23
16.63875699043274,0.1,2.4,-2.5,3.46
16.648488998413086,0.3,2.08,-2.68,3.4
16.658915042877197,0.7,1.61,-2.34,2.92
16.668874979019165,1.27,1.15,-1.69,2.4
16.679546117782593,1.92,0.66,-0.94,2.23
16.68966507911682,2.47,0.17,-0.6,2.54
16.715784072875977,2.66,-0.14,-0.75,2.76
16.716662168502808,2.67,-0.26,-1.2,2.93
16.718014001846313,2.46,-0.27,-1.22,2.75
16.728080987930298,2.02,-0.1,-0.68,2.13
16.738646984100342,1.45,0.09,-0.09,1.45
16.748651027679443,0.84,0.23,0.15,0.88
16.759042024612427,0.29,0.34,-0.05,0.44
16.769360065460205,-0.22,0.26,-0.43,0.54
16.779366970062256,-0.65,-0.07,-0.9,1.11
16.789578199386597,-1.03,-0.6,-1.43,1.86
16.81792712211609,-1.33,-1.28,-1.85,2.61
16.818994998931885,-1.44,-1.99,-2.09,3.22
16.819877862930298,-1.45,-2.61,-2.04,3.61
16.828095197677612,-1.31,-3.09,-1.79,3.8
16.838576078414917,-1.02,-3.43,-1.44,3.85
16.84834313392639,-0.79,-3.69,-1.05,3.91
16.859163999557495,-0.58,-3.9,-0.67,3.99
16.869863033294678,-0.35,-4.02,-0.4,4.05
16.87927794456482,-0.21,-4.04,-0.31,4.05
16.889379024505615,-0.02,-3.98,-0.38,3.99
16.916758060455322,0.0,-3.79,-0.55,3.82
16.917680978775024,0.1,-3.59,-0.63,3.64
16.91855001449585,0.25,-3.29,-0.69,3.37
16.927910089492798,0.37,-2.89,-0.71,2.99
16.938426971435547,0.54,-2.34,-0.79,2.52
16.948566198349,0.7,-1.75,-0.6,1.97
16.95910406112671,0.87,-1.02,-0.14,1.34
16.969176054000854,1.14,-0.2,0.47,1.24
16.97929310798645,1.28,0.71,1.03,1.78
16.98927402496338,1.46,1.61,1.47,2.62
17.01556897163391,1.57,2.39,1.91,3.43
17.01817297935486,1.68,2.98,2.13,4.02
17.019001007080078,1.78,3.49,2.19,4.48
17.027822971343994,1.82,3.94,2.21,4.87
17.03808903694153,1.81,4.16,2.36,5.11
17.04798698425293,1.55,4.02,2.73,5.1
17.058117151260376,1.19,3.57,3.0,4.81
17.069217920303345,0.63,2.99,2.79,4.13
17.078109979629517,-0.11,2.53,2.3,3.42
17.088211059570312,-0.81,2.27,1.75,2.97
17.115766048431396,-1.39,2.23,1.32,2.94
17.11843204498291,-1.78,2.39,0.6,3.03
17.119354009628296,-1.88,2.44,-0.14,3.08
17.12774109840393,-1.86,2.28,-0.71,3.02
17.13823914527893,-1.76,2.22,-1.41,3.16
17.147914171218872,-1.4,2.18,-1.87,3.19
17.1582190990448,-0.96,1.96,-1.73,2.78
17.169437170028687,-0.73,1.47,-1.19,2.02
17.178062200546265,-0.72,0.84,-0.52,1.22
17.189019918441772,-0.83,0.31,-0.16,0.9
17.216794967651367,-1.0,-0.04,-0.29,1.04
17.219305992126465,-1.2,-0.27,-0.66,1.39
17.22028613090515,-1.47,-0.39,-1.01,1.82
17.227591037750244,-1.6,-0.38,-1.3,2.09
17.23809313774109,-1.64,-0.3,-1.4,2.17
17.247591972351074,-1.5,-0.24,-1.44,2.09
17.258166074752808,-1.32,-0.3,-1.31,1.88
17.26966118812561,-0.96,-0.42,-1.15,1.55
17.27815318107605,-0.48,-0.65,-1.01,1.29
17.28843903541565,-0.03,-0.84,-0.84,1.18
17.315787076950073,0.31,-1.05,-0.63,1.26
17.318161010742188,0.55,-1.33,-0.42,1.49
17.3191339969635,0.79,-1.66,-0.28,1.85
17.32740807533264,0.91,-1.99,-0.22,2.19
17.337828874588013,0.93,-2.26,-0.27,2.45
17.347907066345215,0.86,-2.52,-0.44,2.69
17.35809016227722,0.75,-2.79,-0.6,2.95
17.369735956192017,0.57,-3.03,-0.83,3.19
17.377837896347046,0.39,-3.2,-1.06,3.39
17.389039993286133,0.23,-3.27,-1.21,3.49
17.417927026748657,0.12,-3.31,-1.34,3.57
17.418812036514282,0.02,-3.25,-1.34,3.51
17.419726133346558,-0.15,-3.04,-1.23,3.28
17.427469968795776,-0.31,-2.72,-0.93,2.89
17.437741994857788,-0.4,-2.3,-0.47,2.38
17.447860956192017,-0.48,-1.74,0.02,1.8
17.458264112472534,-0.52,-1.0,0.41,1.19
17.47133207321167,-0.53,-0.13,0.83,0.99
17.478657007217407,-0.54,0.78,1.25,1.56
17.48784613609314,-0.58,1.74,1.58,2.42
17.51502013206482,-0.64,2.62,1.83,3.25
17.515945196151733,-0.72,3.2,2.02,3.85
17.517096996307373,-0.81,3.38,2.15,4.08
17.5274760723114,-0.95,3.28,2.28,4.1
17.537594079971313,-1.08,3.06,2.4,4.03
17.54746699333191,-1.06,2.75,2.46,3.83
17.557790994644165,-0.96,2.44,2.47,3.6
17.567786931991577,-0.81,2.02,2.51,3.32
17.577831029891968,-0.56,1.56,2.44,2.94
17.587948083877563,-0.37,1.17,2.31,2.61
17.613267183303833,-0.21,0.95,2.08,2.29
17.614181995391846,0.02,1.04,1.55,1.86
17.61704707145691,0.32,1.24,0.84,1.53
17.62761402130127,0.45,1.5,-0.15,1.57
17.63733696937561,0.36,1.76,-1.1,2.1
17.647814989089966,0.39,1.9,-1.86,2.68
17.657757997512817,0.65,1.91,-2.29,3.05
17.667431116104126,1.05,1.72,-2.12,2.92
17.67769503593445,1.44,1.28,-1.5,2.44
17.68833088874817,1.97,0.7,-0.9,2.27
17.716275930404663,2.47,0.17,-0.68,2.56
17.71726107597351,2.64,-0.05,-0.81,2.76
17.719654083251953,2.36,0.01,-1.38,2.73
17.727020978927612,2.16,-0.03,-1.68,2.73
17.737231016159058,1.8,-0.01,-1.27,2.2
17.747103929519653,1.31,0.0,-0.65,1.46
17.757550954818726,0.73,0.01,-0.18,0.75
17.76847505569458,0.15,-0.07,0.03,0.16
17.778563976287842,-0.28,-0.26,-0.11,0.39
17.789180994033813,-0.63,-0.5,-0.51,0.95
17.814177989959717,-0.97,-0.81,-0.84,1.51
17.815114974975586,-1.22,-1.32,-1.1,2.1
17.816713094711304,-1.33,-1.94,-1.37,2.72
17.827516078948975,-1.25,-2.46,-1.44,3.11
17.8371000289917,-1.08,-2.8,-1.21,3.23
17.847043991088867,-0.83,-3.07,-0.81,3.28
17.857153177261353,-0.59,-3.28,-0.49,3.36
17.867395162582397,-0.32,-3.42,-0.34,3.45
17.877400159835815,-0.14,-3.5,-0.34,3.51
17.88861584663391,0.07,-3.58,-0.35,3.59
17.91443705558777,0.16,-3.58,-0.42,3.6
17.91535496711731,0.17,-3.49,-0.6,3.54
17.91656517982483,0.16,-3.43,-0.78,3.52
17.9275381565094,0.17,-3.31,-0.96,3.45
17.937088012695312,0.27,-3.13,-0.85,3.25
17.94757604598999,0.47,-2.82,-0.4,2.88
17.957317113876343,0.73,-2.39,0.17,2.5
17.96822190284729,1.07,-1.68,0.59,2.07
17.97829508781433,1.35,-0.75,0.89,1.78
17.989490032196045,1.42,0.39,1.13,1.85
18.01406502723694,1.31,1.51,1.35,2.41
18.014976978302002,1.11,2.42,1.42,3.01
18.016589879989624,1.0,3.0,1.25,3.4
18.027379989624023,1.08,3.29,1.01,3.6
18.037266969680786,1.19,3.36,0.96,3.69
18.047415018081665,1.28,3.35,1.19,3.77
18.05722689628601,1.35,3.37,1.71,4.01
18.067161083221436,1.27,3.22,2.44,4.23
18.078144073486328,0.97,2.95,3.11,4.39
18.089632987976074,0.47,2.72,3.29,4.29
18.113301992416382,-0.17,2.59,2.9,3.89
18.11421513557434,-0.89,2.69,2.05,3.49
18.11650800704956,-1.54,2.95,0.98,3.46
18.127052068710327,-1.87,3.12,0.12,3.63
18.13766598701477,-1.83,3.03,-0.33,3.55
18.146924018859863,-1.59,2.89,-0.67,3.36
18.15709400177002,-1.14,2.63,-1.0,3.03
18.167176008224487,-0.74,2.08,-1.23,2.52
18.177336931228638,-0.49,1.33,-1.31,1.93
18.189661026000977,-0.51,0.73,-1.16,1.46
18.20127511024475,-0.69,0.43,-0.83,1.16
18.21154808998108,-1.02,0.19,-0.45,1.13
18.216341018676758,-1.47,-0.04,-0.33,1.5
18.226803064346313,-1.83,-0.16,-0.57,1.92
18.238079071044922,-2.03,-0.35,-1.09,2.33
18.246906995773315,-2.04,-0.51,-1.63,2.66
18.256693124771118,-1.98,-0.66,-1.81,2.76
18.267022848129272,-1.67,-0.8,-1.58,2.43
18.277036905288696,-1.2,-0.86,-1.21,1.9
18.29046106338501,-0.67,-0.9,-0.87,1.41
18.313261032104492,-0.09,-0.94,-0.67,1.15
18.314288854599,0.42,-1.0,-0.65,1.26
18.316424131393433,0.72,-1.11,-0.62,1.46
18.327070951461792,0.89,-1.36,-0.59,1.72
18.338165044784546,0.97,-1.69,-0.68,2.06
18.34706997871399,0.95,-1.97,-0.76,2.31
18.35707116127014,0.76,-2.36,-0.74,2.58
18.366904973983765,0.54,-2.8,-0.73,2.94
18.377054929733276,0.28,-3.13,-0.87,3.26
18.38962197303772,0.08,-3.32,-1.09,3.49
18.402485132217407,-0.08,-3.33,-1.21,3.54
18.413152933120728,-0.23,-3.18,-1.2,3.4
18.416180849075317,-0.28,-2.87,-1.17,3.11
18.426509141921997,-0.28,-2.44,-1.12,2.69
18.43822693824768,-0.24,-1.92,-0.98,2.16
18.446699857711792,-0.17,-1.36,-0.73,1.55
18.4564950466156,-0.11,-0.77,-0.4,0.87
18.466825008392334,-0.08,-0.19,-0.01,0.2
18.477513074874878,-0.06,0.36,0.43,0.56
18.490421056747437,-0.12,0.78,0.95,1.23
18.502214193344116,-0.09,1.05,1.47,1.8
18.51323390007019,0.05,1.29,1.82,2.23
18.51604700088501,0.15,1.57,1.97,2.52
18.526623010635376,0.14,1.88,1.97,2.72
18.536601066589355,0.12,2.03,1.92,2.79
18.546457052230835,0.11,1.97,2.04,2.83
18.556873083114624,0.09,1.82,2.42,3.02
18.56681203842163,0.07,1.61,2.57,3.03
18.57770800590515,0.06,1.34,2.26,2.62
18.587483167648315,-0.09,1.13,1.76,2.09
18.602495908737183,-0.18,1.1,1.4,1.78
18.613542079925537,-0.07,1.42,1.22,1.87
18.61621594429016,0.13,2.02,0.99,2.25
18.6263210773468,0.35,2.6,0.47,2.66
18.636415004730225,0.53,3.15,-0.2,3.2
18.646682024002075,0.79,3.52,-0.9,3.71
18.656543970108032,1.22,3.52,-1.52,4.02
18.666651010513306,1.67,2.98,-1.92,3.91
18.67669987678528,2.06,1.89,-1.89,3.37
18.687379121780396,2.38,0.76,-1.64,2.98
18.702816009521484,2.66,-0.04,-1.41,3.01
18.71470808982849,2.8,-0.29,-1.52,3.19
18.715781927108765,2.8,-0.32,-1.94,3.42
18.726325035095215,2.54,-0.21,-2.02,3.25
18.736314058303833,2.18,-0.15,-1.76,2.8
18.746514081954956,1.74,-0.27,-1.54,2.33
18.756016969680786,1.23,-0.32,-1.45,1.92
18.766466856002808,0.69,-0.27,-1.37,1.55
18.776473999023438,0.26,-0.17,-1.17,1.21
18.787320852279663,-0.09,-0.04,-0.95,0.95
18.8010151386261,-0.38,0.02,-0.89,0.96
18.814499139785767,-0.57,-0.13,-1.05,1.2
18.81567907333374,-0.65,-0.41,-1.29,1.5
18.825996160507202,-0.72,-0.74,-1.47,1.79
18.836289167404175,-0.74,-1.03,-1.55,2.0
18.846740007400513,-0.71,-1.28,-1.45,2.06
18.85667586326599,-0.6,-1.58,-1.21,2.07
18.866466999053955,-0.53,-1.85,-0.97,2.15
18.87650990486145,-0.39,-2.1,-0.77,2.27
18.88714098930359,-0.25,-2.34,-0.79,2.48
18.901994943618774,-0.17,-2.54,-0.95,2.71
18.91414499282837,-0.08,-2.7,-1.02,2.88
18.915652990341187,-0.12,-2.79,-0.97,2.95
18.92596411705017,-0.13,-2.88,-0.93,3.02
18.935894012451172,-0.13,-2.85,-0.98,3.01
18.94665789604187,-0.07,-2.7,-0.91,2.85
18.957138061523438,0.02,-2.44,-0.66,2.52
18.96634006500244,0.1,-2.05,-0.34,2.08
18.976356029510498,0.13,-1.49,-0.04,1.49
18.986220121383667,0.21,-0.87,0.17,0.91
19.000652074813843,0.29,-0.23,0.33,0.49
19.01502013206482,0.34,0.42,0.46,0.7
19.016000032424927,0.32,1.02,0.64,1.24
19.025655031204224,0.29,1.38,0.79,1.61
19.03593897819519,0.31,1.48,0.88,1.74
19.04621195793152,0.41,1.41,0.91,1.72
19.05735993385315,0.54,1.3,1.06,1.76
19.066314935684204,0.66,1.23,1.31,1.91
19.0761559009552,0.68,1.17,1.61,2.1
19.087306022644043,0.52,1.18,1.85,2.25
19.101129055023193,0.22,1.24,1.87,2.25
19.115143060684204,-0.22,1.38,1.66,2.16
19.11607599258423,-0.81,1.63,1.33,2.25
19.125970125198364,-1.4,2.11,0.81,2.65
19.135791063308716,-1.88,2.71,0.45,3.32
19.14673399925232,-2.16,3.33,0.46,3.99
19.157670974731445,-1.98,4.01,0.36,4.48
19.166027069091797,-1.59,4.45,-0.03,4.72
19.176163911819458,-1.28,4.32,-0.89,4.59
19.186832189559937,-0.88,3.58,-2.0,4.19
19.202131986618042,-0.56,2.4,-2.91,3.81
19.21634316444397,-0.52,1.05,-3.2,3.4
19.21727204322815,-0.68,0.04,-2.94,3.01
19.225351095199585,-0.89,-0.6,-2.26,2.5
19.23581290245056,-1.26,-1.02,-1.42,2.15
19.245965003967285,-1.53,-1.19,-0.91,2.14
19.257796049118042,-1.66,-1.17,-1.07,2.29
19.265825986862183,-1.7,-1.03,-1.63,2.57
19.27608895301819,-1.63,-0.84,-2.08,2.77
19.28704810142517,-1.47,-0.62,-2.2,2.71
19.30044913291931,-1.24,-0.35,-1.87,2.27
19.316421031951904,-0.91,-0.03,-1.4,1.67
19.317445993423462,-0.52,0.32,-0.98,1.15
19.32536005973816,-0.15,0.72,-0.64,0.97
19.335747957229614,0.13,0.97,-0.28,1.01
19.346090078353882,0.4,1.02,0.02,1.09
19.35801601409912,0.57,0.85,0.15,1.03
19.365767002105713,0.61,0.54,0.11,0.82
19.37611985206604,0.55,0.15,-0.13,0.58
19.386482000350952,0.45,-0.27,-0.43,0.67
19.40109086036682,0.33,-0.62,-0.65,0.95
19.405658960342407,0.16,-0.96,-0.72,1.21
19.416903018951416,0.05,-1.27,-0.79,1.49
19.425062894821167,-0.05,-1.49,-0.89,1.73
19.435317993164062,-0.13,-1.61,-0.96,1.87
19.445523977279663,-0.18,-1.64,-1.0,1.92
19.455816984176636,-0.17,-1.61,-1.01,1.9
19.465709924697876,-0.19,-1.52,-0.86,1.75
19.476595163345337,-0.21,-1.43,-0.66,1.58
19.486631155014038,-0.26,-1.31,-0.58,1.45
19.502779006958008,-0.3,-1.16,-0.59,1.33
19.50549292564392,-0.34,-1.02,-0.57,1.21
19.517969846725464,-0.35,-0.81,-0.45,0.99
19.525048971176147,-0.4,-0.57,-0.27,0.74
19.535377025604248,-0.43,-0.25,-0.1,0.5
19.54583191871643,-0.44,0.21,0.06,0.49
19.555661916732788,-0.41,0.62,0.24,0.78
19.565460920333862,-0.41,0.91,0.43,1.08
19.576675176620483,-0.38,1.05,0.53,1.23
19.58623194694519,-0.34,1.03,0.6,1.23
19.601579904556274,-0.31,0.9,0.67,1.16
19.60535216331482,-0.29,0.68,0.77,1.06
19.61753797531128,-0.24,0.44,0.88,1.01
19.624907970428467,-0.2,0.26,0.92,0.97
19.635194063186646,-0.23,0.17,0.97,1.01
19.64531707763672,-0.31,0.28,1.01,1.09
19.655449151992798,-0.35,0.76,1.1,1.38
19.665552854537964,-0.24,1.54,1.09,1.9
19.675461053848267,-0.13,2.28,0.9,2.45
19.686102151870728,0.02,2.92,0.46,2.95
19.70070195198059,0.24,3.42,-0.29,3.44
19.705232858657837,0.42,3.58,-1.13,3.77
19.716772079467773,0.48,3.12,-1.8,3.63
19.724754095077515,0.38,2.23,-2.19,3.14
19.735169172286987,0.29,1.18,-2.33,2.62
19.745110988616943,0.36,0.28,-2.25,2.29
19.75534415245056,0.64,-0.24,-2.12,2.22
19.765475034713745,0.93,-0.34,-2.1,2.32
19.776597023010254,0.98,-0.2,-2.19,2.4
19.786280870437622,0.79,-0.11,-2.18,2.32
19.802321195602417,0.53,-0.05,-1.95,2.02
19.80479097366333,0.27,0.11,-1.59,1.61
19.816231966018677,0.0,0.38,-1.24,1.29
19.824589014053345,-0.23,0.69,-0.95,1.19
19.83513617515564,-0.42,1.01,-0.75,1.32
19.845128059387207,-0.67,1.28,-0.66,1.58
19.85532307624817,-0.91,1.44,-0.73,1.85
19.86536717414856,-1.16,1.37,-1.01,2.05
19.87566113471985,-1.34,1.04,-1.38,2.18
19.88522696495056,-1.42,0.6,-1.72,2.3
19.90125608444214,-1.47,0.18,-1.85,2.36
19.904872179031372,-1.49,-0.2,-1.8,2.34
19.917475938796997,-1.45,-0.52,-1.61,2.22
19.924893140792847,-1.38,-0.75,-1.42,2.11
19.935184001922607,-1.32,-0.85,-1.29,2.03
19.944730043411255,-1.32,-0.9,-1.24,2.02
19.955034971237183,-1.32,-0.84,-1.37,2.07
19.96505093574524,-1.32,-0.76,-1.54,2.16
19.977357149124146,-1.31,-0.65,-1.64,2.19
19.98604702949524,-1.27,-0.47,-1.74,2.2
20.00281000137329,-1.21,-0.19,-1.83,2.2
20.00549006462097,-1.2,0.06,-1.9,2.24
20.01979899406433,-1.12,0.26,-1.9,2.22
20.025152921676636,-1.02,0.44,-1.83,2.14
20.034955978393555,-1.0,0.59,-1.67,2.03
20.0449640750885,-1.03,0.73,-1.57,2.01
20.055125951766968,-1.1,0.84,-1.63,2.13
20.065057039260864,-1.13,0.9,-1.69,2.22
20.078314065933228,-1.17,0.84,-1.65,2.19
20.08585500717163,-1.23,0.81,-1.55,2.13
20.09928607940674,-1.26,0.82,-1.52,2.13
20.10500407218933,-1.31,0.86,-1.5,2.16
20.118183851242065,-1.32,0.91,-1.53,2.21
20.125372171401978,-1.29,0.93,-1.54,2.21
20.13462805747986,-1.27,0.88,-1.43,2.1
20.144129991531372,-1.31,0.88,-1.27,2.02
20.154572010040283,-1.29,1.01,-1.19,2.02
20.164538145065308,-1.23,1.21,-1.14,2.06
20.176693201065063,-1.2,1.34,-1.12,2.11
20.184974908828735,-1.19,1.35,-1.22,2.17
20.199525117874146,-1.17,1.21,-1.36,2.16
20.204439878463745,-1.17,1.02,-1.51,2.16
20.21861720085144,-1.08,0.83,-1.56,2.07
20.22394299507141,-1.0,0.67,-1.46,1.89
20.2347891330719,-0.93,0.54,-1.29,1.67
20.24443793296814,-0.92,0.45,-1.15,1.53
20.254929065704346,-0.9,0.39,-1.02,1.41
20.26473307609558,-0.92,0.39,-0.87,1.32
20.277575969696045,-0.92,0.36,-0.81,1.27
20.285692930221558,-0.9,0.39,-0.84,1.29
20.300023078918457,-0.91,0.45,-0.9,1.35
20.30455708503723,-0.92,0.48,-0.96,1.41
20.318514108657837,-0.89,0.52,-1.09,1.5
20.323993921279907,-0.84,0.56,-1.26,1.61
20.334911108016968,-0.81,0.58,-1.38,1.7
20.344362020492554,-0.71,0.57,-1.42,1.68
20.354699850082397,-0.71,0.61,-1.44,1.71
20.364548921585083,-0.66,0.61,-1.4,1.66
20.375847101211548,-0.61,0.59,-1.34,1.58
20.385707139968872,-0.51,0.58,-1.21,1.43
20.400053024291992,-0.44,0.6,-1.05,1.28
20.40506100654602,-0.31,0.59,-0.86,1.08
20.420660972595215,-0.26,0.58,-0.63,0.89
20.423863172531128,-0.14,0.63,-0.34,0.72
20.43440890312195,-0.03,0.61,-0.12,0.62
20.443762063980103,0.01,0.54,0.01,0.54
20.45348286628723,0.01,0.54,0.21,0.57
20.46365189552307,0.05,0.54,0.56,0.77
20.473701000213623,0.14,0.59,0.9,1.08
20.48541808128357,0.02,0.53,1.02,1.14
20.502480030059814,-0.13,0.37,0.92,1.0
20.50397515296936,-0.05,0.17,1.04,1.05
20.51697301864624,-0.01,0.02,1.1,1.1
20.52360510826111,-0.07,-0.21,1.24,1.25
20.53427004814148,-0.13,-0.38,1.32,1.37
20.54408288002014,-0.34,-0.49,1.1,1.25
20.554702043533325,-0.45,-0.38,0.92,1.09
20.563996076583862,-0.87,-0.68,0.69,1.3
20.574350118637085,-0.5,-0.21,1.02,1.15
20.584550142288208,-0.28,-0.17,1.17,1.21
20.599479913711548,-0.74,-0.47,0.71,1.12
20.60415291786194,-0.39,-0.13,0.92,1.0
20.61914610862732,-0.17,0.11,0.81,0.83
20.62349820137024,-0.12,0.09,0.91,0.92
20.63453507423401,0.03,0.3,0.99,1.03
20.643949031829834,0.15,0.52,0.82,0.98
20.6544349193573,0.42,0.69,0.68,1.05
20.664368867874146,0.46,0.8,0.35,0.98
20.67529606819153,0.48,0.86,-0.16,0.99
20.685191869735718,0.38,0.83,-0.69,1.14
20.70261311531067,0.33,0.79,-1.01,1.32
20.70387291908264,0.28,0.64,-1.23,1.41
20.71880602836609,0.21,0.42,-1.45,1.52
20.723402976989746,0.26,0.24,-1.6,1.63
20.734410047531128,0.22,0.03,-1.75,1.76
20.744094133377075,0.17,-0.1,-1.78,1.79
20.75438904762268,0.16,-0.29,-1.7,1.73
20.76425814628601,0.1,-0.5,-1.68,1.75
20.77413296699524,0.0,-0.62,-1.62,1.73
20.785218954086304,0.02,-0.61,-1.45,1.57
20.800873041152954,0.07,-0.56,-1.36,1.47
20.80410885810852,0.08,-0.58,-1.29,1.41
20.819565057754517,0.12,-0.58,-1.16,1.3
20.823544025421143,0.16,-0.53,-1.05,1.18
20.83429503440857,0.2,-0.49,-0.92,1.06
20.84447407722473,0.32,-0.49,-0.79,0.98
20.854315996170044,0.41,-0.48,-0.66,0.91
20.863649129867554,0.46,-0.51,-0.61,0.91
20.874216079711914,0.49,-0.46,-0.51,0.84
20.884244203567505,0.56,-0.41,-0.4,0.8
20.900295972824097,0.58,-0.38,-0.37,0.78
20.90354609489441,0.59,-0.38,-0.31,0.76
20.91963505744934,0.59,-0.36,-0.32,0.76
20.923269987106323,0.58,-0.28,-0.37,0.74
20.933799982070923,0.55,-0.16,-0.34,0.66
20.94494318962097,0.53,-0.06,-0.33,0.62
20.95344614982605,0.53,0.06,-0.26,0.59
20.963268041610718,0.55,0.18,-0.19,0.6
20.97330117225647,0.56,0.3,-0.19,0.66
20.98329186439514,0.54,0.37,-0.17,0.67
20.996888875961304,0.49,0.39,-0.23,0.66
21.003231048583984,0.5,0.43,-0.22,0.69
21.017065048217773,0.51,0.47,-0.2,0.72
21.023278951644897,0.52,0.44,-0.27,0.73
21.03348398208618,0.54,0.37,-0.34,0.73
21.043835878372192,0.56,0.31,-0.38,0.74
21.053547143936157,0.56,0.24,-0.39,0.72
21.06308388710022,0.55,0.16,-0.4,0.69
21.073225021362305,0.54,0.09,-0.37,0.66
21.083221197128296,0.54,0.03,-0.36,0.64
21.096315145492554,0.52,-0.02,-0.32,0.61
21.103051900863647,0.52,-0.02,-0.27,0.58
21.117367029190063,0.52,-0.01,-0.15,0.54
21.12298893928528,0.53,-0.03,-0.01,0.53
21.133251905441284,0.53,-0.03,0.14,0.54
21.144026041030884,0.49,0.09,0.31,0.58
21.153352975845337,0.4,0.23,0.39,0.6
21.163117170333862,0.42,0.24,0.31,0.57
21.173091173171997,0.45,0.11,0.11,0.47
21.183170080184937,0.48,-0.04,-0.15,0.5
21.203678846359253,0.43,-0.09,-0.41,0.6
21.204472064971924,0.33,-0.07,-0.49,0.59
21.21304202079773,0.25,-0.13,-0.47,0.54
21.223013162612915,0.22,-0.17,-0.38,0.47
21.233335971832275,0.14,-0.11,-0.21,0.27
21.243054151535034,0.08,0.04,-0.06,0.1
21.25280213356018,-0.03,0.2,-0.02,0.2
21.262899160385132,-0.01,0.06,-0.13,0.14
21.272847890853882,0.12,-0.29,-0.35,0.47
21.28306007385254,0.17,-0.39,-0.44,0.61
21.30284810066223,0.14,-0.3,-0.33,0.46
21.303661108016968,0.11,-0.25,-0.12,0.29
21.312989950180054,0.08,-0.32,0.14,0.35
21.322983026504517,0.13,-0.36,0.29,0.48
21.333034992218018,0.19,-0.36,0.21,0.45
21.342875003814697,0.2,-0.33,0.07,0.39
21.352850198745728,0.19,-0.25,-0.04,0.31
21.362791061401367,0.15,-0.15,-0.1,0.23
21.37281584739685,0.11,-0.06,-0.09,0.15
21.382835149765015,0.11,0.0,-0.02,0.11
21.402631044387817,0.11,0.07,0.03,0.13
21.403370141983032,0.11,0.09,0.1,0.17
21.41286301612854,0.07,0.11,0.07,0.14
21.423047065734863,-0.06,-0.02,0.31,0.31
21.432918071746826,-0.02,-0.12,0.18,0.21
21.442656993865967,0.35,-0.01,-0.34,0.48
21.4531672000885,0.11,0.09,-0.63,0.64
21.46268105506897,0.17,0.09,-1.01,1.02
21.472867012023926,0.06,0.06,-1.24,1.24
21.482764959335327,-0.04,-0.02,-1.0,1.0
